"rt","responses","trial_type","trial_index","time_elapsed","internal_node_id","match_key","participant_id","stimulus","key_press","block","stim_onset","match_type","image_category","sound_category","audio_type","phase","correct"
"11932.62999993749","{""Q0"":""35""}","survey-text","0","11970","0.0-0.0","l","35","","","","","","","","","",""
"70767.55500002764","","html-keyboard-response","1","82750","0.0-1.0","l","35","<p>Use KEYBOARD 1 (match RIGHT)</p><p>Press MATCH to continue.</p>","76","","","","","","","",""
"1829933.2749999594","","html-keyboard-response","2","1912208","0.0-2.0","l","35","<p>Welcome to the experiment.</p>","39","","","","","","","",""
"9577.019999967888","","html-keyboard-response","3","1921790","0.0-3.0","l","35","<p>Thank you for agreeing to participate in this study.</p><p>If during any part of the procedure you must stop for any reason, please inform the researcher that you do not wish to continue.</p>","39","","","","","","","",""
"18814.755000174046","","html-keyboard-response","4","1940609","0.0-4.0","l","35","<p>In this experiment, you will hear various words or sounds and see pictures of various animals and objects.</p><p>Most of the images will be of common everyday objects, such as cars, cats, cows, firearms, frogs, chickens, whistles, trains, motorcycles, and dogs.</p><p>Some of the images will be real-life stills, while others will be cartoons.</p>","39","","","","","","","",""
"15503.144999966025","","html-keyboard-response","5","1956113","0.0-5.0","l","35","<p>Sometimes, the word/sound will match the picture, for example you'll hear a meowing sound and see a cat.</p><p>Other times, the picture will not match the sound or word.</p><p>Your task is to decide as quickly as possible if the word/sound matches the picture or not. </p>","39","","","","","","","",""
"12830.524999881163","","html-keyboard-response","6","1968945","0.0-6.0","l","35","<p>For example, if you hear the word ""cat"" or hear a meowing sound, and then see a picture of a cat, you should press the MATCH key.</p><p> If the sound and image do not match, press the NOT-MATCH key to indicate that there is not a match.</p>","39","","","","","","","",""
"20606.49500018917","","html-keyboard-response","7","1989553","0.0-7.0","l","35","<p>If you make a mistake, you will hear a buzzing sound instead of a more pleasant sound.</p><p> Try to respond as quickly as possible, while making as few errors as possible. If you are making mistakes, you are probably rushing.</p>","39","","","","","","","",""
"12111.049999948591","","html-keyboard-response","8","2001654","0.0-8.0","l","35","<p>Please try to not move or blink your eyes during the presentation of the images. You can move and blink between images.</p><p>During the experiment there will be some breaks during which you can rest your eyes.</p>","39","","","","","","","",""
"20446.805000072345","","html-keyboard-response","9","2022102","0.0-9.0","l","35","<p>We will begin with 10 practice trials. Please let the experimenter know if you have any questions.</p>","39","","","","","","","",""
"null","","audio-keyboard-response","10","2022880","0.0-10.0-0.0","l","35","Sounds/rooster_label.wav","null","0","","","","","","",""
"null","","html-keyboard-response","11","2023873","0.0-10.0-1.0","l","35","<p style=""font-size: 48px;"">+</p>","null","0","","","","","","",""
"4450.4249999299645","","image-keyboard-response","12","2028326","0.0-10.0-2.0","l","35","Images/train_3.png","65","0","1583087961251","non-match","train","rooster","label","practice","true"
"null","","audio-keyboard-response","13","2030332","0.0-10.0-3.0","l","35","Sounds/correct.wav","null","0","","","","","","",""
"null","","audio-keyboard-response","14","2031419","0.0-10.0-0.1","l","35","Sounds/car_sound.wav","null","0","","","","","","",""
"null","","html-keyboard-response","15","2032423","0.0-10.0-1.1","l","35","<p style=""font-size: 48px;"">+</p>","null","0","","","","","","",""
"1293.0900000501424","","image-keyboard-response","16","2033718","0.0-10.0-2.1","l","35","Images/car_1.png","76","0","1583087969801","match","car","car","sound","practice","true"
"null","","audio-keyboard-response","17","2035734","0.0-10.0-3.1","l","35","Sounds/correct.wav","null","0","","","","","","",""
"null","","audio-keyboard-response","18","2037019","0.0-10.0-0.2","l","35","Sounds/train_label.wav","null","0","","","","","","",""
"null","","html-keyboard-response","19","2038023","0.0-10.0-1.2","l","35","<p style=""font-size: 48px;"">+</p>","null","0","","","","","","",""
"1068.8400000799447","","image-keyboard-response","20","2039093","0.0-10.0-2.2","l","35","Images/train_cartoon.png","76","0","1583087975401","match","train","train","label","practice","true"
"null","","audio-keyboard-response","21","2041097","0.0-10.0-3.2","l","35","Sounds/correct.wav","null","0","","","","","","",""
"null","","audio-keyboard-response","22","2041939","0.0-10.0-0.3","l","35","Sounds/cat_label.wav","null","0","","","","","","",""
"null","","html-keyboard-response","23","2042956","0.0-10.0-1.3","l","35","<p style=""font-size: 48px;"">+</p>","null","0","","","","","","",""
"968.0500000249594","","image-keyboard-response","24","2043926","0.0-10.0-2.3","l","35","Images/cat_2.png","76","0","1583087980335","match","cat","cat","label","practice","true"
"null","","audio-keyboard-response","25","2045944","0.0-10.0-3.3","l","35","Sounds/correct.wav","null","0","","","","","","",""
"null","","audio-keyboard-response","26","2047059","0.0-10.0-0.4","l","35","Sounds/motorcycle_sound.wav","null","0","","","","","","",""
"null","","html-keyboard-response","27","2048057","0.0-10.0-1.4","l","35","<p style=""font-size: 48px;"">+</p>","null","0","","","","","","",""
"923.3999999705702","","image-keyboard-response","28","2048981","0.0-10.0-2.4","l","35","Images/motorcycle_3.png","76","0","1583087985435","match","motorcycle","motorcycle","sound","practice","true"
"null","","audio-keyboard-response","29","2050995","0.0-10.0-3.4","l","35","Sounds/correct.wav","null","0","","","","","","",""
"null","","audio-keyboard-response","30","2052299","0.0-10.0-0.5","l","35","Sounds/train_sound.wav","null","0","","","","","","",""
"null","","html-keyboard-response","31","2053290","0.0-10.0-1.5","l","35","<p style=""font-size: 48px;"">+</p>","null","0","","","","","","",""
"762.0650001335889","","image-keyboard-response","32","2054053","0.0-10.0-2.5","l","35","Images/frog_2.png","65","0","1583087990668","non-match","frog","train","sound","practice","true"
"null","","audio-keyboard-response","33","2056062","0.0-10.0-3.5","l","35","Sounds/correct.wav","null","0","","","","","","",""
"null","","audio-keyboard-response","34","2056639","0.0-10.0-0.6","l","35","Sounds/gun_sound.wav","null","0","","","","","","",""
"null","","html-keyboard-response","35","2057657","0.0-10.0-1.6","l","35","<p style=""font-size: 48px;"">+</p>","null","0","","","","","","",""
"891.3700000848621","","image-keyboard-response","36","2058549","0.0-10.0-2.6","l","35","Images/gun_3.png","76","0","1583087995035","match","gun","gun","sound","practice","true"
"null","","audio-keyboard-response","37","2060562","0.0-10.0-3.6","l","35","Sounds/correct.wav","null","0","","","","","","",""
"null","","audio-keyboard-response","38","2061479","0.0-10.0-0.7","l","35","Sounds/frog_sound.wav","null","0","","","","","","",""
"null","","html-keyboard-response","39","2062490","0.0-10.0-1.7","l","35","<p style=""font-size: 48px;"">+</p>","null","0","","","","","","",""
"746.7799999285489","","image-keyboard-response","40","2063238","0.0-10.0-2.7","l","35","Images/cat_orig.png","65","0","1583087999868","non-match","cat","frog","sound","practice","true"
"null","","audio-keyboard-response","41","2065245","0.0-10.0-3.7","l","35","Sounds/correct.wav","null","0","","","","","","",""
"null","","audio-keyboard-response","42","2066336","0.0-10.0-0.8","l","35","Sounds/car_sound.wav","null","0","","","","","","",""
"null","","html-keyboard-response","43","2067340","0.0-10.0-1.8","l","35","<p style=""font-size: 48px;"">+</p>","null","0","","","","","","",""
"888.9649999327958","","image-keyboard-response","44","2068230","0.0-10.0-2.8","l","35","Images/cat_2.png","65","0","1583088004718","non-match","cat","car","sound","practice","true"
"null","","audio-keyboard-response","45","2070244","0.0-10.0-3.8","l","35","Sounds/correct.wav","null","0","","","","","","",""
"null","","audio-keyboard-response","46","2070956","0.0-10.0-0.9","l","35","Sounds/whistle_label.wav","null","0","","","","","","",""
"null","","html-keyboard-response","47","2071973","0.0-10.0-1.9","l","35","<p style=""font-size: 48px;"">+</p>","null","0","","","","","","",""
"719.2250001244247","","image-keyboard-response","48","2072694","0.0-10.0-2.9","l","35","Images/cat_1.png","65","0","1583088009351","non-match","cat","whistle","label","practice","true"
"null","","audio-keyboard-response","49","2074698","0.0-10.0-3.9","l","35","Sounds/correct.wav","null","0","","","","","","",""
"22811.639999970794","","html-keyboard-response","50","2097510","0.0-11.0","l","35","<p>The rest of the experiment is divided into five blocks with 100 trials in each block. It will take about 45 minutes to complete.</p><p>The experimenter will be in the outer room and you can communicate with them through the monitor if you have any questions or wish to stop the experiment.</p>","39","","","","","","","",""
"18126.604999881238","","html-keyboard-response","51","2115638","0.0-12.0","l","35","<p>Remember, please try not to move or blink your eyes during the presentation of the images. </p><p>At the end of the experiment, we will show you your scores on the task so you can see how you did.</p><p>The experiment will start on the next screen.</p>","39","","","","","","","",""
"null","","audio-keyboard-response","52","2118789","0.0-13.0-0.0","l","35","Sounds/motorcycle_sound.wav","null","1","","","","","","",""
"null","","html-keyboard-response","53","2119791","0.0-13.0-1.0","l","35","<p style=""font-size: 48px;"">+</p>","null","1","","","","","","",""
"581.9200000260025","","image-keyboard-response","54","2120374","0.0-13.0-2.0","l","35","Images/motorcycle_3.png","76","1","1583088057169","match","motorcycle","motorcycle","sound","test","true"
"null","","audio-keyboard-response","55","2122383","0.0-13.0-3.0","l","35","Sounds/correct.wav","null","1","","","","","","",""
"null","","audio-keyboard-response","56","2123532","0.0-13.0-0.1","l","35","Sounds/motorcycle_label.wav","null","1","","","","","","",""
"null","","html-keyboard-response","57","2124526","0.0-13.0-1.1","l","35","<p style=""font-size: 48px;"">+</p>","null","1","","","","","","",""
"648.744999896735","","image-keyboard-response","58","2125176","0.0-13.0-2.1","l","35","Images/motorcycle_cartoon.png","76","1","1583088061905","match","motorcycle","motorcycle","label","test","true"
"null","","audio-keyboard-response","59","2127181","0.0-13.0-3.1","l","35","Sounds/correct.wav","null","1","","","","","","",""
"null","","audio-keyboard-response","60","2128471","0.0-13.0-0.2","l","35","Sounds/train_label.wav","null","1","","","","","","",""
"null","","html-keyboard-response","61","2129476","0.0-13.0-1.2","l","35","<p style=""font-size: 48px;"">+</p>","null","1","","","","","","",""
"946.5949998702854","","image-keyboard-response","62","2130424","0.0-13.0-2.2","l","35","Images/gun_2.png","65","1","1583088066854","non-match","gun","train","label","test","true"
"null","","audio-keyboard-response","63","2132429","0.0-13.0-3.2","l","35","Sounds/correct.wav","null","1","","","","","","",""
"null","","audio-keyboard-response","64","2133131","0.0-13.0-0.3","l","35","Sounds/rooster_label.wav","null","1","","","","","","",""
"null","","html-keyboard-response","65","2134126","0.0-13.0-1.3","l","35","<p style=""font-size: 48px;"">+</p>","null","1","","","","","","",""
"792.6699998788536","","image-keyboard-response","66","2134920","0.0-13.0-2.3","l","35","Images/whistle_cartoon.png","65","1","1583088071504","non-match","whistle","rooster","label","test","true"
"null","","audio-keyboard-response","67","2136929","0.0-13.0-3.3","l","35","Sounds/correct.wav","null","1","","","","","","",""
"null","","audio-keyboard-response","68","2137631","0.0-13.0-0.4","l","35","Sounds/whistle_label.wav","null","1","","","","","","",""
"null","","html-keyboard-response","69","2138626","0.0-13.0-1.4","l","35","<p style=""font-size: 48px;"">+</p>","null","1","","","","","","",""
"708.5750000551343","","image-keyboard-response","70","2139336","0.0-13.0-2.4","l","35","Images/whistle_orig.png","76","1","1583088076005","match","whistle","whistle","label","test","true"
"null","","audio-keyboard-response","71","2141346","0.0-13.0-3.4","l","35","Sounds/correct.wav","null","1","","","","","","",""
"null","","audio-keyboard-response","72","2142251","0.0-13.0-0.5","l","35","Sounds/frog_label.wav","null","1","","","","","","",""
"null","","html-keyboard-response","73","2143243","0.0-13.0-1.5","l","35","<p style=""font-size: 48px;"">+</p>","null","1","","","","","","",""
"716.1199999973178","","image-keyboard-response","74","2143960","0.0-13.0-2.5","l","35","Images/frog_3.png","76","1","1583088080621","match","frog","frog","label","test","true"
"null","","audio-keyboard-response","75","2145965","0.0-13.0-3.5","l","35","Sounds/correct.wav","null","1","","","","","","",""
"null","","audio-keyboard-response","76","2146631","0.0-13.0-0.6","l","35","Sounds/rooster_label.wav","null","1","","","","","","",""
"null","","html-keyboard-response","77","2147626","0.0-13.0-1.6","l","35","<p style=""font-size: 48px;"">+</p>","null","1","","","","","","",""
"668.4650001116097","","image-keyboard-response","78","2148296","0.0-13.0-2.6","l","35","Images/gun_1.png","65","1","1583088085004","non-match","gun","rooster","label","test","true"
"null","","audio-keyboard-response","79","2150301","0.0-13.0-3.6","l","35","Sounds/correct.wav","null","1","","","","","","",""
"null","","audio-keyboard-response","80","2151171","0.0-13.0-0.7","l","35","Sounds/frog_label.wav","null","1","","","","","","",""
"null","","html-keyboard-response","81","2152160","0.0-13.0-1.7","l","35","<p style=""font-size: 48px;"">+</p>","null","1","","","","","","",""
"871.345000108704","","image-keyboard-response","82","2153032","0.0-13.0-2.7","l","35","Images/car_3.png","65","1","1583088089538","non-match","car","frog","label","test","true"
"null","","audio-keyboard-response","83","2155049","0.0-13.0-3.7","l","35","Sounds/correct.wav","null","1","","","","","","",""
"null","","audio-keyboard-response","84","2156351","0.0-13.0-0.8","l","35","Sounds/train_sound.wav","null","1","","","","","","",""
"null","","html-keyboard-response","85","2157343","0.0-13.0-1.8","l","35","<p style=""font-size: 48px;"">+</p>","null","1","","","","","","",""
"1287.965000141412","","image-keyboard-response","86","2158632","0.0-13.0-2.8","l","35","Images/train_1.png","76","1","1583088094721","match","train","train","sound","test","true"
"null","","audio-keyboard-response","87","2160650","0.0-13.0-3.8","l","35","Sounds/correct.wav","null","1","","","","","","",""
"null","","audio-keyboard-response","88","2161731","0.0-13.0-0.9","l","35","Sounds/car_sound.wav","null","1","","","","","","",""
"null","","html-keyboard-response","89","2162726","0.0-13.0-1.9","l","35","<p style=""font-size: 48px;"">+</p>","null","1","","","","","","",""
"1424.1450000554323","","image-keyboard-response","90","2164152","0.0-13.0-2.9","l","35","Images/motorcycle_cartoon.png","76","1","1583088100105","non-match","motorcycle","car","sound","test","false"
"null","","audio-keyboard-response","91","2166154","0.0-13.0-3.9","l","35","Sounds/incorrect.wav","null","1","","","","","","",""
"null","","audio-keyboard-response","92","2166811","0.0-13.0-0.10","l","35","Sounds/dog_label.wav","null","1","","","","","","",""
"null","","html-keyboard-response","93","2167810","0.0-13.0-1.10","l","35","<p style=""font-size: 48px;"">+</p>","null","1","","","","","","",""
"740.9350001253188","","image-keyboard-response","94","2168552","0.0-13.0-2.10","l","35","Images/dog_cartoon.png","76","1","1583088105188","match","dog","dog","label","test","true"
"null","","audio-keyboard-response","95","2170565","0.0-13.0-3.10","l","35","Sounds/correct.wav","null","1","","","","","","",""
"null","","audio-keyboard-response","96","2171271","0.0-13.0-0.11","l","35","Sounds/dog_sound.wav","null","1","","","","","","",""
"null","","html-keyboard-response","97","2172260","0.0-13.0-1.11","l","35","<p style=""font-size: 48px;"">+</p>","null","1","","","","","","",""
"803.1250000931323","","image-keyboard-response","98","2173064","0.0-13.0-2.11","l","35","Images/rooster_orig.png","65","1","1583088109638","non-match","rooster","dog","sound","test","true"
"null","","audio-keyboard-response","99","2175081","0.0-13.0-3.11","l","35","Sounds/correct.wav","null","1","","","","","","",""
"null","","audio-keyboard-response","100","2175791","0.0-13.0-0.12","l","35","Sounds/rooster_sound.wav","null","1","","","","","","",""
"null","","html-keyboard-response","101","2176793","0.0-13.0-1.12","l","35","<p style=""font-size: 48px;"">+</p>","null","1","","","","","","",""
"653.5150001291186","","image-keyboard-response","102","2177448","0.0-13.0-2.12","l","35","Images/rooster_3.png","76","1","1583088114172","match","rooster","rooster","sound","test","true"
"null","","audio-keyboard-response","103","2179464","0.0-13.0-3.12","l","35","Sounds/correct.wav","null","1","","","","","","",""
"null","","audio-keyboard-response","104","2180051","0.0-13.0-0.13","l","35","Sounds/gun_label.wav","null","1","","","","","","",""
"null","","html-keyboard-response","105","2181043","0.0-13.0-1.13","l","35","<p style=""font-size: 48px;"">+</p>","null","1","","","","","","",""
"611.5899998694658","","image-keyboard-response","106","2181656","0.0-13.0-2.13","l","35","Images/gun_2.png","76","1","1583088118422","match","gun","gun","label","test","true"
"null","","audio-keyboard-response","107","2183667","0.0-13.0-3.13","l","35","Sounds/correct.wav","null","1","","","","","","",""
"null","","audio-keyboard-response","108","2184513","0.0-13.0-0.14","l","35","Sounds/cat_label.wav","null","1","","","","","","",""
"null","","html-keyboard-response","109","2185512","0.0-13.0-1.14","l","35","<p style=""font-size: 48px;"">+</p>","null","1","","","","","","",""
"752.8699999675155","","image-keyboard-response","110","2186266","0.0-13.0-2.14","l","35","Images/cat_1.png","76","1","1583088122891","match","cat","cat","label","test","true"
"null","","audio-keyboard-response","111","2188270","0.0-13.0-3.14","l","35","Sounds/correct.wav","null","1","","","","","","",""
"null","","audio-keyboard-response","112","2189293","0.0-13.0-0.15","l","35","Sounds/cow_sound.wav","null","1","","","","","","",""
"null","","html-keyboard-response","113","2190296","0.0-13.0-1.15","l","35","<p style=""font-size: 48px;"">+</p>","null","1","","","","","","",""
"625.620000064373","","image-keyboard-response","114","2190922","0.0-13.0-2.15","l","35","Images/dog_cartoon.png","65","1","1583088127674","non-match","dog","cow","sound","test","true"
"null","","audio-keyboard-response","115","2192933","0.0-13.0-3.15","l","35","Sounds/correct.wav","null","1","","","","","","",""
"null","","audio-keyboard-response","116","2194013","0.0-13.0-0.16","l","35","Sounds/car_sound.wav","null","1","","","","","","",""
"null","","html-keyboard-response","117","2195013","0.0-13.0-1.16","l","35","<p style=""font-size: 48px;"">+</p>","null","1","","","","","","",""
"1108.574999962002","","image-keyboard-response","118","2196122","0.0-13.0-2.16","l","35","Images/train_2.png","65","1","1583088132391","non-match","train","car","sound","test","true"
"null","","audio-keyboard-response","119","2198134","0.0-13.0-3.16","l","35","Sounds/correct.wav","null","1","","","","","","",""
"null","","audio-keyboard-response","120","2198833","0.0-13.0-0.17","l","35","Sounds/whistle_label.wav","null","1","","","","","","",""
"null","","html-keyboard-response","121","2199829","0.0-13.0-1.17","l","35","<p style=""font-size: 48px;"">+</p>","null","1","","","","","","",""
"820.3499999362975","","image-keyboard-response","122","2200650","0.0-13.0-2.17","l","35","Images/cat_2.png","65","1","1583088137208","non-match","cat","whistle","label","test","true"
"null","","audio-keyboard-response","123","2202667","0.0-13.0-3.17","l","35","Sounds/correct.wav","null","1","","","","","","",""
"null","","audio-keyboard-response","124","2203253","0.0-13.0-0.18","l","35","Sounds/gun_label.wav","null","1","","","","","","",""
"null","","html-keyboard-response","125","2204246","0.0-13.0-1.18","l","35","<p style=""font-size: 48px;"">+</p>","null","1","","","","","","",""
"963.4150001220405","","image-keyboard-response","126","2205210","0.0-13.0-2.18","l","35","Images/whistle_3.png","65","1","1583088141624","non-match","whistle","gun","label","test","true"
"null","","audio-keyboard-response","127","2207217","0.0-13.0-3.18","l","35","Sounds/correct.wav","null","1","","","","","","",""
"null","","audio-keyboard-response","128","2207893","0.0-13.0-0.19","l","35","Sounds/whistle_label.wav","null","1","","","","","","",""
"null","","html-keyboard-response","129","2208896","0.0-13.0-1.19","l","35","<p style=""font-size: 48px;"">+</p>","null","1","","","","","","",""
"713.3049999829382","","image-keyboard-response","130","2209611","0.0-13.0-2.19","l","35","Images/motorcycle_orig.png","65","1","1583088146274","non-match","motorcycle","whistle","label","test","true"
"null","","audio-keyboard-response","131","2211625","0.0-13.0-3.19","l","35","Sounds/correct.wav","null","1","","","","","","",""
"null","","audio-keyboard-response","132","2212533","0.0-13.0-0.20","l","35","Sounds/frog_sound.wav","null","1","","","","","","",""
"null","","html-keyboard-response","133","2213529","0.0-13.0-1.20","l","35","<p style=""font-size: 48px;"">+</p>","null","1","","","","","","",""
"720.1249999925494","","image-keyboard-response","134","2214250","0.0-13.0-2.20","l","35","Images/frog_1.png","76","1","1583088150908","match","frog","frog","sound","test","true"
"null","","audio-keyboard-response","135","2216267","0.0-13.0-3.20","l","35","Sounds/correct.wav","null","1","","","","","","",""
"null","","audio-keyboard-response","136","2217293","0.0-13.0-0.21","l","35","Sounds/cow_label.wav","null","1","","","","","","",""
"null","","html-keyboard-response","137","2218296","0.0-13.0-1.21","l","35","<p style=""font-size: 48px;"">+</p>","null","1","","","","","","",""
"737.1300000231713","","image-keyboard-response","138","2219034","0.0-13.0-2.21","l","35","Images/cow_orig.png","76","1","1583088155674","match","cow","cow","label","test","true"
"null","","audio-keyboard-response","139","2221050","0.0-13.0-3.21","l","35","Sounds/correct.wav","null","1","","","","","","",""
"null","","audio-keyboard-response","140","2222133","0.0-13.0-0.22","l","35","Sounds/car_sound.wav","null","1","","","","","","",""
"null","","html-keyboard-response","141","2223130","0.0-13.0-1.22","l","35","<p style=""font-size: 48px;"">+</p>","null","1","","","","","","",""
"895.5850000493228","","image-keyboard-response","142","2224026","0.0-13.0-2.22","l","35","Images/whistle_2.png","65","1","1583088160508","non-match","whistle","car","sound","test","true"
"null","","audio-keyboard-response","143","2226035","0.0-13.0-3.22","l","35","Sounds/correct.wav","null","1","","","","","","",""
"null","","audio-keyboard-response","144","2226733","0.0-13.0-0.23","l","35","Sounds/rooster_label.wav","null","1","","","","","","",""
"null","","html-keyboard-response","145","2227729","0.0-13.0-1.23","l","35","<p style=""font-size: 48px;"">+</p>","null","1","","","","","","",""
"1144.065000116825","","image-keyboard-response","146","2228875","0.0-13.0-2.23","l","35","Images/cat_cartoon.png","65","1","1583088165108","non-match","cat","rooster","label","test","true"
"null","","audio-keyboard-response","147","2230888","0.0-13.0-3.23","l","35","Sounds/correct.wav","null","1","","","","","","",""
"null","","audio-keyboard-response","148","2231793","0.0-13.0-0.24","l","35","Sounds/frog_label.wav","null","1","","","","","","",""
"null","","html-keyboard-response","149","2232796","0.0-13.0-1.24","l","35","<p style=""font-size: 48px;"">+</p>","null","1","","","","","","",""
"908.8699999265373","","image-keyboard-response","150","2233706","0.0-13.0-2.24","l","35","Images/frog_2.png","76","1","1583088170175","match","frog","frog","label","test","true"
"null","","audio-keyboard-response","151","2235716","0.0-13.0-3.24","l","35","Sounds/correct.wav","null","1","","","","","","",""
"null","","audio-keyboard-response","152","2236553","0.0-13.0-0.25","l","35","Sounds/cat_sound.wav","null","1","","","","","","",""
"null","","html-keyboard-response","153","2237546","0.0-13.0-1.25","l","35","<p style=""font-size: 48px;"">+</p>","null","1","","","","","","",""
"1791.0149998497218","","image-keyboard-response","154","2239338","0.0-13.0-2.25","l","35","Images/cat_2.png","76","1","1583088174925","match","cat","cat","sound","test","true"
"null","","audio-keyboard-response","155","2241354","0.0-13.0-3.25","l","35","Sounds/correct.wav","null","1","","","","","","",""
"null","","audio-keyboard-response","156","2242433","0.0-13.0-0.26","l","35","Sounds/car_label.wav","null","1","","","","","","",""
"null","","html-keyboard-response","157","2243430","0.0-13.0-1.26","l","35","<p style=""font-size: 48px;"">+</p>","null","1","","","","","","",""
"979.6599999535829","","image-keyboard-response","158","2244410","0.0-13.0-2.26","l","35","Images/dog_2.png","65","1","1583088180808","non-match","dog","car","label","test","true"
"null","","audio-keyboard-response","159","2246419","0.0-13.0-3.26","l","35","Sounds/correct.wav","null","1","","","","","","",""
"null","","audio-keyboard-response","160","2247693","0.0-13.0-0.27","l","35","Sounds/train_label.wav","null","1","","","","","","",""
"null","","html-keyboard-response","161","2248696","0.0-13.0-1.27","l","35","<p style=""font-size: 48px;"">+</p>","null","1","","","","","","",""
"528.9199999533594","","image-keyboard-response","162","2249226","0.0-13.0-2.27","l","35","Images/train_orig.png","76","1","1583088186075","match","train","train","label","test","true"
"null","","audio-keyboard-response","163","2251235","0.0-13.0-3.27","l","35","Sounds/correct.wav","null","1","","","","","","",""
"null","","audio-keyboard-response","164","2251933","0.0-13.0-0.28","l","35","Sounds/whistle_sound.wav","null","1","","","","","","",""
"null","","html-keyboard-response","165","2252930","0.0-13.0-1.28","l","35","<p style=""font-size: 48px;"">+</p>","null","1","","","","","","",""
"695.5699999816716","","image-keyboard-response","166","2253626","0.0-13.0-2.28","l","35","Images/whistle_1.png","76","1","1583088190308","match","whistle","whistle","sound","test","true"
"null","","audio-keyboard-response","167","2255635","0.0-13.0-3.28","l","35","Sounds/correct.wav","null","1","","","","","","",""
"null","","audio-keyboard-response","168","2256653","0.0-13.0-0.29","l","35","Sounds/cow_label.wav","null","1","","","","","","",""
"null","","html-keyboard-response","169","2257646","0.0-13.0-1.29","l","35","<p style=""font-size: 48px;"">+</p>","null","1","","","","","","",""
"651.0300000663847","","image-keyboard-response","170","2258298","0.0-13.0-2.29","l","35","Images/cow_1.png","76","1","1583088195024","match","cow","cow","label","test","true"
"null","","audio-keyboard-response","171","2260301","0.0-13.0-3.29","l","35","Sounds/correct.wav","null","1","","","","","","",""
"null","","audio-keyboard-response","172","2261193","0.0-13.0-0.30","l","35","Sounds/frog_label.wav","null","1","","","","","","",""
"null","","html-keyboard-response","173","2262196","0.0-13.0-1.30","l","35","<p style=""font-size: 48px;"">+</p>","null","1","","","","","","",""
"500.68000005558133","","image-keyboard-response","174","2262698","0.0-13.0-2.30","l","35","Images/frog_orig.png","76","1","1583088199575","match","frog","frog","label","test","true"
"null","","audio-keyboard-response","175","2264702","0.0-13.0-3.30","l","35","Sounds/correct.wav","null","1","","","","","","",""
"null","","audio-keyboard-response","176","2265773","0.0-13.0-0.31","l","35","Sounds/car_sound.wav","null","1","","","","","","",""
"null","","html-keyboard-response","177","2266763","0.0-13.0-1.31","l","35","<p style=""font-size: 48px;"">+</p>","null","1","","","","","","",""
"782.1899999398738","","image-keyboard-response","178","2267546","0.0-13.0-2.31","l","35","Images/car_1.png","76","1","1583088204141","match","car","car","sound","test","true"
"null","","audio-keyboard-response","179","2269562","0.0-13.0-3.31","l","35","Sounds/correct.wav","null","1","","","","","","",""
"null","","audio-keyboard-response","180","2270253","0.0-13.0-0.32","l","35","Sounds/whistle_label.wav","null","1","","","","","","",""
"null","","html-keyboard-response","181","2271246","0.0-13.0-1.32","l","35","<p style=""font-size: 48px;"">+</p>","null","1","","","","","","",""
"602.6200000196695","","image-keyboard-response","182","2271850","0.0-13.0-2.32","l","35","Images/whistle_cartoon.png","76","1","1583088208625","match","whistle","whistle","label","test","true"
"null","","audio-keyboard-response","183","2273867","0.0-13.0-3.32","l","35","Sounds/correct.wav","null","1","","","","","","",""
"null","","audio-keyboard-response","184","2274713","0.0-13.0-0.33","l","35","Sounds/cat_sound.wav","null","1","","","","","","",""
"null","","html-keyboard-response","185","2275713","0.0-13.0-1.33","l","35","<p style=""font-size: 48px;"">+</p>","null","1","","","","","","",""
"663.7599999085069","","image-keyboard-response","186","2276378","0.0-13.0-2.33","l","35","Images/motorcycle_1.png","65","1","1583088213091","non-match","motorcycle","cat","sound","test","true"
"null","","audio-keyboard-response","187","2278385","0.0-13.0-3.33","l","35","Sounds/correct.wav","null","1","","","","","","",""
"null","","audio-keyboard-response","188","2279093","0.0-13.0-0.34","l","35","Sounds/rooster_label.wav","null","1","","","","","","",""
"null","","html-keyboard-response","189","2280097","0.0-13.0-1.34","l","35","<p style=""font-size: 48px;"">+</p>","null","1","","","","","","",""
"616.575000109151","","image-keyboard-response","190","2280714","0.0-13.0-2.34","l","35","Images/rooster_2.png","76","1","1583088217475","match","rooster","rooster","label","test","true"
"null","","audio-keyboard-response","191","2282718","0.0-13.0-3.34","l","35","Sounds/correct.wav","null","1","","","","","","",""
"null","","audio-keyboard-response","192","2283734","0.0-13.0-0.35","l","35","Sounds/cow_sound.wav","null","1","","","","","","",""
"null","","html-keyboard-response","193","2284730","0.0-13.0-1.35","l","35","<p style=""font-size: 48px;"">+</p>","null","1","","","","","","",""
"527.1050001028925","","image-keyboard-response","194","2285258","0.0-13.0-2.35","l","35","Images/cow_2.png","76","1","1583088222108","match","cow","cow","sound","test","true"
"null","","audio-keyboard-response","195","2287268","0.0-13.0-3.35","l","35","Sounds/correct.wav","null","1","","","","","","",""
"null","","audio-keyboard-response","196","2287953","0.0-13.0-0.36","l","35","Sounds/whistle_label.wav","null","1","","","","","","",""
"null","","html-keyboard-response","197","2288947","0.0-13.0-1.36","l","35","<p style=""font-size: 48px;"">+</p>","null","1","","","","","","",""
"678.224999923259","","image-keyboard-response","198","2289626","0.0-13.0-2.36","l","35","Images/whistle_3.png","76","1","1583088226325","match","whistle","whistle","label","test","true"
"null","","audio-keyboard-response","199","2291637","0.0-13.0-3.36","l","35","Sounds/correct.wav","null","1","","","","","","",""
"null","","audio-keyboard-response","200","2292553","0.0-13.0-0.37","l","35","Sounds/frog_sound.wav","null","1","","","","","","",""
"null","","html-keyboard-response","201","2293547","0.0-13.0-1.37","l","35","<p style=""font-size: 48px;"">+</p>","null","1","","","","","","",""
"590.6100000720471","","image-keyboard-response","202","2294138","0.0-13.0-2.37","l","35","Images/train_1.png","65","1","1583088230925","non-match","train","frog","sound","test","true"
"null","","audio-keyboard-response","203","2296152","0.0-13.0-3.37","l","35","Sounds/correct.wav","null","1","","","","","","",""
"null","","audio-keyboard-response","204","2296833","0.0-13.0-0.38","l","35","Sounds/whistle_label.wav","null","1","","","","","","",""
"null","","html-keyboard-response","205","2297830","0.0-13.0-1.38","l","35","<p style=""font-size: 48px;"">+</p>","null","1","","","","","","",""
"690.764999948442","","image-keyboard-response","206","2298522","0.0-13.0-2.38","l","35","Images/dog_1.png","65","1","1583088235208","non-match","dog","whistle","label","test","true"
"null","","audio-keyboard-response","207","2300536","0.0-13.0-3.38","l","35","Sounds/correct.wav","null","1","","","","","","",""
"null","","audio-keyboard-response","208","2301373","0.0-13.0-0.39","l","35","Sounds/cat_label.wav","null","1","","","","","","",""
"null","","html-keyboard-response","209","2302363","0.0-13.0-1.39","l","35","<p style=""font-size: 48px;"">+</p>","null","1","","","","","","",""
"622.0599999651313","","image-keyboard-response","210","2302986","0.0-13.0-2.39","l","35","Images/cow_cartoon.png","65","1","1583088239742","non-match","cow","cat","label","test","true"
"null","","audio-keyboard-response","211","2305002","0.0-13.0-3.39","l","35","Sounds/correct.wav","null","1","","","","","","",""
"null","","audio-keyboard-response","212","2305714","0.0-13.0-0.40","l","35","Sounds/dog_sound.wav","null","1","","","","","","",""
"null","","html-keyboard-response","213","2306714","0.0-13.0-1.40","l","35","<p style=""font-size: 48px;"">+</p>","null","1","","","","","","",""
"527.8200001921505","","image-keyboard-response","214","2307243","0.0-13.0-2.40","l","35","Images/train_orig.png","65","1","1583088244092","non-match","train","dog","sound","test","true"
"null","","audio-keyboard-response","215","2309252","0.0-13.0-3.40","l","35","Sounds/correct.wav","null","1","","","","","","",""
"null","","audio-keyboard-response","216","2309914","0.0-13.0-0.41","l","35","Sounds/dog_label.wav","null","1","","","","","","",""
"null","","html-keyboard-response","217","2310914","0.0-13.0-1.41","l","35","<p style=""font-size: 48px;"">+</p>","null","1","","","","","","",""
"983.574999962002","","image-keyboard-response","218","2311899","0.0-13.0-2.41","l","35","Images/dog_1.png","76","1","1583088248292","match","dog","dog","label","test","true"
"null","","audio-keyboard-response","219","2313905","0.0-13.0-3.41","l","35","Sounds/correct.wav","null","1","","","","","","",""
"null","","audio-keyboard-response","220","2314613","0.0-13.0-0.42","l","35","Sounds/rooster_label.wav","null","1","","","","","","",""
"null","","html-keyboard-response","221","2315614","0.0-13.0-1.42","l","35","<p style=""font-size: 48px;"">+</p>","null","1","","","","","","",""
"1003.4050000831485","","image-keyboard-response","222","2316619","0.0-13.0-2.42","l","35","Images/rooster_1.png","76","1","1583088252992","match","rooster","rooster","label","test","true"
"null","","audio-keyboard-response","223","2318635","0.0-13.0-3.42","l","35","Sounds/correct.wav","null","1","","","","","","",""
"null","","audio-keyboard-response","224","2319473","0.0-13.0-0.43","l","35","Sounds/cat_label.wav","null","1","","","","","","",""
"null","","html-keyboard-response","225","2320464","0.0-13.0-1.43","l","35","<p style=""font-size: 48px;"">+</p>","null","1","","","","","","",""
"665.6049999874085","","image-keyboard-response","226","2321131","0.0-13.0-2.43","l","35","Images/cat_3.png","76","1","1583088257842","match","cat","cat","label","test","true"
"null","","audio-keyboard-response","227","2323138","0.0-13.0-3.43","l","35","Sounds/correct.wav","null","1","","","","","","",""
"null","","audio-keyboard-response","228","2323834","0.0-13.0-0.44","l","35","Sounds/whistle_sound.wav","null","1","","","","","","",""
"null","","html-keyboard-response","229","2324831","0.0-13.0-1.44","l","35","<p style=""font-size: 48px;"">+</p>","null","1","","","","","","",""
"698.5899999272078","","image-keyboard-response","230","2325531","0.0-13.0-2.44","l","35","Images/whistle_2.png","76","1","1583088262209","match","whistle","whistle","sound","test","true"
"null","","audio-keyboard-response","231","2327537","0.0-13.0-3.44","l","35","Sounds/correct.wav","null","1","","","","","","",""
"null","","audio-keyboard-response","232","2328114","0.0-13.0-0.45","l","35","Sounds/gun_sound.wav","null","1","","","","","","",""
"null","","html-keyboard-response","233","2329131","0.0-13.0-1.45","l","35","<p style=""font-size: 48px;"">+</p>","null","1","","","","","","",""
"1070.575000019744","","image-keyboard-response","234","2330203","0.0-13.0-2.45","l","35","Images/gun_cartoon.png","76","1","1583088266510","match","gun","gun","sound","test","true"
"null","","audio-keyboard-response","235","2332218","0.0-13.0-3.45","l","35","Sounds/correct.wav","null","1","","","","","","",""
"null","","audio-keyboard-response","236","2332793","0.0-13.0-0.46","l","35","Sounds/gun_label.wav","null","1","","","","","","",""
"null","","html-keyboard-response","237","2333798","0.0-13.0-1.46","l","35","<p style=""font-size: 48px;"">+</p>","null","1","","","","","","",""
"627.7400001417845","","image-keyboard-response","238","2334427","0.0-13.0-2.46","l","35","Images/train_cartoon.png","65","1","1583088271176","non-match","train","gun","label","test","true"
"null","","audio-keyboard-response","239","2336437","0.0-13.0-3.46","l","35","Sounds/correct.wav","null","1","","","","","","",""
"null","","audio-keyboard-response","240","2337154","0.0-13.0-0.47","l","35","Sounds/dog_sound.wav","null","1","","","","","","",""
"null","","html-keyboard-response","241","2338148","0.0-13.0-1.47","l","35","<p style=""font-size: 48px;"">+</p>","null","1","","","","","","",""
"694.0600001253188","","image-keyboard-response","242","2338843","0.0-13.0-2.47","l","35","Images/car_1.png","65","1","1583088275526","non-match","car","dog","sound","test","true"
"null","","audio-keyboard-response","243","2340851","0.0-13.0-3.47","l","35","Sounds/correct.wav","null","1","","","","","","",""
"null","","audio-keyboard-response","244","2341934","0.0-13.0-0.48","l","35","Sounds/car_label.wav","null","1","","","","","","",""
"null","","html-keyboard-response","245","2342931","0.0-13.0-1.48","l","35","<p style=""font-size: 48px;"">+</p>","null","1","","","","","","",""
"630.5849999189377","","image-keyboard-response","246","2343563","0.0-13.0-2.48","l","35","Images/frog_cartoon.png","65","1","1583088280309","non-match","frog","car","label","test","true"
"null","","audio-keyboard-response","247","2345569","0.0-13.0-3.48","l","35","Sounds/correct.wav","null","1","","","","","","",""
"null","","audio-keyboard-response","248","2346414","0.0-13.0-0.49","l","35","Sounds/cat_sound.wav","null","1","","","","","","",""
"null","","html-keyboard-response","249","2347431","0.0-13.0-1.49","l","35","<p style=""font-size: 48px;"">+</p>","null","1","","","","","","",""
"610.6449998915195","","image-keyboard-response","250","2348043","0.0-13.0-2.49","l","35","Images/dog_orig.png","65","1","1583088284809","non-match","dog","cat","sound","test","true"
"null","","audio-keyboard-response","251","2350051","0.0-13.0-3.49","l","35","Sounds/correct.wav","null","1","","","","","","",""
"null","","audio-keyboard-response","252","2351173","0.0-13.0-0.50","l","35","Sounds/motorcycle_sound.wav","null","1","","","","","","",""
"null","","html-keyboard-response","253","2352164","0.0-13.0-1.50","l","35","<p style=""font-size: 48px;"">+</p>","null","1","","","","","","",""
"581.1650000978261","","image-keyboard-response","254","2352747","0.0-13.0-2.50","l","35","Images/whistle_1.png","65","1","1583088289543","non-match","whistle","motorcycle","sound","test","true"
"null","","audio-keyboard-response","255","2354755","0.0-13.0-3.50","l","35","Sounds/correct.wav","null","1","","","","","","",""
"null","","audio-keyboard-response","256","2356054","0.0-13.0-0.51","l","35","Sounds/train_sound.wav","null","1","","","","","","",""
"null","","html-keyboard-response","257","2357048","0.0-13.0-1.51","l","35","<p style=""font-size: 48px;"">+</p>","null","1","","","","","","",""
"689.7549999412149","","image-keyboard-response","258","2357739","0.0-13.0-2.51","l","35","Images/cow_2.png","65","1","1583088294426","non-match","cow","train","sound","test","true"
"null","","audio-keyboard-response","259","2359752","0.0-13.0-3.51","l","35","Sounds/correct.wav","null","1","","","","","","",""
"null","","audio-keyboard-response","260","2360474","0.0-13.0-0.52","l","35","Sounds/dog_sound.wav","null","1","","","","","","",""
"null","","html-keyboard-response","261","2361464","0.0-13.0-1.52","l","35","<p style=""font-size: 48px;"">+</p>","null","1","","","","","","",""
"609.154999954626","","image-keyboard-response","262","2362075","0.0-13.0-2.52","l","35","Images/gun_cartoon.png","65","1","1583088298843","non-match","gun","dog","sound","test","true"
"null","","audio-keyboard-response","263","2364087","0.0-13.0-3.52","l","35","Sounds/correct.wav","null","1","","","","","","",""
"null","","audio-keyboard-response","264","2364674","0.0-13.0-0.53","l","35","Sounds/gun_label.wav","null","1","","","","","","",""
"null","","html-keyboard-response","265","2365664","0.0-13.0-1.53","l","35","<p style=""font-size: 48px;"">+</p>","null","1","","","","","","",""
"600.8400002028793","","image-keyboard-response","266","2366266","0.0-13.0-2.53","l","35","Images/cat_orig.png","65","1","1583088303043","non-match","cat","gun","label","test","true"
"null","","audio-keyboard-response","267","2368270","0.0-13.0-3.53","l","35","Sounds/correct.wav","null","1","","","","","","",""
"null","","audio-keyboard-response","268","2369113","0.0-13.0-0.54","l","35","Sounds/cat_sound.wav","null","1","","","","","","",""
"null","","html-keyboard-response","269","2370148","0.0-13.0-1.54","l","35","<p style=""font-size: 48px;"">+</p>","null","1","","","","","","",""
"709.4200002029538","","image-keyboard-response","270","2370858","0.0-13.0-2.54","l","35","Images/car_cartoon.png","65","1","1583088307526","non-match","car","cat","sound","test","true"
"null","","audio-keyboard-response","271","2372867","0.0-13.0-3.54","l","35","Sounds/correct.wav","null","1","","","","","","",""
"null","","audio-keyboard-response","272","2373953","0.0-13.0-0.55","l","35","Sounds/car_sound.wav","null","1","","","","","","",""
"null","","html-keyboard-response","273","2374948","0.0-13.0-1.55","l","35","<p style=""font-size: 48px;"">+</p>","null","1","","","","","","",""
"1125.4249999765307","","image-keyboard-response","274","2376074","0.0-13.0-2.55","l","35","Images/car_cartoon.png","76","1","1583088312326","match","car","car","sound","test","true"
"null","","audio-keyboard-response","275","2378084","0.0-13.0-3.55","l","35","Sounds/correct.wav","null","1","","","","","","",""
"null","","audio-keyboard-response","276","2378793","0.0-13.0-0.56","l","35","Sounds/dog_sound.wav","null","1","","","","","","",""
"null","","html-keyboard-response","277","2379798","0.0-13.0-1.56","l","35","<p style=""font-size: 48px;"">+</p>","null","1","","","","","","",""
"787.3299999628216","","image-keyboard-response","278","2380586","0.0-13.0-2.56","l","35","Images/dog_3.png","76","1","1583088317176","match","dog","dog","sound","test","true"
"null","","audio-keyboard-response","279","2382602","0.0-13.0-3.56","l","35","Sounds/correct.wav","null","1","","","","","","",""
"null","","audio-keyboard-response","280","2383893","0.0-13.0-0.57","l","35","Sounds/train_sound.wav","null","1","","","","","","",""
"null","","html-keyboard-response","281","2384898","0.0-13.0-1.57","l","35","<p style=""font-size: 48px;"">+</p>","null","1","","","","","","",""
"471.40999999828637","","image-keyboard-response","282","2385370","0.0-13.0-2.57","l","35","Images/train_cartoon.png","76","1","1583088322276","match","train","train","sound","test","true"
"null","","audio-keyboard-response","283","2387387","0.0-13.0-3.57","l","35","Sounds/correct.wav","null","1","","","","","","",""
"null","","audio-keyboard-response","284","2388233","0.0-13.0-0.58","l","35","Sounds/cat_label.wav","null","1","","","","","","",""
"null","","html-keyboard-response","285","2389231","0.0-13.0-1.58","l","35","<p style=""font-size: 48px;"">+</p>","null","1","","","","","","",""
"746.1800000164658","","image-keyboard-response","286","2389979","0.0-13.0-2.58","l","35","Images/rooster_3.png","65","1","1583088326610","non-match","rooster","cat","label","test","true"
"null","","audio-keyboard-response","287","2391987","0.0-13.0-3.58","l","35","Sounds/correct.wav","null","1","","","","","","",""
"null","","audio-keyboard-response","288","2393013","0.0-13.0-0.59","l","35","Sounds/cow_sound.wav","null","1","","","","","","",""
"null","","html-keyboard-response","289","2394031","0.0-13.0-1.59","l","35","<p style=""font-size: 48px;"">+</p>","null","1","","","","","","",""
"521.9650000799447","","image-keyboard-response","290","2394554","0.0-13.0-2.59","l","35","Images/motorcycle_3.png","65","1","1583088331410","non-match","motorcycle","cow","sound","test","true"
"null","","audio-keyboard-response","291","2396569","0.0-13.0-3.59","l","35","Sounds/correct.wav","null","1","","","","","","",""
"null","","audio-keyboard-response","292","2397553","0.0-13.0-0.60","l","35","Sounds/cow_sound.wav","null","1","","","","","","",""
"null","","html-keyboard-response","293","2398548","0.0-13.0-1.60","l","35","<p style=""font-size: 48px;"">+</p>","null","1","","","","","","",""
"533.1999999471009","","image-keyboard-response","294","2399082","0.0-13.0-2.60","l","35","Images/frog_orig.png","65","1","1583088335926","non-match","frog","cow","sound","test","true"
"null","","audio-keyboard-response","295","2401087","0.0-13.0-3.60","l","35","Sounds/correct.wav","null","1","","","","","","",""
"null","","audio-keyboard-response","296","2401993","0.0-13.0-0.61","l","35","Sounds/frog_sound.wav","null","1","","","","","","",""
"null","","html-keyboard-response","297","2402998","0.0-13.0-1.61","l","35","<p style=""font-size: 48px;"">+</p>","null","1","","","","","","",""
"675.0099998898804","","image-keyboard-response","298","2403675","0.0-13.0-2.61","l","35","Images/gun_orig.png","65","1","1583088340376","non-match","gun","frog","sound","test","true"
"null","","audio-keyboard-response","299","2405686","0.0-13.0-3.61","l","35","Sounds/correct.wav","null","1","","","","","","",""
"null","","audio-keyboard-response","300","2406273","0.0-13.0-0.62","l","35","Sounds/gun_sound.wav","null","1","","","","","","",""
"null","","html-keyboard-response","301","2407265","0.0-13.0-1.62","l","35","<p style=""font-size: 48px;"">+</p>","null","1","","","","","","",""
"872.6999999489635","","image-keyboard-response","302","2408139","0.0-13.0-2.62","l","35","Images/gun_orig.png","76","1","1583088344643","match","gun","gun","sound","test","true"
"null","","audio-keyboard-response","303","2410153","0.0-13.0-3.62","l","35","Sounds/correct.wav","null","1","","","","","","",""
"null","","audio-keyboard-response","304","2411273","0.0-13.0-0.63","l","35","Sounds/motorcycle_sound.wav","null","1","","","","","","",""
"null","","html-keyboard-response","305","2412265","0.0-13.0-1.63","l","35","<p style=""font-size: 48px;"">+</p>","null","1","","","","","","",""
"624.525000108406","","image-keyboard-response","306","2412890","0.0-13.0-2.63","l","35","Images/motorcycle_orig.png","76","1","1583088349643","match","motorcycle","motorcycle","sound","test","true"
"null","","audio-keyboard-response","307","2414901","0.0-13.0-3.63","l","35","Sounds/correct.wav","null","1","","","","","","",""
"null","","audio-keyboard-response","308","2416053","0.0-13.0-0.64","l","35","Sounds/motorcycle_label.wav","null","1","","","","","","",""
"null","","html-keyboard-response","309","2417048","0.0-13.0-1.64","l","35","<p style=""font-size: 48px;"">+</p>","null","1","","","","","","",""
"577.2949999663979","","image-keyboard-response","310","2417627","0.0-13.0-2.64","l","35","Images/cow_3.png","65","1","1583088354426","non-match","cow","motorcycle","label","test","true"
"null","","audio-keyboard-response","311","2419635","0.0-13.0-3.64","l","35","Sounds/correct.wav","null","1","","","","","","",""
"null","","audio-keyboard-response","312","2420733","0.0-13.0-0.65","l","35","Sounds/motorcycle_sound.wav","null","1","","","","","","",""
"null","","html-keyboard-response","313","2421732","0.0-13.0-1.65","l","35","<p style=""font-size: 48px;"">+</p>","null","1","","","","","","",""
"853.6650000605732","","image-keyboard-response","314","2422586","0.0-13.0-2.65","l","35","Images/train_3.png","65","1","1583088359110","non-match","train","motorcycle","sound","test","true"
"null","","audio-keyboard-response","315","2424603","0.0-13.0-3.65","l","35","Sounds/correct.wav","null","1","","","","","","",""
"null","","audio-keyboard-response","316","2425614","0.0-13.0-0.66","l","35","Sounds/cow_sound.wav","null","1","","","","","","",""
"null","","html-keyboard-response","317","2426631","0.0-13.0-1.66","l","35","<p style=""font-size: 48px;"">+</p>","null","1","","","","","","",""
"1089.5400000736117","","image-keyboard-response","318","2427722","0.0-13.0-2.66","l","35","Images/rooster_2.png","65","1","1583088364010","non-match","rooster","cow","sound","test","true"
"null","","audio-keyboard-response","319","2429734","0.0-13.0-3.66","l","35","Sounds/correct.wav","null","1","","","","","","",""
"null","","audio-keyboard-response","320","2430733","0.0-13.0-0.67","l","35","Sounds/cow_sound.wav","null","1","","","","","","",""
"null","","html-keyboard-response","321","2431732","0.0-13.0-1.67","l","35","<p style=""font-size: 48px;"">+</p>","null","1","","","","","","",""
"597.5099999923259","","image-keyboard-response","322","2432330","0.0-13.0-2.67","l","35","Images/cow_cartoon.png","76","1","1583088369110","match","cow","cow","sound","test","true"
"null","","audio-keyboard-response","323","2434337","0.0-13.0-3.67","l","35","Sounds/correct.wav","null","1","","","","","","",""
"null","","audio-keyboard-response","324","2435413","0.0-13.0-0.68","l","35","Sounds/car_sound.wav","null","1","","","","","","",""
"null","","html-keyboard-response","325","2436415","0.0-13.0-1.68","l","35","<p style=""font-size: 48px;"">+</p>","null","1","","","","","","",""
"714.1899999696761","","image-keyboard-response","326","2437130","0.0-13.0-2.68","l","35","Images/car_2.png","76","1","1583088373793","match","car","car","sound","test","true"
"null","","audio-keyboard-response","327","2439138","0.0-13.0-3.68","l","35","Sounds/correct.wav","null","1","","","","","","",""
"null","","audio-keyboard-response","328","2440053","0.0-13.0-0.69","l","35","Sounds/frog_sound.wav","null","1","","","","","","",""
"null","","html-keyboard-response","329","2441048","0.0-13.0-1.69","l","35","<p style=""font-size: 48px;"">+</p>","null","1","","","","","","",""
"737.1149999089539","","image-keyboard-response","330","2441786","0.0-13.0-2.69","l","35","Images/frog_cartoon.png","76","1","1583088378426","match","frog","frog","sound","test","true"
"null","","audio-keyboard-response","331","2443803","0.0-13.0-3.69","l","35","Sounds/correct.wav","null","1","","","","","","",""
"null","","audio-keyboard-response","332","2444373","0.0-13.0-0.70","l","35","Sounds/gun_sound.wav","null","1","","","","","","",""
"null","","html-keyboard-response","333","2445365","0.0-13.0-1.70","l","35","<p style=""font-size: 48px;"">+</p>","null","1","","","","","","",""
"643.9050000626594","","image-keyboard-response","334","2446010","0.0-13.0-2.70","l","35","Images/gun_1.png","76","1","1583088382743","match","gun","gun","sound","test","true"
"null","","audio-keyboard-response","335","2448018","0.0-13.0-3.70","l","35","Sounds/correct.wav","null","1","","","","","","",""
"null","","audio-keyboard-response","336","2448713","0.0-13.0-0.71","l","35","Sounds/rooster_label.wav","null","1","","","","","","",""
"null","","html-keyboard-response","337","2449715","0.0-13.0-1.71","l","35","<p style=""font-size: 48px;"">+</p>","null","1","","","","","","",""
"789.9849999230355","","image-keyboard-response","338","2450506","0.0-13.0-2.71","l","35","Images/rooster_cartoon.png","76","1","1583088387093","match","rooster","rooster","label","test","true"
"null","","audio-keyboard-response","339","2452519","0.0-13.0-3.71","l","35","Sounds/correct.wav","null","1","","","","","","",""
"null","","audio-keyboard-response","340","2453534","0.0-13.0-0.72","l","35","Sounds/cow_sound.wav","null","1","","","","","","",""
"null","","html-keyboard-response","341","2454532","0.0-13.0-1.72","l","35","<p style=""font-size: 48px;"">+</p>","null","1","","","","","","",""
"469.7050000540912","","image-keyboard-response","342","2455002","0.0-13.0-2.72","l","35","Images/cow_3.png","76","1","1583088391910","match","cow","cow","sound","test","true"
"null","","audio-keyboard-response","343","2457019","0.0-13.0-3.72","l","35","Sounds/correct.wav","null","1","","","","","","",""
"null","","audio-keyboard-response","344","2458093","0.0-13.0-0.73","l","35","Sounds/car_label.wav","null","1","","","","","","",""
"null","","html-keyboard-response","345","2459098","0.0-13.0-1.73","l","35","<p style=""font-size: 48px;"">+</p>","null","1","","","","","","",""
"574.544999981299","","image-keyboard-response","346","2459674","0.0-13.0-2.73","l","35","Images/car_orig.png","76","1","1583088396477","match","car","car","label","test","true"
"null","","audio-keyboard-response","347","2461685","0.0-13.0-3.73","l","35","Sounds/correct.wav","null","1","","","","","","",""
"null","","audio-keyboard-response","348","2462593","0.0-13.0-0.74","l","35","Sounds/frog_label.wav","null","1","","","","","","",""
"null","","html-keyboard-response","349","2463582","0.0-13.0-1.74","l","35","<p style=""font-size: 48px;"">+</p>","null","1","","","","","","",""
"667.284999974072","","image-keyboard-response","350","2464250","0.0-13.0-2.74","l","35","Images/rooster_1.png","65","1","1583088400960","non-match","rooster","frog","label","test","true"
"null","","audio-keyboard-response","351","2466254","0.0-13.0-3.74","l","35","Sounds/correct.wav","null","1","","","","","","",""
"null","","audio-keyboard-response","352","2467554","0.0-13.0-0.75","l","35","Sounds/train_sound.wav","null","1","","","","","","",""
"null","","html-keyboard-response","353","2468549","0.0-13.0-1.75","l","35","<p style=""font-size: 48px;"">+</p>","null","1","","","","","","",""
"1348.8549999892712","","image-keyboard-response","354","2469898","0.0-13.0-2.75","l","35","Images/rooster_cartoon.png","65","1","1583088405927","non-match","rooster","train","sound","test","true"
"null","","audio-keyboard-response","355","2471915","0.0-13.0-3.75","l","35","Sounds/correct.wav","null","1","","","","","","",""
"null","","audio-keyboard-response","356","2473033","0.0-13.0-0.76","l","35","Sounds/motorcycle_label.wav","null","1","","","","","","",""
"null","","html-keyboard-response","357","2474032","0.0-13.0-1.76","l","35","<p style=""font-size: 48px;"">+</p>","null","1","","","","","","",""
"921.1349999532104","","image-keyboard-response","358","2474954","0.0-13.0-2.76","l","35","Images/frog_1.png","65","1","1583088411410","non-match","frog","motorcycle","label","test","true"
"null","","audio-keyboard-response","359","2476970","0.0-13.0-3.76","l","35","Sounds/correct.wav","null","1","","","","","","",""
"null","","audio-keyboard-response","360","2477553","0.0-13.0-0.77","l","35","Sounds/gun_label.wav","null","1","","","","","","",""
"null","","html-keyboard-response","361","2478549","0.0-13.0-1.77","l","35","<p style=""font-size: 48px;"">+</p>","null","1","","","","","","",""
"964.2300000414252","","image-keyboard-response","362","2479514","0.0-13.0-2.77","l","35","Images/frog_3.png","65","1","1583088415927","non-match","frog","gun","label","test","true"
"null","","audio-keyboard-response","363","2481523","0.0-13.0-3.77","l","35","Sounds/correct.wav","null","1","","","","","","",""
"null","","audio-keyboard-response","364","2482233","0.0-13.0-0.78","l","35","Sounds/dog_sound.wav","null","1","","","","","","",""
"null","","html-keyboard-response","365","2483232","0.0-13.0-1.78","l","35","<p style=""font-size: 48px;"">+</p>","null","1","","","","","","",""
"649.3249998893589","","image-keyboard-response","366","2483882","0.0-13.0-2.78","l","35","Images/frog_2.png","65","1","1583088420610","non-match","frog","dog","sound","test","true"
"null","","audio-keyboard-response","367","2485887","0.0-13.0-3.78","l","35","Sounds/correct.wav","null","1","","","","","","",""
"null","","audio-keyboard-response","368","2486993","0.0-13.0-0.79","l","35","Sounds/motorcycle_label.wav","null","1","","","","","","",""
"null","","html-keyboard-response","369","2487999","0.0-13.0-1.79","l","35","<p style=""font-size: 48px;"">+</p>","null","1","","","","","","",""
"682.0149999111891","","image-keyboard-response","370","2488682","0.0-13.0-2.79","l","35","Images/car_orig.png","65","1","1583088425377","non-match","car","motorcycle","label","test","true"
"null","","audio-keyboard-response","371","2490687","0.0-13.0-3.79","l","35","Sounds/correct.wav","null","1","","","","","","",""
"null","","audio-keyboard-response","372","2491533","0.0-13.0-0.80","l","35","Sounds/cat_label.wav","null","1","","","","","","",""
"null","","html-keyboard-response","373","2492532","0.0-13.0-1.80","l","35","<p style=""font-size: 48px;"">+</p>","null","1","","","","","","",""
"516.8649998959154","","image-keyboard-response","374","2493050","0.0-13.0-2.80","l","35","Images/cat_orig.png","76","1","1583088429911","match","cat","cat","label","test","true"
"null","","audio-keyboard-response","375","2495056","0.0-13.0-3.80","l","35","Sounds/correct.wav","null","1","","","","","","",""
"null","","audio-keyboard-response","376","2496073","0.0-13.0-0.81","l","35","Sounds/cow_sound.wav","null","1","","","","","","",""
"null","","html-keyboard-response","377","2497066","0.0-13.0-1.81","l","35","<p style=""font-size: 48px;"">+</p>","null","1","","","","","","",""
"911.9499998632818","","image-keyboard-response","378","2497979","0.0-13.0-2.81","l","35","Images/car_2.png","65","1","1583088434444","non-match","car","cow","sound","test","true"
"null","","audio-keyboard-response","379","2499988","0.0-13.0-3.81","l","35","Sounds/correct.wav","null","1","","","","","","",""
"null","","audio-keyboard-response","380","2500693","0.0-13.0-0.82","l","35","Sounds/whistle_sound.wav","null","1","","","","","","",""
"null","","html-keyboard-response","381","2501682","0.0-13.0-1.82","l","35","<p style=""font-size: 48px;"">+</p>","null","1","","","","","","",""
"902.8450001496822","","image-keyboard-response","382","2502586","0.0-13.0-2.82","l","35","Images/gun_3.png","65","1","1583088439061","non-match","gun","whistle","sound","test","true"
"null","","audio-keyboard-response","383","2504604","0.0-13.0-3.82","l","35","Sounds/correct.wav","null","1","","","","","","",""
"null","","audio-keyboard-response","384","2505514","0.0-13.0-0.83","l","35","Sounds/frog_label.wav","null","1","","","","","","",""
"null","","html-keyboard-response","385","2506516","0.0-13.0-1.83","l","35","<p style=""font-size: 48px;"">+</p>","null","1","","","","","","",""
"533.3950000349432","","image-keyboard-response","386","2507050","0.0-13.0-2.83","l","35","Images/cow_1.png","65","1","1583088443894","non-match","cow","frog","label","test","true"
"null","","audio-keyboard-response","387","2509056","0.0-13.0-3.83","l","35","Sounds/correct.wav","null","1","","","","","","",""
"null","","audio-keyboard-response","388","2509893","0.0-13.0-0.84","l","35","Sounds/cat_label.wav","null","1","","","","","","",""
"null","","html-keyboard-response","389","2510883","0.0-13.0-1.84","l","35","<p style=""font-size: 48px;"">+</p>","null","1","","","","","","",""
"519.035000121221","","image-keyboard-response","390","2511403","0.0-13.0-2.84","l","35","Images/cat_cartoon.png","76","1","1583088448261","match","cat","cat","label","test","true"
"null","","audio-keyboard-response","391","2513406","0.0-13.0-3.84","l","35","Sounds/correct.wav","null","1","","","","","","",""
"null","","audio-keyboard-response","392","2514713","0.0-13.0-0.85","l","35","Sounds/train_sound.wav","null","1","","","","","","",""
"null","","html-keyboard-response","393","2515716","0.0-13.0-1.85","l","35","<p style=""font-size: 48px;"">+</p>","null","1","","","","","","",""
"595.4700000584126","","image-keyboard-response","394","2516314","0.0-13.0-2.85","l","35","Images/train_3.png","76","1","1583088453095","match","train","train","sound","test","true"
"null","","audio-keyboard-response","395","2518322","0.0-13.0-3.85","l","35","Sounds/correct.wav","null","1","","","","","","",""
"null","","audio-keyboard-response","396","2518973","0.0-13.0-0.86","l","35","Sounds/dog_label.wav","null","1","","","","","","",""
"null","","html-keyboard-response","397","2519966","0.0-13.0-1.86","l","35","<p style=""font-size: 48px;"">+</p>","null","1","","","","","","",""
"747.3200000822544","","image-keyboard-response","398","2520714","0.0-13.0-2.86","l","35","Images/dog_orig.png","76","1","1583088457344","match","dog","dog","label","test","true"
"null","","audio-keyboard-response","399","2522721","0.0-13.0-3.86","l","35","Sounds/correct.wav","null","1","","","","","","",""
"null","","audio-keyboard-response","400","2523433","0.0-13.0-0.87","l","35","Sounds/rooster_sound.wav","null","1","","","","","","",""
"null","","html-keyboard-response","401","2524433","0.0-13.0-1.87","l","35","<p style=""font-size: 48px;"">+</p>","null","1","","","","","","",""
"504.79499995708466","","image-keyboard-response","402","2524939","0.0-13.0-2.87","l","35","Images/rooster_orig.png","76","1","1583088461811","match","rooster","rooster","sound","test","true"
"null","","audio-keyboard-response","403","2526955","0.0-13.0-3.87","l","35","Sounds/correct.wav","null","1","","","","","","",""
"null","","audio-keyboard-response","404","2528073","0.0-13.0-0.88","l","35","Sounds/motorcycle_label.wav","null","1","","","","","","",""
"null","","html-keyboard-response","405","2529066","0.0-13.0-1.88","l","35","<p style=""font-size: 48px;"">+</p>","null","1","","","","","","",""
"479.20499998144805","","image-keyboard-response","406","2529546","0.0-13.0-2.88","l","35","Images/motorcycle_2.png","76","1","1583088466444","match","motorcycle","motorcycle","label","test","true"
"null","","audio-keyboard-response","407","2531554","0.0-13.0-3.88","l","35","Sounds/correct.wav","null","1","","","","","","",""
"null","","audio-keyboard-response","408","2532253","0.0-13.0-0.89","l","35","Sounds/rooster_label.wav","null","1","","","","","","",""
"null","","html-keyboard-response","409","2533249","0.0-13.0-1.89","l","35","<p style=""font-size: 48px;"">+</p>","null","1","","","","","","",""
"1431.8349999375641","","image-keyboard-response","410","2534683","0.0-13.0-2.89","l","35","Images/cow_orig.png","65","1","1583088470628","non-match","cow","rooster","label","test","true"
"null","","audio-keyboard-response","411","2536692","0.0-13.0-3.89","l","35","Sounds/correct.wav","null","1","","","","","","",""
"null","","audio-keyboard-response","412","2537413","0.0-13.0-0.90","l","35","Sounds/dog_sound.wav","null","1","","","","","","",""
"null","","html-keyboard-response","413","2538416","0.0-13.0-1.90","l","35","<p style=""font-size: 48px;"">+</p>","null","1","","","","","","",""
"809.2600000090897","","image-keyboard-response","414","2539227","0.0-13.0-2.90","l","35","Images/dog_2.png","76","1","1583088475794","match","dog","dog","sound","test","true"
"null","","audio-keyboard-response","415","2541236","0.0-13.0-3.90","l","35","Sounds/correct.wav","null","1","","","","","","",""
"null","","audio-keyboard-response","416","2541813","0.0-13.0-0.91","l","35","Sounds/gun_sound.wav","null","1","","","","","","",""
"null","","html-keyboard-response","417","2542816","0.0-13.0-1.91","l","35","<p style=""font-size: 48px;"">+</p>","null","1","","","","","","",""
"793.0250000208616","","image-keyboard-response","418","2543611","0.0-13.0-2.91","l","35","Images/dog_3.png","65","1","1583088480195","non-match","dog","gun","sound","test","true"
"null","","audio-keyboard-response","419","2545619","0.0-13.0-3.91","l","35","Sounds/correct.wav","null","1","","","","","","",""
"null","","audio-keyboard-response","420","2546893","0.0-13.0-0.92","l","35","Sounds/train_label.wav","null","1","","","","","","",""
"null","","html-keyboard-response","421","2547883","0.0-13.0-1.92","l","35","<p style=""font-size: 48px;"">+</p>","null","1","","","","","","",""
"670.4400000162423","","image-keyboard-response","422","2548555","0.0-13.0-2.92","l","35","Images/train_2.png","76","1","1583088485261","match","train","train","label","test","true"
"null","","audio-keyboard-response","423","2550571","0.0-13.0-3.92","l","35","Sounds/correct.wav","null","1","","","","","","",""
"null","","audio-keyboard-response","424","2551874","0.0-13.0-0.93","l","35","Sounds/train_sound.wav","null","1","","","","","","",""
"null","","html-keyboard-response","425","2552867","0.0-13.0-1.93","l","35","<p style=""font-size: 48px;"">+</p>","null","1","","","","","","",""
"711.2050000578165","","image-keyboard-response","426","2553579","0.0-13.0-2.93","l","35","Images/whistle_orig.png","65","1","1583088490245","non-match","whistle","train","sound","test","true"
"null","","audio-keyboard-response","427","2555586","0.0-13.0-3.93","l","35","Sounds/correct.wav","null","1","","","","","","",""
"null","","audio-keyboard-response","428","2556134","0.0-13.0-0.94","l","35","Sounds/gun_sound.wav","null","1","","","","","","",""
"null","","html-keyboard-response","429","2557133","0.0-13.0-1.94","l","35","<p style=""font-size: 48px;"">+</p>","null","1","","","","","","",""
"908.4550000261515","","image-keyboard-response","430","2558043","0.0-13.0-2.94","l","35","Images/gun_3.png","76","1","1583088494512","match","gun","gun","sound","test","true"
"null","","audio-keyboard-response","431","2560053","0.0-13.0-3.94","l","35","Sounds/correct.wav","null","1","","","","","","",""
"null","","audio-keyboard-response","432","2561314","0.0-13.0-0.95","l","35","Sounds/train_label.wav","null","1","","","","","","",""
"null","","html-keyboard-response","433","2562317","0.0-13.0-1.95","l","35","<p style=""font-size: 48px;"">+</p>","null","1","","","","","","",""
"619.7949999477714","","image-keyboard-response","434","2562939","0.0-13.0-2.95","l","35","Images/cat_1.png","65","1","1583088499695","non-match","cat","train","label","test","true"
"null","","audio-keyboard-response","435","2564954","0.0-13.0-3.95","l","35","Sounds/correct.wav","null","1","","","","","","",""
"null","","audio-keyboard-response","436","2566034","0.0-13.0-0.96","l","35","Sounds/car_sound.wav","null","1","","","","","","",""
"null","","html-keyboard-response","437","2567033","0.0-13.0-1.96","l","35","<p style=""font-size: 48px;"">+</p>","null","1","","","","","","",""
"831.7849999293685","","image-keyboard-response","438","2567867","0.0-13.0-2.96","l","35","Images/car_3.png","76","1","1583088504412","match","car","car","sound","test","true"
"null","","audio-keyboard-response","439","2569872","0.0-13.0-3.96","l","35","Sounds/correct.wav","null","1","","","","","","",""
"null","","audio-keyboard-response","440","2570574","0.0-13.0-0.97","l","35","Sounds/rooster_label.wav","null","1","","","","","","",""
"null","","html-keyboard-response","441","2571567","0.0-13.0-1.97","l","35","<p style=""font-size: 48px;"">+</p>","null","1","","","","","","",""
"570.6350000109524","","image-keyboard-response","442","2572139","0.0-13.0-2.97","l","35","Images/motorcycle_2.png","65","1","1583088508945","non-match","motorcycle","rooster","label","test","true"
"null","","audio-keyboard-response","443","2574141","0.0-13.0-3.97","l","35","Sounds/correct.wav","null","1","","","","","","",""
"null","","audio-keyboard-response","444","2575274","0.0-13.0-0.98","l","35","Sounds/motorcycle_label.wav","null","1","","","","","","",""
"null","","html-keyboard-response","445","2576267","0.0-13.0-1.98","l","35","<p style=""font-size: 48px;"">+</p>","null","1","","","","","","",""
"478.00500015728176","","image-keyboard-response","446","2576747","0.0-13.0-2.98","l","35","Images/motorcycle_1.png","76","1","1583088513645","match","motorcycle","motorcycle","label","test","true"
"null","","audio-keyboard-response","447","2578764","0.0-13.0-3.98","l","35","Sounds/correct.wav","null","1","","","","","","",""
"null","","audio-keyboard-response","448","2579834","0.0-13.0-0.99","l","35","Sounds/car_label.wav","null","1","","","","","","",""
"null","","html-keyboard-response","449","2580833","0.0-13.0-1.99","l","35","<p style=""font-size: 48px;"">+</p>","null","1","","","","","","",""
"791.7299999389797","","image-keyboard-response","450","2581627","0.0-13.0-2.99","l","35","Images/cat_3.png","65","1","1583088518212","non-match","cat","car","label","test","true"
"null","","audio-keyboard-response","451","2583640","0.0-13.0-3.99","l","35","Sounds/correct.wav","null","1","","","","","","",""
"4305.705000180751","","html-keyboard-response","452","2587946","0.0-14.0","l","35","<p>Please take this opportunity to rest your eyes before proceeding.</p><p>When ready, press the enter key to continue to the next set of trials.</p>","13","","","","","","","",""
"null","","audio-keyboard-response","453","2590534","0.0-15.0-0.0","l","35","Sounds/gun_label.wav","null","2","","","","","","",""
"null","","html-keyboard-response","454","2591534","0.0-15.0-1.0","l","35","<p style=""font-size: 48px;"">+</p>","null","2","","","","","","",""
"556.0950001236051","","image-keyboard-response","455","2592091","0.0-15.0-2.0","l","35","Images/car_1.png","65","2","1583088528912","non-match","car","gun","label","test","true"
"null","","audio-keyboard-response","456","2594104","0.0-15.0-3.0","l","35","Sounds/correct.wav","null","2","","","","","","",""
"null","","audio-keyboard-response","457","2595014","0.0-15.0-0.1","l","35","Sounds/frog_label.wav","null","2","","","","","","",""
"null","","html-keyboard-response","458","2596017","0.0-15.0-1.1","l","35","<p style=""font-size: 48px;"">+</p>","null","2","","","","","","",""
"616.524999961257","","image-keyboard-response","459","2596635","0.0-15.0-2.1","l","35","Images/car_cartoon.png","65","2","1583088533395","non-match","car","frog","label","test","true"
"null","","audio-keyboard-response","460","2598638","0.0-15.0-3.1","l","35","Sounds/correct.wav","null","2","","","","","","",""
"null","","audio-keyboard-response","461","2599293","0.0-15.0-0.2","l","35","Sounds/dog_label.wav","null","2","","","","","","",""
"null","","html-keyboard-response","462","2600284","0.0-15.0-1.2","l","35","<p style=""font-size: 48px;"">+</p>","null","2","","","","","","",""
"636.7450000252575","","image-keyboard-response","463","2600923","0.0-15.0-2.2","l","35","Images/dog_2.png","76","2","1583088537662","match","dog","dog","label","test","true"
"null","","audio-keyboard-response","464","2602939","0.0-15.0-3.2","l","35","Sounds/correct.wav","null","2","","","","","","",""
"null","","audio-keyboard-response","465","2603514","0.0-15.0-0.3","l","35","Sounds/gun_sound.wav","null","2","","","","","","",""
"null","","html-keyboard-response","466","2604517","0.0-15.0-1.3","l","35","<p style=""font-size: 48px;"">+</p>","null","2","","","","","","",""
"612.5199999660254","","image-keyboard-response","467","2605131","0.0-15.0-2.3","l","35","Images/gun_orig.png","76","2","1583088541895","match","gun","gun","sound","test","true"
"null","","audio-keyboard-response","468","2607141","0.0-15.0-3.3","l","35","Sounds/correct.wav","null","2","","","","","","",""
"null","","audio-keyboard-response","469","2608413","0.0-15.0-0.4","l","35","Sounds/train_label.wav","null","2","","","","","","",""
"null","","html-keyboard-response","470","2609417","0.0-15.0-1.4","l","35","<p style=""font-size: 48px;"">+</p>","null","2","","","","","","",""
"496.3749998714775","","image-keyboard-response","471","2609914","0.0-15.0-2.4","l","35","Images/train_2.png","76","2","1583088546795","match","train","train","label","test","true"
"null","","audio-keyboard-response","472","2611924","0.0-15.0-3.4","l","35","Sounds/correct.wav","null","2","","","","","","",""
"null","","audio-keyboard-response","473","2612633","0.0-15.0-0.5","l","35","Sounds/rooster_sound.wav","null","2","","","","","","",""
"null","","html-keyboard-response","474","2613634","0.0-15.0-1.5","l","35","<p style=""font-size: 48px;"">+</p>","null","2","","","","","","",""
"679.5749999582767","","image-keyboard-response","475","2614314","0.0-15.0-2.5","l","35","Images/dog_3.png","65","2","1583088551012","non-match","dog","rooster","sound","test","true"
"null","","audio-keyboard-response","476","2616322","0.0-15.0-3.5","l","35","Sounds/correct.wav","null","2","","","","","","",""
"null","","audio-keyboard-response","477","2617033","0.0-15.0-0.6","l","35","Sounds/whistle_label.wav","null","2","","","","","","",""
"null","","html-keyboard-response","478","2618034","0.0-15.0-1.6","l","35","<p style=""font-size: 48px;"">+</p>","null","2","","","","","","",""
"551.7549999058247","","image-keyboard-response","479","2618587","0.0-15.0-2.6","l","35","Images/whistle_cartoon.png","76","2","1583088555412","match","whistle","whistle","label","test","true"
"null","","audio-keyboard-response","480","2620591","0.0-15.0-3.6","l","35","Sounds/correct.wav","null","2","","","","","","",""
"null","","audio-keyboard-response","481","2621434","0.0-15.0-0.7","l","35","Sounds/cat_sound.wav","null","2","","","","","","",""
"null","","html-keyboard-response","482","2622434","0.0-15.0-1.7","l","35","<p style=""font-size: 48px;"">+</p>","null","2","","","","","","",""
"743.4249999932945","","image-keyboard-response","483","2623178","0.0-15.0-2.7","l","35","Images/cat_cartoon.png","76","2","1583088559812","match","cat","cat","sound","test","true"
"null","","audio-keyboard-response","484","2625187","0.0-15.0-3.7","l","35","Sounds/correct.wav","null","2","","","","","","",""
"null","","audio-keyboard-response","485","2625894","0.0-15.0-0.8","l","35","Sounds/dog_sound.wav","null","2","","","","","","",""
"null","","html-keyboard-response","486","2626884","0.0-15.0-1.8","l","35","<p style=""font-size: 48px;"">+</p>","null","2","","","","","","",""
"773.5099999699742","","image-keyboard-response","487","2627658","0.0-15.0-2.8","l","35","Images/cat_3.png","65","2","1583088564262","non-match","cat","dog","sound","test","true"
"null","","audio-keyboard-response","488","2629671","0.0-15.0-3.8","l","35","Sounds/correct.wav","null","2","","","","","","",""
"null","","audio-keyboard-response","489","2630373","0.0-15.0-0.9","l","35","Sounds/whistle_sound.wav","null","2","","","","","","",""
"null","","html-keyboard-response","490","2631367","0.0-15.0-1.9","l","35","<p style=""font-size: 48px;"">+</p>","null","2","","","","","","",""
"722.1200000494719","","image-keyboard-response","491","2632091","0.0-15.0-2.9","l","35","Images/whistle_2.png","76","2","1583088568745","match","whistle","whistle","sound","test","true"
"null","","audio-keyboard-response","492","2634105","0.0-15.0-3.9","l","35","Sounds/correct.wav","null","2","","","","","","",""
"null","","audio-keyboard-response","493","2634774","0.0-15.0-0.10","l","35","Sounds/dog_label.wav","null","2","","","","","","",""
"null","","html-keyboard-response","494","2635767","0.0-15.0-1.10","l","35","<p style=""font-size: 48px;"">+</p>","null","2","","","","","","",""
"513.8749999459833","","image-keyboard-response","495","2636282","0.0-15.0-2.10","l","35","Images/dog_3.png","76","2","1583088573146","match","dog","dog","label","test","true"
"null","","audio-keyboard-response","496","2638293","0.0-15.0-3.10","l","35","Sounds/correct.wav","null","2","","","","","","",""
"null","","audio-keyboard-response","497","2638993","0.0-15.0-0.11","l","35","Sounds/dog_sound.wav","null","2","","","","","","",""
"null","","html-keyboard-response","498","2639984","0.0-15.0-1.11","l","35","<p style=""font-size: 48px;"">+</p>","null","2","","","","","","",""
"473.35999994538724","","image-keyboard-response","499","2640458","0.0-15.0-2.11","l","35","Images/dog_1.png","76","2","1583088577362","match","dog","dog","sound","test","true"
"null","","audio-keyboard-response","500","2642471","0.0-15.0-3.11","l","35","Sounds/correct.wav","null","2","","","","","","",""
"null","","audio-keyboard-response","501","2643494","0.0-15.0-0.12","l","35","Sounds/cow_sound.wav","null","2","","","","","","",""
"null","","html-keyboard-response","502","2644484","0.0-15.0-1.12","l","35","<p style=""font-size: 48px;"">+</p>","null","2","","","","","","",""
"421.5649999678135","","image-keyboard-response","503","2644907","0.0-15.0-2.12","l","35","Images/rooster_cartoon.png","65","2","1583088581863","non-match","rooster","cow","sound","test","true"
"null","","audio-keyboard-response","504","2646923","0.0-15.0-3.12","l","35","Sounds/correct.wav","null","2","","","","","","",""
"null","","audio-keyboard-response","505","2648213","0.0-15.0-0.13","l","35","Sounds/train_label.wav","null","2","","","","","","",""
"null","","html-keyboard-response","506","2649217","0.0-15.0-1.13","l","35","<p style=""font-size: 48px;"">+</p>","null","2","","","","","","",""
"455.8550000656396","","image-keyboard-response","507","2649674","0.0-15.0-2.13","l","35","Images/train_cartoon.png","76","2","1583088586596","match","train","train","label","test","true"
"null","","audio-keyboard-response","508","2651688","0.0-15.0-3.13","l","35","Sounds/correct.wav","null","2","","","","","","",""
"null","","audio-keyboard-response","509","2652533","0.0-15.0-0.14","l","35","Sounds/cat_sound.wav","null","2","","","","","","",""
"null","","html-keyboard-response","510","2653551","0.0-15.0-1.14","l","35","<p style=""font-size: 48px;"">+</p>","null","2","","","","","","",""
"522.6000000257045","","image-keyboard-response","511","2654075","0.0-15.0-2.14","l","35","Images/gun_2.png","65","2","1583088590929","non-match","gun","cat","sound","test","true"
"null","","audio-keyboard-response","512","2656088","0.0-15.0-3.14","l","35","Sounds/correct.wav","null","2","","","","","","",""
"null","","audio-keyboard-response","513","2657213","0.0-15.0-0.15","l","35","Sounds/motorcycle_sound.wav","null","2","","","","","","",""
"null","","html-keyboard-response","514","2658218","0.0-15.0-1.15","l","35","<p style=""font-size: 48px;"">+</p>","null","2","","","","","","",""
"639.7649999707937","","image-keyboard-response","515","2658859","0.0-15.0-2.15","l","35","Images/motorcycle_orig.png","76","2","1583088595596","match","motorcycle","motorcycle","sound","test","true"
"null","","audio-keyboard-response","516","2660872","0.0-15.0-3.15","l","35","Sounds/correct.wav","null","2","","","","","","",""
"null","","audio-keyboard-response","517","2661533","0.0-15.0-0.16","l","35","Sounds/dog_label.wav","null","2","","","","","","",""
"null","","html-keyboard-response","518","2662551","0.0-15.0-1.16","l","35","<p style=""font-size: 48px;"">+</p>","null","2","","","","","","",""
"466.5149999782443","","image-keyboard-response","519","2663018","0.0-15.0-2.16","l","35","Images/dog_orig.png","76","2","1583088599929","match","dog","dog","label","test","true"
"null","","audio-keyboard-response","520","2665023","0.0-15.0-3.16","l","35","Sounds/correct.wav","null","2","","","","","","",""
"null","","audio-keyboard-response","521","2666313","0.0-15.0-0.17","l","35","Sounds/train_sound.wav","null","2","","","","","","",""
"null","","html-keyboard-response","522","2667318","0.0-15.0-1.17","l","35","<p style=""font-size: 48px;"">+</p>","null","2","","","","","","",""
"419.9149999767542","","image-keyboard-response","523","2667739","0.0-15.0-2.17","l","35","Images/train_orig.png","76","2","1583088604696","match","train","train","sound","test","true"
"null","","audio-keyboard-response","524","2669755","0.0-15.0-3.17","l","35","Sounds/correct.wav","null","2","","","","","","",""
"null","","audio-keyboard-response","525","2670453","0.0-15.0-0.18","l","35","Sounds/whistle_label.wav","null","2","","","","","","",""
"null","","html-keyboard-response","526","2671451","0.0-15.0-1.18","l","35","<p style=""font-size: 48px;"">+</p>","null","2","","","","","","",""
"478.6499999463558","","image-keyboard-response","527","2671930","0.0-15.0-2.18","l","35","Images/dog_orig.png","65","2","1583088608829","non-match","dog","whistle","label","test","true"
"null","","audio-keyboard-response","528","2673939","0.0-15.0-3.18","l","35","Sounds/correct.wav","null","2","","","","","","",""
"null","","audio-keyboard-response","529","2675073","0.0-15.0-0.19","l","35","Sounds/motorcycle_label.wav","null","2","","","","","","",""
"null","","html-keyboard-response","530","2676067","0.0-15.0-1.19","l","35","<p style=""font-size: 48px;"">+</p>","null","2","","","","","","",""
"565.7250001095235","","image-keyboard-response","531","2676634","0.0-15.0-2.19","l","35","Images/motorcycle_2.png","76","2","1583088613446","match","motorcycle","motorcycle","label","test","true"
"null","","audio-keyboard-response","532","2678640","0.0-15.0-3.19","l","35","Sounds/correct.wav","null","2","","","","","","",""
"null","","audio-keyboard-response","533","2679753","0.0-15.0-0.20","l","35","Sounds/motorcycle_label.wav","null","2","","","","","","",""
"null","","html-keyboard-response","534","2680751","0.0-15.0-1.20","l","35","<p style=""font-size: 48px;"">+</p>","null","2","","","","","","",""
"474.35500007122755","","image-keyboard-response","535","2681226","0.0-15.0-2.20","l","35","Images/motorcycle_1.png","76","2","1583088618129","match","motorcycle","motorcycle","label","test","true"
"null","","audio-keyboard-response","536","2683238","0.0-15.0-3.20","l","35","Sounds/correct.wav","null","2","","","","","","",""
"null","","audio-keyboard-response","537","2683953","0.0-15.0-0.21","l","35","Sounds/dog_sound.wav","null","2","","","","","","",""
"null","","html-keyboard-response","538","2684951","0.0-15.0-1.21","l","35","<p style=""font-size: 48px;"">+</p>","null","2","","","","","","",""
"578.4049998037517","","image-keyboard-response","539","2685530","0.0-15.0-2.21","l","35","Images/frog_orig.png","65","2","1583088622329","non-match","frog","dog","sound","test","true"
"null","","audio-keyboard-response","540","2687543","0.0-15.0-3.21","l","35","Sounds/correct.wav","null","2","","","","","","",""
"null","","audio-keyboard-response","541","2688633","0.0-15.0-0.22","l","35","Sounds/car_label.wav","null","2","","","","","","",""
"null","","html-keyboard-response","542","2689651","0.0-15.0-1.22","l","35","<p style=""font-size: 48px;"">+</p>","null","2","","","","","","",""
"758.2499999552965","","image-keyboard-response","543","2690410","0.0-15.0-2.22","l","35","Images/car_cartoon.png","76","2","1583088627029","match","car","car","label","test","true"
"null","","audio-keyboard-response","544","2692420","0.0-15.0-3.22","l","35","Sounds/correct.wav","null","2","","","","","","",""
"null","","audio-keyboard-response","545","2693433","0.0-15.0-0.23","l","35","Sounds/cow_sound.wav","null","2","","","","","","",""
"null","","html-keyboard-response","546","2694451","0.0-15.0-1.23","l","35","<p style=""font-size: 48px;"">+</p>","null","2","","","","","","",""
"950.2550000324845","","image-keyboard-response","547","2695402","0.0-15.0-2.23","l","35","Images/car_orig.png","65","2","1583088631829","non-match","car","cow","sound","test","true"
"null","","audio-keyboard-response","548","2697406","0.0-15.0-3.23","l","35","Sounds/correct.wav","null","2","","","","","","",""
"null","","audio-keyboard-response","549","2698493","0.0-15.0-0.24","l","35","Sounds/car_sound.wav","null","2","","","","","","",""
"null","","html-keyboard-response","550","2699484","0.0-15.0-1.24","l","35","<p style=""font-size: 48px;"">+</p>","null","2","","","","","","",""
"685.0899998098612","","image-keyboard-response","551","2700170","0.0-15.0-2.24","l","35","Images/car_2.png","76","2","1583088636862","match","car","car","sound","test","true"
"null","","audio-keyboard-response","552","2702188","0.0-15.0-3.24","l","35","Sounds/correct.wav","null","2","","","","","","",""
"null","","audio-keyboard-response","553","2703333","0.0-15.0-0.25","l","35","Sounds/motorcycle_label.wav","null","2","","","","","","",""
"null","","html-keyboard-response","554","2704351","0.0-15.0-1.25","l","35","<p style=""font-size: 48px;"">+</p>","null","2","","","","","","",""
"617.4749999772757","","image-keyboard-response","555","2704970","0.0-15.0-2.25","l","35","Images/whistle_1.png","65","2","1583088641729","non-match","whistle","motorcycle","label","test","true"
"null","","audio-keyboard-response","556","2706973","0.0-15.0-3.25","l","35","Sounds/correct.wav","null","2","","","","","","",""
"null","","audio-keyboard-response","557","2707893","0.0-15.0-0.26","l","35","Sounds/frog_sound.wav","null","2","","","","","","",""
"null","","html-keyboard-response","558","2708884","0.0-15.0-1.26","l","35","<p style=""font-size: 48px;"">+</p>","null","2","","","","","","",""
"740.7899999525398","","image-keyboard-response","559","2709626","0.0-15.0-2.26","l","35","Images/frog_2.png","76","2","1583088646263","match","frog","frog","sound","test","true"
"null","","audio-keyboard-response","560","2711637","0.0-15.0-3.26","l","35","Sounds/correct.wav","null","2","","","","","","",""
"null","","audio-keyboard-response","561","2712653","0.0-15.0-0.27","l","35","Sounds/cow_sound.wav","null","2","","","","","","",""
"null","","html-keyboard-response","562","2713651","0.0-15.0-1.27","l","35","<p style=""font-size: 48px;"">+</p>","null","2","","","","","","",""
"438.2450000848621","","image-keyboard-response","563","2714091","0.0-15.0-2.27","l","35","Images/cat_orig.png","65","2","1583088651029","non-match","cat","cow","sound","test","true"
"null","","audio-keyboard-response","564","2716105","0.0-15.0-3.27","l","35","Sounds/correct.wav","null","2","","","","","","",""
"null","","audio-keyboard-response","565","2717233","0.0-15.0-0.28","l","35","Sounds/motorcycle_sound.wav","null","2","","","","","","",""
"null","","html-keyboard-response","566","2718251","0.0-15.0-1.28","l","35","<p style=""font-size: 48px;"">+</p>","null","2","","","","","","",""
"654.0300000924617","","image-keyboard-response","567","2718906","0.0-15.0-2.28","l","35","Images/train_2.png","65","2","1583088655629","non-match","train","motorcycle","sound","test","true"
"null","","audio-keyboard-response","568","2720924","0.0-15.0-3.28","l","35","Sounds/correct.wav","null","2","","","","","","",""
"null","","audio-keyboard-response","569","2721913","0.0-15.0-0.29","l","35","Sounds/cow_sound.wav","null","2","","","","","","",""
"null","","html-keyboard-response","570","2722918","0.0-15.0-1.29","l","35","<p style=""font-size: 48px;"">+</p>","null","2","","","","","","",""
"706.9749999791384","","image-keyboard-response","571","2723626","0.0-15.0-2.29","l","35","Images/cow_2.png","76","2","1583088660296","match","cow","cow","sound","test","true"
"null","","audio-keyboard-response","572","2725639","0.0-15.0-3.29","l","35","Sounds/correct.wav","null","2","","","","","","",""
"null","","audio-keyboard-response","573","2726333","0.0-15.0-0.30","l","35","Sounds/rooster_sound.wav","null","2","","","","","","",""
"null","","html-keyboard-response","574","2727351","0.0-15.0-1.30","l","35","<p style=""font-size: 48px;"">+</p>","null","2","","","","","","",""
"498.0750000104308","","image-keyboard-response","575","2727850","0.0-15.0-2.30","l","35","Images/rooster_2.png","76","2","1583088664730","match","rooster","rooster","sound","test","true"
"null","","audio-keyboard-response","576","2729858","0.0-15.0-3.30","l","35","Sounds/correct.wav","null","2","","","","","","",""
"null","","audio-keyboard-response","577","2730853","0.0-15.0-0.31","l","35","Sounds/cow_sound.wav","null","2","","","","","","",""
"null","","html-keyboard-response","578","2731851","0.0-15.0-1.31","l","35","<p style=""font-size: 48px;"">+</p>","null","2","","","","","","",""
"621.7199999373406","","image-keyboard-response","579","2732474","0.0-15.0-2.31","l","35","Images/cow_orig.png","76","2","1583088669230","match","cow","cow","sound","test","true"
"null","","audio-keyboard-response","580","2734489","0.0-15.0-3.31","l","35","Sounds/correct.wav","null","2","","","","","","",""
"null","","audio-keyboard-response","581","2735393","0.0-15.0-0.32","l","35","Sounds/frog_label.wav","null","2","","","","","","",""
"null","","html-keyboard-response","582","2736385","0.0-15.0-1.32","l","35","<p style=""font-size: 48px;"">+</p>","null","2","","","","","","",""
"808.3049999549985","","image-keyboard-response","583","2737194","0.0-15.0-2.32","l","35","Images/motorcycle_cartoon.png","65","2","1583088673763","non-match","motorcycle","frog","label","test","true"
"null","","audio-keyboard-response","584","2739207","0.0-15.0-3.32","l","35","Sounds/correct.wav","null","2","","","","","","",""
"null","","audio-keyboard-response","585","2739793","0.0-15.0-0.33","l","35","Sounds/gun_sound.wav","null","2","","","","","","",""
"null","","html-keyboard-response","586","2740785","0.0-15.0-1.33","l","35","<p style=""font-size: 48px;"">+</p>","null","2","","","","","","",""
"824.5699999388307","","image-keyboard-response","587","2741610","0.0-15.0-2.33","l","35","Images/train_1.png","65","2","1583088678163","non-match","train","gun","sound","test","true"
"null","","audio-keyboard-response","588","2743623","0.0-15.0-3.33","l","35","Sounds/correct.wav","null","2","","","","","","",""
"null","","audio-keyboard-response","589","2744913","0.0-15.0-0.34","l","35","Sounds/train_sound.wav","null","2","","","","","","",""
"null","","html-keyboard-response","590","2745918","0.0-15.0-1.34","l","35","<p style=""font-size: 48px;"">+</p>","null","2","","","","","","",""
"778.6550000309944","","image-keyboard-response","591","2746698","0.0-15.0-2.34","l","35","Images/rooster_1.png","65","2","1583088683296","non-match","rooster","train","sound","test","true"
"null","","audio-keyboard-response","592","2748707","0.0-15.0-3.34","l","35","Sounds/correct.wav","null","2","","","","","","",""
"null","","audio-keyboard-response","593","2749413","0.0-15.0-0.35","l","35","Sounds/rooster_label.wav","null","2","","","","","","",""
"null","","html-keyboard-response","594","2750402","0.0-15.0-1.35","l","35","<p style=""font-size: 48px;"">+</p>","null","2","","","","","","",""
"599.5849999599159","","image-keyboard-response","595","2751002","0.0-15.0-2.35","l","35","Images/whistle_cartoon.png","65","2","1583088687780","non-match","whistle","rooster","label","test","true"
"null","","audio-keyboard-response","596","2753007","0.0-15.0-3.35","l","35","Sounds/correct.wav","null","2","","","","","","",""
"null","","audio-keyboard-response","597","2753713","0.0-15.0-0.36","l","35","Sounds/whistle_label.wav","null","2","","","","","","",""
"null","","html-keyboard-response","598","2754718","0.0-15.0-1.36","l","35","<p style=""font-size: 48px;"">+</p>","null","2","","","","","","",""
"586.8349999655038","","image-keyboard-response","599","2755306","0.0-15.0-2.36","l","35","Images/train_3.png","65","2","1583088692096","non-match","train","whistle","label","test","true"
"null","","audio-keyboard-response","600","2757323","0.0-15.0-3.36","l","35","Sounds/correct.wav","null","2","","","","","","",""
"null","","audio-keyboard-response","601","2758173","0.0-15.0-0.37","l","35","Sounds/cat_label.wav","null","2","","","","","","",""
"null","","html-keyboard-response","602","2759168","0.0-15.0-1.37","l","35","<p style=""font-size: 48px;"">+</p>","null","2","","","","","","",""
"456.7599999718368","","image-keyboard-response","603","2759626","0.0-15.0-2.37","l","35","Images/cat_1.png","76","2","1583088696546","match","cat","cat","label","test","true"
"null","","audio-keyboard-response","604","2761639","0.0-15.0-3.37","l","35","Sounds/correct.wav","null","2","","","","","","",""
"null","","audio-keyboard-response","605","2762313","0.0-15.0-0.38","l","35","Sounds/rooster_label.wav","null","2","","","","","","",""
"null","","html-keyboard-response","606","2763319","0.0-15.0-1.38","l","35","<p style=""font-size: 48px;"">+</p>","null","2","","","","","","",""
"482.48000000603497","","image-keyboard-response","607","2763802","0.0-15.0-2.38","l","35","Images/rooster_cartoon.png","76","2","1583088700697","match","rooster","rooster","label","test","true"
"null","","audio-keyboard-response","608","2765807","0.0-15.0-3.38","l","35","Sounds/correct.wav","null","2","","","","","","",""
"null","","audio-keyboard-response","609","2766513","0.0-15.0-0.39","l","35","Sounds/whistle_sound.wav","null","2","","","","","","",""
"null","","html-keyboard-response","610","2767519","0.0-15.0-1.39","l","35","<p style=""font-size: 48px;"">+</p>","null","2","","","","","","",""
"650.7349999155849","","image-keyboard-response","611","2768170","0.0-15.0-2.39","l","35","Images/car_3.png","65","2","1583088704897","non-match","car","whistle","sound","test","true"
"null","","audio-keyboard-response","612","2770174","0.0-15.0-3.39","l","35","Sounds/correct.wav","null","2","","","","","","",""
"null","","audio-keyboard-response","613","2771193","0.0-15.0-0.40","l","35","Sounds/cow_label.wav","null","2","","","","","","",""
"null","","html-keyboard-response","614","2772185","0.0-15.0-1.40","l","35","<p style=""font-size: 48px;"">+</p>","null","2","","","","","","",""
"431.93500000052154","","image-keyboard-response","615","2772618","0.0-15.0-2.40","l","35","Images/cow_3.png","76","2","1583088709564","match","cow","cow","label","test","true"
"null","","audio-keyboard-response","616","2774624","0.0-15.0-3.40","l","35","Sounds/correct.wav","null","2","","","","","","",""
"null","","audio-keyboard-response","617","2775333","0.0-15.0-0.41","l","35","Sounds/whistle_label.wav","null","2","","","","","","",""
"null","","html-keyboard-response","618","2776336","0.0-15.0-1.41","l","35","<p style=""font-size: 48px;"">+</p>","null","2","","","","","","",""
"633.3200000226498","","image-keyboard-response","619","2776970","0.0-15.0-2.41","l","35","Images/gun_1.png","65","2","1583088713713","non-match","gun","whistle","label","test","true"
"null","","audio-keyboard-response","620","2778974","0.0-15.0-3.41","l","35","Sounds/correct.wav","null","2","","","","","","",""
"null","","audio-keyboard-response","621","2779673","0.0-15.0-0.42","l","35","Sounds/rooster_sound.wav","null","2","","","","","","",""
"null","","html-keyboard-response","622","2780668","0.0-15.0-1.42","l","35","<p style=""font-size: 48px;"">+</p>","null","2","","","","","","",""
"684.8250001203269","","image-keyboard-response","623","2781354","0.0-15.0-2.42","l","35","Images/rooster_3.png","76","2","1583088718047","match","rooster","rooster","sound","test","true"
"null","","audio-keyboard-response","624","2783357","0.0-15.0-3.42","l","35","Sounds/correct.wav","null","2","","","","","","",""
"null","","audio-keyboard-response","625","2784273","0.0-15.0-0.43","l","35","Sounds/frog_sound.wav","null","2","","","","","","",""
"null","","html-keyboard-response","626","2785269","0.0-15.0-1.43","l","35","<p style=""font-size: 48px;"">+</p>","null","2","","","","","","",""
"516.5450000204146","","image-keyboard-response","627","2785786","0.0-15.0-2.43","l","35","Images/frog_3.png","76","2","1583088722647","match","frog","frog","sound","test","true"
"null","","audio-keyboard-response","628","2787794","0.0-15.0-3.43","l","35","Sounds/correct.wav","null","2","","","","","","",""
"null","","audio-keyboard-response","629","2788473","0.0-15.0-0.44","l","35","Sounds/whistle_label.wav","null","2","","","","","","",""
"null","","html-keyboard-response","630","2789469","0.0-15.0-1.44","l","35","<p style=""font-size: 48px;"">+</p>","null","2","","","","","","",""
"572.4849998950958","","image-keyboard-response","631","2790043","0.0-15.0-2.44","l","35","Images/whistle_3.png","76","2","1583088726847","match","whistle","whistle","label","test","true"
"null","","audio-keyboard-response","632","2792058","0.0-15.0-3.44","l","35","Sounds/correct.wav","null","2","","","","","","",""
"null","","audio-keyboard-response","633","2792954","0.0-15.0-0.45","l","35","Sounds/frog_label.wav","null","2","","","","","","",""
"null","","html-keyboard-response","634","2793952","0.0-15.0-1.45","l","35","<p style=""font-size: 48px;"">+</p>","null","2","","","","","","",""
"521.3899998925626","","image-keyboard-response","635","2794475","0.0-15.0-2.45","l","35","Images/gun_orig.png","65","2","1583088731331","non-match","gun","frog","label","test","true"
"null","","audio-keyboard-response","636","2796490","0.0-15.0-3.45","l","35","Sounds/correct.wav","null","2","","","","","","",""
"null","","audio-keyboard-response","637","2797194","0.0-15.0-0.46","l","35","Sounds/rooster_label.wav","null","2","","","","","","",""
"null","","html-keyboard-response","638","2798186","0.0-15.0-1.46","l","35","<p style=""font-size: 48px;"">+</p>","null","2","","","","","","",""
"703.8699998520315","","image-keyboard-response","639","2798891","0.0-15.0-2.46","l","35","Images/rooster_1.png","76","2","1583088735564","match","rooster","rooster","label","test","true"
"null","","audio-keyboard-response","640","2800907","0.0-15.0-3.46","l","35","Sounds/correct.wav","null","2","","","","","","",""
"null","","audio-keyboard-response","641","2801994","0.0-15.0-0.47","l","35","Sounds/car_label.wav","null","2","","","","","","",""
"null","","html-keyboard-response","642","2802986","0.0-15.0-1.47","l","35","<p style=""font-size: 48px;"">+</p>","null","2","","","","","","",""
"687.6499999780208","","image-keyboard-response","643","2803675","0.0-15.0-2.47","l","35","Images/frog_2.png","65","2","1583088740364","non-match","frog","car","label","test","true"
"null","","audio-keyboard-response","644","2805689","0.0-15.0-3.47","l","35","Sounds/correct.wav","null","2","","","","","","",""
"null","","audio-keyboard-response","645","2806974","0.0-15.0-0.48","l","35","Sounds/train_label.wav","null","2","","","","","","",""
"null","","html-keyboard-response","646","2807969","0.0-15.0-1.48","l","35","<p style=""font-size: 48px;"">+</p>","null","2","","","","","","",""
"536.4950001239777","","image-keyboard-response","647","2808507","0.0-15.0-2.48","l","35","Images/whistle_orig.png","65","2","1583088745347","non-match","whistle","train","label","test","true"
"null","","audio-keyboard-response","648","2810521","0.0-15.0-3.48","l","35","Sounds/correct.wav","null","2","","","","","","",""
"null","","audio-keyboard-response","649","2811574","0.0-15.0-0.49","l","35","Sounds/car_label.wav","null","2","","","","","","",""
"null","","html-keyboard-response","650","2812569","0.0-15.0-1.49","l","35","<p style=""font-size: 48px;"">+</p>","null","2","","","","","","",""
"558.7300001643598","","image-keyboard-response","651","2813131","0.0-15.0-2.49","l","35","Images/cat_1.png","65","2","1583088749948","non-match","cat","car","label","test","true"
"null","","audio-keyboard-response","652","2815141","0.0-15.0-3.49","l","35","Sounds/correct.wav","null","2","","","","","","",""
"null","","audio-keyboard-response","653","2816154","0.0-15.0-0.50","l","35","Sounds/cow_label.wav","null","2","","","","","","",""
"null","","html-keyboard-response","654","2817153","0.0-15.0-1.50","l","35","<p style=""font-size: 48px;"">+</p>","null","2","","","","","","",""
"584.9399999715388","","image-keyboard-response","655","2817739","0.0-15.0-2.50","l","35","Images/motorcycle_2.png","65","2","1583088754531","non-match","motorcycle","cow","label","test","true"
"null","","audio-keyboard-response","656","2819742","0.0-15.0-3.50","l","35","Sounds/correct.wav","null","2","","","","","","",""
"null","","audio-keyboard-response","657","2820994","0.0-15.0-0.51","l","35","Sounds/train_label.wav","null","2","","","","","","",""
