[{"rt":11932.62999993749,"responses":"{\"Q0\":\"35\"}","trial_type":"survey-text","trial_index":0,"time_elapsed":11970,"internal_node_id":"0.0-0.0","match_key":"l","participant_id":"35"},{"rt":70767.55500002764,"stimulus":"<p>Use KEYBOARD 1 (match RIGHT)</p><p>Press MATCH to continue.</p>","key_press":76,"trial_type":"html-keyboard-response","trial_index":1,"time_elapsed":82750,"internal_node_id":"0.0-1.0","match_key":"l","participant_id":"35"},{"rt":1829933.2749999594,"stimulus":"<p>Welcome to the experiment.</p>","key_press":39,"trial_type":"html-keyboard-response","trial_index":2,"time_elapsed":1912208,"internal_node_id":"0.0-2.0","match_key":"l","participant_id":"35"},{"rt":9577.019999967888,"stimulus":"<p>Thank you for agreeing to participate in this study.</p><p>If during any part of the procedure you must stop for any reason, please inform the researcher that you do not wish to continue.</p>","key_press":39,"trial_type":"html-keyboard-response","trial_index":3,"time_elapsed":1921790,"internal_node_id":"0.0-3.0","match_key":"l","participant_id":"35"},{"rt":18814.755000174046,"stimulus":"<p>In this experiment, you will hear various words or sounds and see pictures of various animals and objects.</p><p>Most of the images will be of common everyday objects, such as cars, cats, cows, firearms, frogs, chickens, whistles, trains, motorcycles, and dogs.</p><p>Some of the images will be real-life stills, while others will be cartoons.</p>","key_press":39,"trial_type":"html-keyboard-response","trial_index":4,"time_elapsed":1940609,"internal_node_id":"0.0-4.0","match_key":"l","participant_id":"35"},{"rt":15503.144999966025,"stimulus":"<p>Sometimes, the word/sound will match the picture, for example you'll hear a meowing sound and see a cat.</p><p>Other times, the picture will not match the sound or word.</p><p>Your task is to decide as quickly as possible if the word/sound matches the picture or not. </p>","key_press":39,"trial_type":"html-keyboard-response","trial_index":5,"time_elapsed":1956113,"internal_node_id":"0.0-5.0","match_key":"l","participant_id":"35"},{"rt":12830.524999881163,"stimulus":"<p>For example, if you hear the word \"cat\" or hear a meowing sound, and then see a picture of a cat, you should press the MATCH key.</p><p> If the sound and image do not match, press the NOT-MATCH key to indicate that there is not a match.</p>","key_press":39,"trial_type":"html-keyboard-response","trial_index":6,"time_elapsed":1968945,"internal_node_id":"0.0-6.0","match_key":"l","participant_id":"35"},{"rt":20606.49500018917,"stimulus":"<p>If you make a mistake, you will hear a buzzing sound instead of a more pleasant sound.</p><p> Try to respond as quickly as possible, while making as few errors as possible. If you are making mistakes, you are probably rushing.</p>","key_press":39,"trial_type":"html-keyboard-response","trial_index":7,"time_elapsed":1989553,"internal_node_id":"0.0-7.0","match_key":"l","participant_id":"35"},{"rt":12111.049999948591,"stimulus":"<p>Please try to not move or blink your eyes during the presentation of the images. You can move and blink between images.</p><p>During the experiment there will be some breaks during which you can rest your eyes.</p>","key_press":39,"trial_type":"html-keyboard-response","trial_index":8,"time_elapsed":2001654,"internal_node_id":"0.0-8.0","match_key":"l","participant_id":"35"},{"rt":20446.805000072345,"stimulus":"<p>We will begin with 10 practice trials. Please let the experimenter know if you have any questions.</p>","key_press":39,"trial_type":"html-keyboard-response","trial_index":9,"time_elapsed":2022102,"internal_node_id":"0.0-9.0","match_key":"l","participant_id":"35"},{"rt":null,"stimulus":"Sounds/rooster_label.wav","key_press":null,"block":0,"trial_type":"audio-keyboard-response","trial_index":10,"time_elapsed":2022880,"internal_node_id":"0.0-10.0-0.0","match_key":"l","participant_id":"35"},{"rt":null,"stimulus":"<p style=\"font-size: 48px;\">+</p>","key_press":null,"block":0,"trial_type":"html-keyboard-response","trial_index":11,"time_elapsed":2023873,"internal_node_id":"0.0-10.0-1.0","match_key":"l","participant_id":"35"},{"rt":4450.4249999299645,"stimulus":"Images/train_3.png","key_press":65,"stim_onset":1583087961251,"block":0,"match_type":"non-match","image_category":"train","sound_category":"rooster","audio_type":"label","phase":"practice","trial_type":"image-keyboard-response","trial_index":12,"time_elapsed":2028326,"internal_node_id":"0.0-10.0-2.0","match_key":"l","participant_id":"35","correct":true},{"rt":null,"stimulus":"Sounds/correct.wav","key_press":null,"block":0,"trial_type":"audio-keyboard-response","trial_index":13,"time_elapsed":2030332,"internal_node_id":"0.0-10.0-3.0","match_key":"l","participant_id":"35"},{"rt":null,"stimulus":"Sounds/car_sound.wav","key_press":null,"block":0,"trial_type":"audio-keyboard-response","trial_index":14,"time_elapsed":2031419,"internal_node_id":"0.0-10.0-0.1","match_key":"l","participant_id":"35"},{"rt":null,"stimulus":"<p style=\"font-size: 48px;\">+</p>","key_press":null,"block":0,"trial_type":"html-keyboard-response","trial_index":15,"time_elapsed":2032423,"internal_node_id":"0.0-10.0-1.1","match_key":"l","participant_id":"35"},{"rt":1293.0900000501424,"stimulus":"Images/car_1.png","key_press":76,"stim_onset":1583087969801,"block":0,"match_type":"match","image_category":"car","sound_category":"car","audio_type":"sound","phase":"practice","trial_type":"image-keyboard-response","trial_index":16,"time_elapsed":2033718,"internal_node_id":"0.0-10.0-2.1","match_key":"l","participant_id":"35","correct":true},{"rt":null,"stimulus":"Sounds/correct.wav","key_press":null,"block":0,"trial_type":"audio-keyboard-response","trial_index":17,"time_elapsed":2035734,"internal_node_id":"0.0-10.0-3.1","match_key":"l","participant_id":"35"},{"rt":null,"stimulus":"Sounds/train_label.wav","key_press":null,"block":0,"trial_type":"audio-keyboard-response","trial_index":18,"time_elapsed":2037019,"internal_node_id":"0.0-10.0-0.2","match_key":"l","participant_id":"35"},{"rt":null,"stimulus":"<p style=\"font-size: 48px;\">+</p>","key_press":null,"block":0,"trial_type":"html-keyboard-response","trial_index":19,"time_elapsed":2038023,"internal_node_id":"0.0-10.0-1.2","match_key":"l","participant_id":"35"},{"rt":1068.8400000799447,"stimulus":"Images/train_cartoon.png","key_press":76,"stim_onset":1583087975401,"block":0,"match_type":"match","image_category":"train","sound_category":"train","audio_type":"label","phase":"practice","trial_type":"image-keyboard-response","trial_index":20,"time_elapsed":2039093,"internal_node_id":"0.0-10.0-2.2","match_key":"l","participant_id":"35","correct":true},{"rt":null,"stimulus":"Sounds/correct.wav","key_press":null,"block":0,"trial_type":"audio-keyboard-response","trial_index":21,"time_elapsed":2041097,"internal_node_id":"0.0-10.0-3.2","match_key":"l","participant_id":"35"},{"rt":null,"stimulus":"Sounds/cat_label.wav","key_press":null,"block":0,"trial_type":"audio-keyboard-response","trial_index":22,"time_elapsed":2041939,"internal_node_id":"0.0-10.0-0.3","match_key":"l","participant_id":"35"},{"rt":null,"stimulus":"<p style=\"font-size: 48px;\">+</p>","key_press":null,"block":0,"trial_type":"html-keyboard-response","trial_index":23,"time_elapsed":2042956,"internal_node_id":"0.0-10.0-1.3","match_key":"l","participant_id":"35"},{"rt":968.0500000249594,"stimulus":"Images/cat_2.png","key_press":76,"stim_onset":1583087980335,"block":0,"match_type":"match","image_category":"cat","sound_category":"cat","audio_type":"label","phase":"practice","trial_type":"image-keyboard-response","trial_index":24,"time_elapsed":2043926,"internal_node_id":"0.0-10.0-2.3","match_key":"l","participant_id":"35","correct":true},{"rt":null,"stimulus":"Sounds/correct.wav","key_press":null,"block":0,"trial_type":"audio-keyboard-response","trial_index":25,"time_elapsed":2045944,"internal_node_id":"0.0-10.0-3.3","match_key":"l","participant_id":"35"},{"rt":null,"stimulus":"Sounds/motorcycle_sound.wav","key_press":null,"block":0,"trial_type":"audio-keyboard-response","trial_index":26,"time_elapsed":2047059,"internal_node_id":"0.0-10.0-0.4","match_key":"l","participant_id":"35"},{"rt":null,"stimulus":"<p style=\"font-size: 48px;\">+</p>","key_press":null,"block":0,"trial_type":"html-keyboard-response","trial_index":27,"time_elapsed":2048057,"internal_node_id":"0.0-10.0-1.4","match_key":"l","participant_id":"35"},{"rt":923.3999999705702,"stimulus":"Images/motorcycle_3.png","key_press":76,"stim_onset":1583087985435,"block":0,"match_type":"match","image_category":"motorcycle","sound_category":"motorcycle","audio_type":"sound","phase":"practice","trial_type":"image-keyboard-response","trial_index":28,"time_elapsed":2048981,"internal_node_id":"0.0-10.0-2.4","match_key":"l","participant_id":"35","correct":true},{"rt":null,"stimulus":"Sounds/correct.wav","key_press":null,"block":0,"trial_type":"audio-keyboard-response","trial_index":29,"time_elapsed":2050995,"internal_node_id":"0.0-10.0-3.4","match_key":"l","participant_id":"35"},{"rt":null,"stimulus":"Sounds/train_sound.wav","key_press":null,"block":0,"trial_type":"audio-keyboard-response","trial_index":30,"time_elapsed":2052299,"internal_node_id":"0.0-10.0-0.5","match_key":"l","participant_id":"35"},{"rt":null,"stimulus":"<p style=\"font-size: 48px;\">+</p>","key_press":null,"block":0,"trial_type":"html-keyboard-response","trial_index":31,"time_elapsed":2053290,"internal_node_id":"0.0-10.0-1.5","match_key":"l","participant_id":"35"},{"rt":762.0650001335889,"stimulus":"Images/frog_2.png","key_press":65,"stim_onset":1583087990668,"block":0,"match_type":"non-match","image_category":"frog","sound_category":"train","audio_type":"sound","phase":"practice","trial_type":"image-keyboard-response","trial_index":32,"time_elapsed":2054053,"internal_node_id":"0.0-10.0-2.5","match_key":"l","participant_id":"35","correct":true},{"rt":null,"stimulus":"Sounds/correct.wav","key_press":null,"block":0,"trial_type":"audio-keyboard-response","trial_index":33,"time_elapsed":2056062,"internal_node_id":"0.0-10.0-3.5","match_key":"l","participant_id":"35"},{"rt":null,"stimulus":"Sounds/gun_sound.wav","key_press":null,"block":0,"trial_type":"audio-keyboard-response","trial_index":34,"time_elapsed":2056639,"internal_node_id":"0.0-10.0-0.6","match_key":"l","participant_id":"35"},{"rt":null,"stimulus":"<p style=\"font-size: 48px;\">+</p>","key_press":null,"block":0,"trial_type":"html-keyboard-response","trial_index":35,"time_elapsed":2057657,"internal_node_id":"0.0-10.0-1.6","match_key":"l","participant_id":"35"},{"rt":891.3700000848621,"stimulus":"Images/gun_3.png","key_press":76,"stim_onset":1583087995035,"block":0,"match_type":"match","image_category":"gun","sound_category":"gun","audio_type":"sound","phase":"practice","trial_type":"image-keyboard-response","trial_index":36,"time_elapsed":2058549,"internal_node_id":"0.0-10.0-2.6","match_key":"l","participant_id":"35","correct":true},{"rt":null,"stimulus":"Sounds/correct.wav","key_press":null,"block":0,"trial_type":"audio-keyboard-response","trial_index":37,"time_elapsed":2060562,"internal_node_id":"0.0-10.0-3.6","match_key":"l","participant_id":"35"},{"rt":null,"stimulus":"Sounds/frog_sound.wav","key_press":null,"block":0,"trial_type":"audio-keyboard-response","trial_index":38,"time_elapsed":2061479,"internal_node_id":"0.0-10.0-0.7","match_key":"l","participant_id":"35"},{"rt":null,"stimulus":"<p style=\"font-size: 48px;\">+</p>","key_press":null,"block":0,"trial_type":"html-keyboard-response","trial_index":39,"time_elapsed":2062490,"internal_node_id":"0.0-10.0-1.7","match_key":"l","participant_id":"35"},{"rt":746.7799999285489,"stimulus":"Images/cat_orig.png","key_press":65,"stim_onset":1583087999868,"block":0,"match_type":"non-match","image_category":"cat","sound_category":"frog","audio_type":"sound","phase":"practice","trial_type":"image-keyboard-response","trial_index":40,"time_elapsed":2063238,"internal_node_id":"0.0-10.0-2.7","match_key":"l","participant_id":"35","correct":true},{"rt":null,"stimulus":"Sounds/correct.wav","key_press":null,"block":0,"trial_type":"audio-keyboard-response","trial_index":41,"time_elapsed":2065245,"internal_node_id":"0.0-10.0-3.7","match_key":"l","participant_id":"35"},{"rt":null,"stimulus":"Sounds/car_sound.wav","key_press":null,"block":0,"trial_type":"audio-keyboard-response","trial_index":42,"time_elapsed":2066336,"internal_node_id":"0.0-10.0-0.8","match_key":"l","participant_id":"35"},{"rt":null,"stimulus":"<p style=\"font-size: 48px;\">+</p>","key_press":null,"block":0,"trial_type":"html-keyboard-response","trial_index":43,"time_elapsed":2067340,"internal_node_id":"0.0-10.0-1.8","match_key":"l","participant_id":"35"},{"rt":888.9649999327958,"stimulus":"Images/cat_2.png","key_press":65,"stim_onset":1583088004718,"block":0,"match_type":"non-match","image_category":"cat","sound_category":"car","audio_type":"sound","phase":"practice","trial_type":"image-keyboard-response","trial_index":44,"time_elapsed":2068230,"internal_node_id":"0.0-10.0-2.8","match_key":"l","participant_id":"35","correct":true},{"rt":null,"stimulus":"Sounds/correct.wav","key_press":null,"block":0,"trial_type":"audio-keyboard-response","trial_index":45,"time_elapsed":2070244,"internal_node_id":"0.0-10.0-3.8","match_key":"l","participant_id":"35"},{"rt":null,"stimulus":"Sounds/whistle_label.wav","key_press":null,"block":0,"trial_type":"audio-keyboard-response","trial_index":46,"time_elapsed":2070956,"internal_node_id":"0.0-10.0-0.9","match_key":"l","participant_id":"35"},{"rt":null,"stimulus":"<p style=\"font-size: 48px;\">+</p>","key_press":null,"block":0,"trial_type":"html-keyboard-response","trial_index":47,"time_elapsed":2071973,"internal_node_id":"0.0-10.0-1.9","match_key":"l","participant_id":"35"},{"rt":719.2250001244247,"stimulus":"Images/cat_1.png","key_press":65,"stim_onset":1583088009351,"block":0,"match_type":"non-match","image_category":"cat","sound_category":"whistle","audio_type":"label","phase":"practice","trial_type":"image-keyboard-response","trial_index":48,"time_elapsed":2072694,"internal_node_id":"0.0-10.0-2.9","match_key":"l","participant_id":"35","correct":true},{"rt":null,"stimulus":"Sounds/correct.wav","key_press":null,"block":0,"trial_type":"audio-keyboard-response","trial_index":49,"time_elapsed":2074698,"internal_node_id":"0.0-10.0-3.9","match_key":"l","participant_id":"35"},{"rt":22811.639999970794,"stimulus":"<p>The rest of the experiment is divided into five blocks with 100 trials in each block. It will take about 45 minutes to complete.</p><p>The experimenter will be in the outer room and you can communicate with them through the monitor if you have any questions or wish to stop the experiment.</p>","key_press":39,"trial_type":"html-keyboard-response","trial_index":50,"time_elapsed":2097510,"internal_node_id":"0.0-11.0","match_key":"l","participant_id":"35"},{"rt":18126.604999881238,"stimulus":"<p>Remember, please try not to move or blink your eyes during the presentation of the images. </p><p>At the end of the experiment, we will show you your scores on the task so you can see how you did.</p><p>The experiment will start on the next screen.</p>","key_press":39,"trial_type":"html-keyboard-response","trial_index":51,"time_elapsed":2115638,"internal_node_id":"0.0-12.0","match_key":"l","participant_id":"35"},{"rt":null,"stimulus":"Sounds/motorcycle_sound.wav","key_press":null,"block":1,"trial_type":"audio-keyboard-response","trial_index":52,"time_elapsed":2118789,"internal_node_id":"0.0-13.0-0.0","match_key":"l","participant_id":"35"},{"rt":null,"stimulus":"<p style=\"font-size: 48px;\">+</p>","key_press":null,"block":1,"trial_type":"html-keyboard-response","trial_index":53,"time_elapsed":2119791,"internal_node_id":"0.0-13.0-1.0","match_key":"l","participant_id":"35"},{"rt":581.9200000260025,"stimulus":"Images/motorcycle_3.png","key_press":76,"stim_onset":1583088057169,"block":1,"match_type":"match","image_category":"motorcycle","sound_category":"motorcycle","audio_type":"sound","phase":"test","trial_type":"image-keyboard-response","trial_index":54,"time_elapsed":2120374,"internal_node_id":"0.0-13.0-2.0","match_key":"l","participant_id":"35","correct":true},{"rt":null,"stimulus":"Sounds/correct.wav","key_press":null,"block":1,"trial_type":"audio-keyboard-response","trial_index":55,"time_elapsed":2122383,"internal_node_id":"0.0-13.0-3.0","match_key":"l","participant_id":"35"},{"rt":null,"stimulus":"Sounds/motorcycle_label.wav","key_press":null,"block":1,"trial_type":"audio-keyboard-response","trial_index":56,"time_elapsed":2123532,"internal_node_id":"0.0-13.0-0.1","match_key":"l","participant_id":"35"},{"rt":null,"stimulus":"<p style=\"font-size: 48px;\">+</p>","key_press":null,"block":1,"trial_type":"html-keyboard-response","trial_index":57,"time_elapsed":2124526,"internal_node_id":"0.0-13.0-1.1","match_key":"l","participant_id":"35"},{"rt":648.744999896735,"stimulus":"Images/motorcycle_cartoon.png","key_press":76,"stim_onset":1583088061905,"block":1,"match_type":"match","image_category":"motorcycle","sound_category":"motorcycle","audio_type":"label","phase":"test","trial_type":"image-keyboard-response","trial_index":58,"time_elapsed":2125176,"internal_node_id":"0.0-13.0-2.1","match_key":"l","participant_id":"35","correct":true},{"rt":null,"stimulus":"Sounds/correct.wav","key_press":null,"block":1,"trial_type":"audio-keyboard-response","trial_index":59,"time_elapsed":2127181,"internal_node_id":"0.0-13.0-3.1","match_key":"l","participant_id":"35"},{"rt":null,"stimulus":"Sounds/train_label.wav","key_press":null,"block":1,"trial_type":"audio-keyboard-response","trial_index":60,"time_elapsed":2128471,"internal_node_id":"0.0-13.0-0.2","match_key":"l","participant_id":"35"},{"rt":null,"stimulus":"<p style=\"font-size: 48px;\">+</p>","key_press":null,"block":1,"trial_type":"html-keyboard-response","trial_index":61,"time_elapsed":2129476,"internal_node_id":"0.0-13.0-1.2","match_key":"l","participant_id":"35"},{"rt":946.5949998702854,"stimulus":"Images/gun_2.png","key_press":65,"stim_onset":1583088066854,"block":1,"match_type":"non-match","image_category":"gun","sound_category":"train","audio_type":"label","phase":"test","trial_type":"image-keyboard-response","trial_index":62,"time_elapsed":2130424,"internal_node_id":"0.0-13.0-2.2","match_key":"l","participant_id":"35","correct":true},{"rt":null,"stimulus":"Sounds/correct.wav","key_press":null,"block":1,"trial_type":"audio-keyboard-response","trial_index":63,"time_elapsed":2132429,"internal_node_id":"0.0-13.0-3.2","match_key":"l","participant_id":"35"},{"rt":null,"stimulus":"Sounds/rooster_label.wav","key_press":null,"block":1,"trial_type":"audio-keyboard-response","trial_index":64,"time_elapsed":2133131,"internal_node_id":"0.0-13.0-0.3","match_key":"l","participant_id":"35"},{"rt":null,"stimulus":"<p style=\"font-size: 48px;\">+</p>","key_press":null,"block":1,"trial_type":"html-keyboard-response","trial_index":65,"time_elapsed":2134126,"internal_node_id":"0.0-13.0-1.3","match_key":"l","participant_id":"35"},{"rt":792.6699998788536,"stimulus":"Images/whistle_cartoon.png","key_press":65,"stim_onset":1583088071504,"block":1,"match_type":"non-match","image_category":"whistle","sound_category":"rooster","audio_type":"label","phase":"test","trial_type":"image-keyboard-response","trial_index":66,"time_elapsed":2134920,"internal_node_id":"0.0-13.0-2.3","match_key":"l","participant_id":"35","correct":true},{"rt":null,"stimulus":"Sounds/correct.wav","key_press":null,"block":1,"trial_type":"audio-keyboard-response","trial_index":67,"time_elapsed":2136929,"internal_node_id":"0.0-13.0-3.3","match_key":"l","participant_id":"35"},{"rt":null,"stimulus":"Sounds/whistle_label.wav","key_press":null,"block":1,"trial_type":"audio-keyboard-response","trial_index":68,"time_elapsed":2137631,"internal_node_id":"0.0-13.0-0.4","match_key":"l","participant_id":"35"},{"rt":null,"stimulus":"<p style=\"font-size: 48px;\">+</p>","key_press":null,"block":1,"trial_type":"html-keyboard-response","trial_index":69,"time_elapsed":2138626,"internal_node_id":"0.0-13.0-1.4","match_key":"l","participant_id":"35"},{"rt":708.5750000551343,"stimulus":"Images/whistle_orig.png","key_press":76,"stim_onset":1583088076005,"block":1,"match_type":"match","image_category":"whistle","sound_category":"whistle","audio_type":"label","phase":"test","trial_type":"image-keyboard-response","trial_index":70,"time_elapsed":2139336,"internal_node_id":"0.0-13.0-2.4","match_key":"l","participant_id":"35","correct":true},{"rt":null,"stimulus":"Sounds/correct.wav","key_press":null,"block":1,"trial_type":"audio-keyboard-response","trial_index":71,"time_elapsed":2141346,"internal_node_id":"0.0-13.0-3.4","match_key":"l","participant_id":"35"},{"rt":null,"stimulus":"Sounds/frog_label.wav","key_press":null,"block":1,"trial_type":"audio-keyboard-response","trial_index":72,"time_elapsed":2142251,"internal_node_id":"0.0-13.0-0.5","match_key":"l","participant_id":"35"},{"rt":null,"stimulus":"<p style=\"font-size: 48px;\">+</p>","key_press":null,"block":1,"trial_type":"html-keyboard-response","trial_index":73,"time_elapsed":2143243,"internal_node_id":"0.0-13.0-1.5","match_key":"l","participant_id":"35"},{"rt":716.1199999973178,"stimulus":"Images/frog_3.png","key_press":76,"stim_onset":1583088080621,"block":1,"match_type":"match","image_category":"frog","sound_category":"frog","audio_type":"label","phase":"test","trial_type":"image-keyboard-response","trial_index":74,"time_elapsed":2143960,"internal_node_id":"0.0-13.0-2.5","match_key":"l","participant_id":"35","correct":true},{"rt":null,"stimulus":"Sounds/correct.wav","key_press":null,"block":1,"trial_type":"audio-keyboard-response","trial_index":75,"time_elapsed":2145965,"internal_node_id":"0.0-13.0-3.5","match_key":"l","participant_id":"35"},{"rt":null,"stimulus":"Sounds/rooster_label.wav","key_press":null,"block":1,"trial_type":"audio-keyboard-response","trial_index":76,"time_elapsed":2146631,"internal_node_id":"0.0-13.0-0.6","match_key":"l","participant_id":"35"},{"rt":null,"stimulus":"<p style=\"font-size: 48px;\">+</p>","key_press":null,"block":1,"trial_type":"html-keyboard-response","trial_index":77,"time_elapsed":2147626,"internal_node_id":"0.0-13.0-1.6","match_key":"l","participant_id":"35"},{"rt":668.4650001116097,"stimulus":"Images/gun_1.png","key_press":65,"stim_onset":1583088085004,"block":1,"match_type":"non-match","image_category":"gun","sound_category":"rooster","audio_type":"label","phase":"test","trial_type":"image-keyboard-response","trial_index":78,"time_elapsed":2148296,"internal_node_id":"0.0-13.0-2.6","match_key":"l","participant_id":"35","correct":true},{"rt":null,"stimulus":"Sounds/correct.wav","key_press":null,"block":1,"trial_type":"audio-keyboard-response","trial_index":79,"time_elapsed":2150301,"internal_node_id":"0.0-13.0-3.6","match_key":"l","participant_id":"35"},{"rt":null,"stimulus":"Sounds/frog_label.wav","key_press":null,"block":1,"trial_type":"audio-keyboard-response","trial_index":80,"time_elapsed":2151171,"internal_node_id":"0.0-13.0-0.7","match_key":"l","participant_id":"35"},{"rt":null,"stimulus":"<p style=\"font-size: 48px;\">+</p>","key_press":null,"block":1,"trial_type":"html-keyboard-response","trial_index":81,"time_elapsed":2152160,"internal_node_id":"0.0-13.0-1.7","match_key":"l","participant_id":"35"},{"rt":871.345000108704,"stimulus":"Images/car_3.png","key_press":65,"stim_onset":1583088089538,"block":1,"match_type":"non-match","image_category":"car","sound_category":"frog","audio_type":"label","phase":"test","trial_type":"image-keyboard-response","trial_index":82,"time_elapsed":2153032,"internal_node_id":"0.0-13.0-2.7","match_key":"l","participant_id":"35","correct":true},{"rt":null,"stimulus":"Sounds/correct.wav","key_press":null,"block":1,"trial_type":"audio-keyboard-response","trial_index":83,"time_elapsed":2155049,"internal_node_id":"0.0-13.0-3.7","match_key":"l","participant_id":"35"},{"rt":null,"stimulus":"Sounds/train_sound.wav","key_press":null,"block":1,"trial_type":"audio-keyboard-response","trial_index":84,"time_elapsed":2156351,"internal_node_id":"0.0-13.0-0.8","match_key":"l","participant_id":"35"},{"rt":null,"stimulus":"<p style=\"font-size: 48px;\">+</p>","key_press":null,"block":1,"trial_type":"html-keyboard-response","trial_index":85,"time_elapsed":2157343,"internal_node_id":"0.0-13.0-1.8","match_key":"l","participant_id":"35"},{"rt":1287.965000141412,"stimulus":"Images/train_1.png","key_press":76,"stim_onset":1583088094721,"block":1,"match_type":"match","image_category":"train","sound_category":"train","audio_type":"sound","phase":"test","trial_type":"image-keyboard-response","trial_index":86,"time_elapsed":2158632,"internal_node_id":"0.0-13.0-2.8","match_key":"l","participant_id":"35","correct":true},{"rt":null,"stimulus":"Sounds/correct.wav","key_press":null,"block":1,"trial_type":"audio-keyboard-response","trial_index":87,"time_elapsed":2160650,"internal_node_id":"0.0-13.0-3.8","match_key":"l","participant_id":"35"},{"rt":null,"stimulus":"Sounds/car_sound.wav","key_press":null,"block":1,"trial_type":"audio-keyboard-response","trial_index":88,"time_elapsed":2161731,"internal_node_id":"0.0-13.0-0.9","match_key":"l","participant_id":"35"},{"rt":null,"stimulus":"<p style=\"font-size: 48px;\">+</p>","key_press":null,"block":1,"trial_type":"html-keyboard-response","trial_index":89,"time_elapsed":2162726,"internal_node_id":"0.0-13.0-1.9","match_key":"l","participant_id":"35"},{"rt":1424.1450000554323,"stimulus":"Images/motorcycle_cartoon.png","key_press":76,"stim_onset":1583088100105,"block":1,"match_type":"non-match","image_category":"motorcycle","sound_category":"car","audio_type":"sound","phase":"test","trial_type":"image-keyboard-response","trial_index":90,"time_elapsed":2164152,"internal_node_id":"0.0-13.0-2.9","match_key":"l","participant_id":"35","correct":false},{"rt":null,"stimulus":"Sounds/incorrect.wav","key_press":null,"block":1,"trial_type":"audio-keyboard-response","trial_index":91,"time_elapsed":2166154,"internal_node_id":"0.0-13.0-3.9","match_key":"l","participant_id":"35"},{"rt":null,"stimulus":"Sounds/dog_label.wav","key_press":null,"block":1,"trial_type":"audio-keyboard-response","trial_index":92,"time_elapsed":2166811,"internal_node_id":"0.0-13.0-0.10","match_key":"l","participant_id":"35"},{"rt":null,"stimulus":"<p style=\"font-size: 48px;\">+</p>","key_press":null,"block":1,"trial_type":"html-keyboard-response","trial_index":93,"time_elapsed":2167810,"internal_node_id":"0.0-13.0-1.10","match_key":"l","participant_id":"35"},{"rt":740.9350001253188,"stimulus":"Images/dog_cartoon.png","key_press":76,"stim_onset":1583088105188,"block":1,"match_type":"match","image_category":"dog","sound_category":"dog","audio_type":"label","phase":"test","trial_type":"image-keyboard-response","trial_index":94,"time_elapsed":2168552,"internal_node_id":"0.0-13.0-2.10","match_key":"l","participant_id":"35","correct":true},{"rt":null,"stimulus":"Sounds/correct.wav","key_press":null,"block":1,"trial_type":"audio-keyboard-response","trial_index":95,"time_elapsed":2170565,"internal_node_id":"0.0-13.0-3.10","match_key":"l","participant_id":"35"},{"rt":null,"stimulus":"Sounds/dog_sound.wav","key_press":null,"block":1,"trial_type":"audio-keyboard-response","trial_index":96,"time_elapsed":2171271,"internal_node_id":"0.0-13.0-0.11","match_key":"l","participant_id":"35"},{"rt":null,"stimulus":"<p style=\"font-size: 48px;\">+</p>","key_press":null,"block":1,"trial_type":"html-keyboard-response","trial_index":97,"time_elapsed":2172260,"internal_node_id":"0.0-13.0-1.11","match_key":"l","participant_id":"35"},{"rt":803.1250000931323,"stimulus":"Images/rooster_orig.png","key_press":65,"stim_onset":1583088109638,"block":1,"match_type":"non-match","image_category":"rooster","sound_category":"dog","audio_type":"sound","phase":"test","trial_type":"image-keyboard-response","trial_index":98,"time_elapsed":2173064,"internal_node_id":"0.0-13.0-2.11","match_key":"l","participant_id":"35","correct":true},{"rt":null,"stimulus":"Sounds/correct.wav","key_press":null,"block":1,"trial_type":"audio-keyboard-response","trial_index":99,"time_elapsed":2175081,"internal_node_id":"0.0-13.0-3.11","match_key":"l","participant_id":"35"},{"rt":null,"stimulus":"Sounds/rooster_sound.wav","key_press":null,"block":1,"trial_type":"audio-keyboard-response","trial_index":100,"time_elapsed":2175791,"internal_node_id":"0.0-13.0-0.12","match_key":"l","participant_id":"35"},{"rt":null,"stimulus":"<p style=\"font-size: 48px;\">+</p>","key_press":null,"block":1,"trial_type":"html-keyboard-response","trial_index":101,"time_elapsed":2176793,"internal_node_id":"0.0-13.0-1.12","match_key":"l","participant_id":"35"},{"rt":653.5150001291186,"stimulus":"Images/rooster_3.png","key_press":76,"stim_onset":1583088114172,"block":1,"match_type":"match","image_category":"rooster","sound_category":"rooster","audio_type":"sound","phase":"test","trial_type":"image-keyboard-response","trial_index":102,"time_elapsed":2177448,"internal_node_id":"0.0-13.0-2.12","match_key":"l","participant_id":"35","correct":true},{"rt":null,"stimulus":"Sounds/correct.wav","key_press":null,"block":1,"trial_type":"audio-keyboard-response","trial_index":103,"time_elapsed":2179464,"internal_node_id":"0.0-13.0-3.12","match_key":"l","participant_id":"35"},{"rt":null,"stimulus":"Sounds/gun_label.wav","key_press":null,"block":1,"trial_type":"audio-keyboard-response","trial_index":104,"time_elapsed":2180051,"internal_node_id":"0.0-13.0-0.13","match_key":"l","participant_id":"35"},{"rt":null,"stimulus":"<p style=\"font-size: 48px;\">+</p>","key_press":null,"block":1,"trial_type":"html-keyboard-response","trial_index":105,"time_elapsed":2181043,"internal_node_id":"0.0-13.0-1.13","match_key":"l","participant_id":"35"},{"rt":611.5899998694658,"stimulus":"Images/gun_2.png","key_press":76,"stim_onset":1583088118422,"block":1,"match_type":"match","image_category":"gun","sound_category":"gun","audio_type":"label","phase":"test","trial_type":"image-keyboard-response","trial_index":106,"time_elapsed":2181656,"internal_node_id":"0.0-13.0-2.13","match_key":"l","participant_id":"35","correct":true},{"rt":null,"stimulus":"Sounds/correct.wav","key_press":null,"block":1,"trial_type":"audio-keyboard-response","trial_index":107,"time_elapsed":2183667,"internal_node_id":"0.0-13.0-3.13","match_key":"l","participant_id":"35"},{"rt":null,"stimulus":"Sounds/cat_label.wav","key_press":null,"block":1,"trial_type":"audio-keyboard-response","trial_index":108,"time_elapsed":2184513,"internal_node_id":"0.0-13.0-0.14","match_key":"l","participant_id":"35"},{"rt":null,"stimulus":"<p style=\"font-size: 48px;\">+</p>","key_press":null,"block":1,"trial_type":"html-keyboard-response","trial_index":109,"time_elapsed":2185512,"internal_node_id":"0.0-13.0-1.14","match_key":"l","participant_id":"35"},{"rt":752.8699999675155,"stimulus":"Images/cat_1.png","key_press":76,"stim_onset":1583088122891,"block":1,"match_type":"match","image_category":"cat","sound_category":"cat","audio_type":"label","phase":"test","trial_type":"image-keyboard-response","trial_index":110,"time_elapsed":2186266,"internal_node_id":"0.0-13.0-2.14","match_key":"l","participant_id":"35","correct":true},{"rt":null,"stimulus":"Sounds/correct.wav","key_press":null,"block":1,"trial_type":"audio-keyboard-response","trial_index":111,"time_elapsed":2188270,"internal_node_id":"0.0-13.0-3.14","match_key":"l","participant_id":"35"},{"rt":null,"stimulus":"Sounds/cow_sound.wav","key_press":null,"block":1,"trial_type":"audio-keyboard-response","trial_index":112,"time_elapsed":2189293,"internal_node_id":"0.0-13.0-0.15","match_key":"l","participant_id":"35"},{"rt":null,"stimulus":"<p style=\"font-size: 48px;\">+</p>","key_press":null,"block":1,"trial_type":"html-keyboard-response","trial_index":113,"time_elapsed":2190296,"internal_node_id":"0.0-13.0-1.15","match_key":"l","participant_id":"35"},{"rt":625.620000064373,"stimulus":"Images/dog_cartoon.png","key_press":65,"stim_onset":1583088127674,"block":1,"match_type":"non-match","image_category":"dog","sound_category":"cow","audio_type":"sound","phase":"test","trial_type":"image-keyboard-response","trial_index":114,"time_elapsed":2190922,"internal_node_id":"0.0-13.0-2.15","match_key":"l","participant_id":"35","correct":true},{"rt":null,"stimulus":"Sounds/correct.wav","key_press":null,"block":1,"trial_type":"audio-keyboard-response","trial_index":115,"time_elapsed":2192933,"internal_node_id":"0.0-13.0-3.15","match_key":"l","participant_id":"35"},{"rt":null,"stimulus":"Sounds/car_sound.wav","key_press":null,"block":1,"trial_type":"audio-keyboard-response","trial_index":116,"time_elapsed":2194013,"internal_node_id":"0.0-13.0-0.16","match_key":"l","participant_id":"35"},{"rt":null,"stimulus":"<p style=\"font-size: 48px;\">+</p>","key_press":null,"block":1,"trial_type":"html-keyboard-response","trial_index":117,"time_elapsed":2195013,"internal_node_id":"0.0-13.0-1.16","match_key":"l","participant_id":"35"},{"rt":1108.574999962002,"stimulus":"Images/train_2.png","key_press":65,"stim_onset":1583088132391,"block":1,"match_type":"non-match","image_category":"train","sound_category":"car","audio_type":"sound","phase":"test","trial_type":"image-keyboard-response","trial_index":118,"time_elapsed":2196122,"internal_node_id":"0.0-13.0-2.16","match_key":"l","participant_id":"35","correct":true},{"rt":null,"stimulus":"Sounds/correct.wav","key_press":null,"block":1,"trial_type":"audio-keyboard-response","trial_index":119,"time_elapsed":2198134,"internal_node_id":"0.0-13.0-3.16","match_key":"l","participant_id":"35"},{"rt":null,"stimulus":"Sounds/whistle_label.wav","key_press":null,"block":1,"trial_type":"audio-keyboard-response","trial_index":120,"time_elapsed":2198833,"internal_node_id":"0.0-13.0-0.17","match_key":"l","participant_id":"35"},{"rt":null,"stimulus":"<p style=\"font-size: 48px;\">+</p>","key_press":null,"block":1,"trial_type":"html-keyboard-response","trial_index":121,"time_elapsed":2199829,"internal_node_id":"0.0-13.0-1.17","match_key":"l","participant_id":"35"},{"rt":820.3499999362975,"stimulus":"Images/cat_2.png","key_press":65,"stim_onset":1583088137208,"block":1,"match_type":"non-match","image_category":"cat","sound_category":"whistle","audio_type":"label","phase":"test","trial_type":"image-keyboard-response","trial_index":122,"time_elapsed":2200650,"internal_node_id":"0.0-13.0-2.17","match_key":"l","participant_id":"35","correct":true},{"rt":null,"stimulus":"Sounds/correct.wav","key_press":null,"block":1,"trial_type":"audio-keyboard-response","trial_index":123,"time_elapsed":2202667,"internal_node_id":"0.0-13.0-3.17","match_key":"l","participant_id":"35"},{"rt":null,"stimulus":"Sounds/gun_label.wav","key_press":null,"block":1,"trial_type":"audio-keyboard-response","trial_index":124,"time_elapsed":2203253,"internal_node_id":"0.0-13.0-0.18","match_key":"l","participant_id":"35"},{"rt":null,"stimulus":"<p style=\"font-size: 48px;\">+</p>","key_press":null,"block":1,"trial_type":"html-keyboard-response","trial_index":125,"time_elapsed":2204246,"internal_node_id":"0.0-13.0-1.18","match_key":"l","participant_id":"35"},{"rt":963.4150001220405,"stimulus":"Images/whistle_3.png","key_press":65,"stim_onset":1583088141624,"block":1,"match_type":"non-match","image_category":"whistle","sound_category":"gun","audio_type":"label","phase":"test","trial_type":"image-keyboard-response","trial_index":126,"time_elapsed":2205210,"internal_node_id":"0.0-13.0-2.18","match_key":"l","participant_id":"35","correct":true},{"rt":null,"stimulus":"Sounds/correct.wav","key_press":null,"block":1,"trial_type":"audio-keyboard-response","trial_index":127,"time_elapsed":2207217,"internal_node_id":"0.0-13.0-3.18","match_key":"l","participant_id":"35"},{"rt":null,"stimulus":"Sounds/whistle_label.wav","key_press":null,"block":1,"trial_type":"audio-keyboard-response","trial_index":128,"time_elapsed":2207893,"internal_node_id":"0.0-13.0-0.19","match_key":"l","participant_id":"35"},{"rt":null,"stimulus":"<p style=\"font-size: 48px;\">+</p>","key_press":null,"block":1,"trial_type":"html-keyboard-response","trial_index":129,"time_elapsed":2208896,"internal_node_id":"0.0-13.0-1.19","match_key":"l","participant_id":"35"},{"rt":713.3049999829382,"stimulus":"Images/motorcycle_orig.png","key_press":65,"stim_onset":1583088146274,"block":1,"match_type":"non-match","image_category":"motorcycle","sound_category":"whistle","audio_type":"label","phase":"test","trial_type":"image-keyboard-response","trial_index":130,"time_elapsed":2209611,"internal_node_id":"0.0-13.0-2.19","match_key":"l","participant_id":"35","correct":true},{"rt":null,"stimulus":"Sounds/correct.wav","key_press":null,"block":1,"trial_type":"audio-keyboard-response","trial_index":131,"time_elapsed":2211625,"internal_node_id":"0.0-13.0-3.19","match_key":"l","participant_id":"35"},{"rt":null,"stimulus":"Sounds/frog_sound.wav","key_press":null,"block":1,"trial_type":"audio-keyboard-response","trial_index":132,"time_elapsed":2212533,"internal_node_id":"0.0-13.0-0.20","match_key":"l","participant_id":"35"},{"rt":null,"stimulus":"<p style=\"font-size: 48px;\">+</p>","key_press":null,"block":1,"trial_type":"html-keyboard-response","trial_index":133,"time_elapsed":2213529,"internal_node_id":"0.0-13.0-1.20","match_key":"l","participant_id":"35"},{"rt":720.1249999925494,"stimulus":"Images/frog_1.png","key_press":76,"stim_onset":1583088150908,"block":1,"match_type":"match","image_category":"frog","sound_category":"frog","audio_type":"sound","phase":"test","trial_type":"image-keyboard-response","trial_index":134,"time_elapsed":2214250,"internal_node_id":"0.0-13.0-2.20","match_key":"l","participant_id":"35","correct":true},{"rt":null,"stimulus":"Sounds/correct.wav","key_press":null,"block":1,"trial_type":"audio-keyboard-response","trial_index":135,"time_elapsed":2216267,"internal_node_id":"0.0-13.0-3.20","match_key":"l","participant_id":"35"},{"rt":null,"stimulus":"Sounds/cow_label.wav","key_press":null,"block":1,"trial_type":"audio-keyboard-response","trial_index":136,"time_elapsed":2217293,"internal_node_id":"0.0-13.0-0.21","match_key":"l","participant_id":"35"},{"rt":null,"stimulus":"<p style=\"font-size: 48px;\">+</p>","key_press":null,"block":1,"trial_type":"html-keyboard-response","trial_index":137,"time_elapsed":2218296,"internal_node_id":"0.0-13.0-1.21","match_key":"l","participant_id":"35"},{"rt":737.1300000231713,"stimulus":"Images/cow_orig.png","key_press":76,"stim_onset":1583088155674,"block":1,"match_type":"match","image_category":"cow","sound_category":"cow","audio_type":"label","phase":"test","trial_type":"image-keyboard-response","trial_index":138,"time_elapsed":2219034,"internal_node_id":"0.0-13.0-2.21","match_key":"l","participant_id":"35","correct":true},{"rt":null,"stimulus":"Sounds/correct.wav","key_press":null,"block":1,"trial_type":"audio-keyboard-response","trial_index":139,"time_elapsed":2221050,"internal_node_id":"0.0-13.0-3.21","match_key":"l","participant_id":"35"},{"rt":null,"stimulus":"Sounds/car_sound.wav","key_press":null,"block":1,"trial_type":"audio-keyboard-response","trial_index":140,"time_elapsed":2222133,"internal_node_id":"0.0-13.0-0.22","match_key":"l","participant_id":"35"},{"rt":null,"stimulus":"<p style=\"font-size: 48px;\">+</p>","key_press":null,"block":1,"trial_type":"html-keyboard-response","trial_index":141,"time_elapsed":2223130,"internal_node_id":"0.0-13.0-1.22","match_key":"l","participant_id":"35"},{"rt":895.5850000493228,"stimulus":"Images/whistle_2.png","key_press":65,"stim_onset":1583088160508,"block":1,"match_type":"non-match","image_category":"whistle","sound_category":"car","audio_type":"sound","phase":"test","trial_type":"image-keyboard-response","trial_index":142,"time_elapsed":2224026,"internal_node_id":"0.0-13.0-2.22","match_key":"l","participant_id":"35","correct":true},{"rt":null,"stimulus":"Sounds/correct.wav","key_press":null,"block":1,"trial_type":"audio-keyboard-response","trial_index":143,"time_elapsed":2226035,"internal_node_id":"0.0-13.0-3.22","match_key":"l","participant_id":"35"},{"rt":null,"stimulus":"Sounds/rooster_label.wav","key_press":null,"block":1,"trial_type":"audio-keyboard-response","trial_index":144,"time_elapsed":2226733,"internal_node_id":"0.0-13.0-0.23","match_key":"l","participant_id":"35"},{"rt":null,"stimulus":"<p style=\"font-size: 48px;\">+</p>","key_press":null,"block":1,"trial_type":"html-keyboard-response","trial_index":145,"time_elapsed":2227729,"internal_node_id":"0.0-13.0-1.23","match_key":"l","participant_id":"35"},{"rt":1144.065000116825,"stimulus":"Images/cat_cartoon.png","key_press":65,"stim_onset":1583088165108,"block":1,"match_type":"non-match","image_category":"cat","sound_category":"rooster","audio_type":"label","phase":"test","trial_type":"image-keyboard-response","trial_index":146,"time_elapsed":2228875,"internal_node_id":"0.0-13.0-2.23","match_key":"l","participant_id":"35","correct":true},{"rt":null,"stimulus":"Sounds/correct.wav","key_press":null,"block":1,"trial_type":"audio-keyboard-response","trial_index":147,"time_elapsed":2230888,"internal_node_id":"0.0-13.0-3.23","match_key":"l","participant_id":"35"},{"rt":null,"stimulus":"Sounds/frog_label.wav","key_press":null,"block":1,"trial_type":"audio-keyboard-response","trial_index":148,"time_elapsed":2231793,"internal_node_id":"0.0-13.0-0.24","match_key":"l","participant_id":"35"},{"rt":null,"stimulus":"<p style=\"font-size: 48px;\">+</p>","key_press":null,"block":1,"trial_type":"html-keyboard-response","trial_index":149,"time_elapsed":2232796,"internal_node_id":"0.0-13.0-1.24","match_key":"l","participant_id":"35"},{"rt":908.8699999265373,"stimulus":"Images/frog_2.png","key_press":76,"stim_onset":1583088170175,"block":1,"match_type":"match","image_category":"frog","sound_category":"frog","audio_type":"label","phase":"test","trial_type":"image-keyboard-response","trial_index":150,"time_elapsed":2233706,"internal_node_id":"0.0-13.0-2.24","match_key":"l","participant_id":"35","correct":true},{"rt":null,"stimulus":"Sounds/correct.wav","key_press":null,"block":1,"trial_type":"audio-keyboard-response","trial_index":151,"time_elapsed":2235716,"internal_node_id":"0.0-13.0-3.24","match_key":"l","participant_id":"35"},{"rt":null,"stimulus":"Sounds/cat_sound.wav","key_press":null,"block":1,"trial_type":"audio-keyboard-response","trial_index":152,"time_elapsed":2236553,"internal_node_id":"0.0-13.0-0.25","match_key":"l","participant_id":"35"},{"rt":null,"stimulus":"<p style=\"font-size: 48px;\">+</p>","key_press":null,"block":1,"trial_type":"html-keyboard-response","trial_index":153,"time_elapsed":2237546,"internal_node_id":"0.0-13.0-1.25","match_key":"l","participant_id":"35"},{"rt":1791.0149998497218,"stimulus":"Images/cat_2.png","key_press":76,"stim_onset":1583088174925,"block":1,"match_type":"match","image_category":"cat","sound_category":"cat","audio_type":"sound","phase":"test","trial_type":"image-keyboard-response","trial_index":154,"time_elapsed":2239338,"internal_node_id":"0.0-13.0-2.25","match_key":"l","participant_id":"35","correct":true},{"rt":null,"stimulus":"Sounds/correct.wav","key_press":null,"block":1,"trial_type":"audio-keyboard-response","trial_index":155,"time_elapsed":2241354,"internal_node_id":"0.0-13.0-3.25","match_key":"l","participant_id":"35"},{"rt":null,"stimulus":"Sounds/car_label.wav","key_press":null,"block":1,"trial_type":"audio-keyboard-response","trial_index":156,"time_elapsed":2242433,"internal_node_id":"0.0-13.0-0.26","match_key":"l","participant_id":"35"},{"rt":null,"stimulus":"<p style=\"font-size: 48px;\">+</p>","key_press":null,"block":1,"trial_type":"html-keyboard-response","trial_index":157,"time_elapsed":2243430,"internal_node_id":"0.0-13.0-1.26","match_key":"l","participant_id":"35"},{"rt":979.6599999535829,"stimulus":"Images/dog_2.png","key_press":65,"stim_onset":1583088180808,"block":1,"match_type":"non-match","image_category":"dog","sound_category":"car","audio_type":"label","phase":"test","trial_type":"image-keyboard-response","trial_index":158,"time_elapsed":2244410,"internal_node_id":"0.0-13.0-2.26","match_key":"l","participant_id":"35","correct":true},{"rt":null,"stimulus":"Sounds/correct.wav","key_press":null,"block":1,"trial_type":"audio-keyboard-response","trial_index":159,"time_elapsed":2246419,"internal_node_id":"0.0-13.0-3.26","match_key":"l","participant_id":"35"},{"rt":null,"stimulus":"Sounds/train_label.wav","key_press":null,"block":1,"trial_type":"audio-keyboard-response","trial_index":160,"time_elapsed":2247693,"internal_node_id":"0.0-13.0-0.27","match_key":"l","participant_id":"35"},{"rt":null,"stimulus":"<p style=\"font-size: 48px;\">+</p>","key_press":null,"block":1,"trial_type":"html-keyboard-response","trial_index":161,"time_elapsed":2248696,"internal_node_id":"0.0-13.0-1.27","match_key":"l","participant_id":"35"},{"rt":528.9199999533594,"stimulus":"Images/train_orig.png","key_press":76,"stim_onset":1583088186075,"block":1,"match_type":"match","image_category":"train","sound_category":"train","audio_type":"label","phase":"test","trial_type":"image-keyboard-response","trial_index":162,"time_elapsed":2249226,"internal_node_id":"0.0-13.0-2.27","match_key":"l","participant_id":"35","correct":true},{"rt":null,"stimulus":"Sounds/correct.wav","key_press":null,"block":1,"trial_type":"audio-keyboard-response","trial_index":163,"time_elapsed":2251235,"internal_node_id":"0.0-13.0-3.27","match_key":"l","participant_id":"35"},{"rt":null,"stimulus":"Sounds/whistle_sound.wav","key_press":null,"block":1,"trial_type":"audio-keyboard-response","trial_index":164,"time_elapsed":2251933,"internal_node_id":"0.0-13.0-0.28","match_key":"l","participant_id":"35"},{"rt":null,"stimulus":"<p style=\"font-size: 48px;\">+</p>","key_press":null,"block":1,"trial_type":"html-keyboard-response","trial_index":165,"time_elapsed":2252930,"internal_node_id":"0.0-13.0-1.28","match_key":"l","participant_id":"35"},{"rt":695.5699999816716,"stimulus":"Images/whistle_1.png","key_press":76,"stim_onset":1583088190308,"block":1,"match_type":"match","image_category":"whistle","sound_category":"whistle","audio_type":"sound","phase":"test","trial_type":"image-keyboard-response","trial_index":166,"time_elapsed":2253626,"internal_node_id":"0.0-13.0-2.28","match_key":"l","participant_id":"35","correct":true},{"rt":null,"stimulus":"Sounds/correct.wav","key_press":null,"block":1,"trial_type":"audio-keyboard-response","trial_index":167,"time_elapsed":2255635,"internal_node_id":"0.0-13.0-3.28","match_key":"l","participant_id":"35"},{"rt":null,"stimulus":"Sounds/cow_label.wav","key_press":null,"block":1,"trial_type":"audio-keyboard-response","trial_index":168,"time_elapsed":2256653,"internal_node_id":"0.0-13.0-0.29","match_key":"l","participant_id":"35"},{"rt":null,"stimulus":"<p style=\"font-size: 48px;\">+</p>","key_press":null,"block":1,"trial_type":"html-keyboard-response","trial_index":169,"time_elapsed":2257646,"internal_node_id":"0.0-13.0-1.29","match_key":"l","participant_id":"35"},{"rt":651.0300000663847,"stimulus":"Images/cow_1.png","key_press":76,"stim_onset":1583088195024,"block":1,"match_type":"match","image_category":"cow","sound_category":"cow","audio_type":"label","phase":"test","trial_type":"image-keyboard-response","trial_index":170,"time_elapsed":2258298,"internal_node_id":"0.0-13.0-2.29","match_key":"l","participant_id":"35","correct":true},{"rt":null,"stimulus":"Sounds/correct.wav","key_press":null,"block":1,"trial_type":"audio-keyboard-response","trial_index":171,"time_elapsed":2260301,"internal_node_id":"0.0-13.0-3.29","match_key":"l","participant_id":"35"},{"rt":null,"stimulus":"Sounds/frog_label.wav","key_press":null,"block":1,"trial_type":"audio-keyboard-response","trial_index":172,"time_elapsed":2261193,"internal_node_id":"0.0-13.0-0.30","match_key":"l","participant_id":"35"},{"rt":null,"stimulus":"<p style=\"font-size: 48px;\">+</p>","key_press":null,"block":1,"trial_type":"html-keyboard-response","trial_index":173,"time_elapsed":2262196,"internal_node_id":"0.0-13.0-1.30","match_key":"l","participant_id":"35"},{"rt":500.68000005558133,"stimulus":"Images/frog_orig.png","key_press":76,"stim_onset":1583088199575,"block":1,"match_type":"match","image_category":"frog","sound_category":"frog","audio_type":"label","phase":"test","trial_type":"image-keyboard-response","trial_index":174,"time_elapsed":2262698,"internal_node_id":"0.0-13.0-2.30","match_key":"l","participant_id":"35","correct":true},{"rt":null,"stimulus":"Sounds/correct.wav","key_press":null,"block":1,"trial_type":"audio-keyboard-response","trial_index":175,"time_elapsed":2264702,"internal_node_id":"0.0-13.0-3.30","match_key":"l","participant_id":"35"},{"rt":null,"stimulus":"Sounds/car_sound.wav","key_press":null,"block":1,"trial_type":"audio-keyboard-response","trial_index":176,"time_elapsed":2265773,"internal_node_id":"0.0-13.0-0.31","match_key":"l","participant_id":"35"},{"rt":null,"stimulus":"<p style=\"font-size: 48px;\">+</p>","key_press":null,"block":1,"trial_type":"html-keyboard-response","trial_index":177,"time_elapsed":2266763,"internal_node_id":"0.0-13.0-1.31","match_key":"l","participant_id":"35"},{"rt":782.1899999398738,"stimulus":"Images/car_1.png","key_press":76,"stim_onset":1583088204141,"block":1,"match_type":"match","image_category":"car","sound_category":"car","audio_type":"sound","phase":"test","trial_type":"image-keyboard-response","trial_index":178,"time_elapsed":2267546,"internal_node_id":"0.0-13.0-2.31","match_key":"l","participant_id":"35","correct":true},{"rt":null,"stimulus":"Sounds/correct.wav","key_press":null,"block":1,"trial_type":"audio-keyboard-response","trial_index":179,"time_elapsed":2269562,"internal_node_id":"0.0-13.0-3.31","match_key":"l","participant_id":"35"},{"rt":null,"stimulus":"Sounds/whistle_label.wav","key_press":null,"block":1,"trial_type":"audio-keyboard-response","trial_index":180,"time_elapsed":2270253,"internal_node_id":"0.0-13.0-0.32","match_key":"l","participant_id":"35"},{"rt":null,"stimulus":"<p style=\"font-size: 48px;\">+</p>","key_press":null,"block":1,"trial_type":"html-keyboard-response","trial_index":181,"time_elapsed":2271246,"internal_node_id":"0.0-13.0-1.32","match_key":"l","participant_id":"35"},{"rt":602.6200000196695,"stimulus":"Images/whistle_cartoon.png","key_press":76,"stim_onset":1583088208625,"block":1,"match_type":"match","image_category":"whistle","sound_category":"whistle","audio_type":"label","phase":"test","trial_type":"image-keyboard-response","trial_index":182,"time_elapsed":2271850,"internal_node_id":"0.0-13.0-2.32","match_key":"l","participant_id":"35","correct":true},{"rt":null,"stimulus":"Sounds/correct.wav","key_press":null,"block":1,"trial_type":"audio-keyboard-response","trial_index":183,"time_elapsed":2273867,"internal_node_id":"0.0-13.0-3.32","match_key":"l","participant_id":"35"},{"rt":null,"stimulus":"Sounds/cat_sound.wav","key_press":null,"block":1,"trial_type":"audio-keyboard-response","trial_index":184,"time_elapsed":2274713,"internal_node_id":"0.0-13.0-0.33","match_key":"l","participant_id":"35"},{"rt":null,"stimulus":"<p style=\"font-size: 48px;\">+</p>","key_press":null,"block":1,"trial_type":"html-keyboard-response","trial_index":185,"time_elapsed":2275713,"internal_node_id":"0.0-13.0-1.33","match_key":"l","participant_id":"35"},{"rt":663.7599999085069,"stimulus":"Images/motorcycle_1.png","key_press":65,"stim_onset":1583088213091,"block":1,"match_type":"non-match","image_category":"motorcycle","sound_category":"cat","audio_type":"sound","phase":"test","trial_type":"image-keyboard-response","trial_index":186,"time_elapsed":2276378,"internal_node_id":"0.0-13.0-2.33","match_key":"l","participant_id":"35","correct":true},{"rt":null,"stimulus":"Sounds/correct.wav","key_press":null,"block":1,"trial_type":"audio-keyboard-response","trial_index":187,"time_elapsed":2278385,"internal_node_id":"0.0-13.0-3.33","match_key":"l","participant_id":"35"},{"rt":null,"stimulus":"Sounds/rooster_label.wav","key_press":null,"block":1,"trial_type":"audio-keyboard-response","trial_index":188,"time_elapsed":2279093,"internal_node_id":"0.0-13.0-0.34","match_key":"l","participant_id":"35"},{"rt":null,"stimulus":"<p style=\"font-size: 48px;\">+</p>","key_press":null,"block":1,"trial_type":"html-keyboard-response","trial_index":189,"time_elapsed":2280097,"internal_node_id":"0.0-13.0-1.34","match_key":"l","participant_id":"35"},{"rt":616.575000109151,"stimulus":"Images/rooster_2.png","key_press":76,"stim_onset":1583088217475,"block":1,"match_type":"match","image_category":"rooster","sound_category":"rooster","audio_type":"label","phase":"test","trial_type":"image-keyboard-response","trial_index":190,"time_elapsed":2280714,"internal_node_id":"0.0-13.0-2.34","match_key":"l","participant_id":"35","correct":true},{"rt":null,"stimulus":"Sounds/correct.wav","key_press":null,"block":1,"trial_type":"audio-keyboard-response","trial_index":191,"time_elapsed":2282718,"internal_node_id":"0.0-13.0-3.34","match_key":"l","participant_id":"35"},{"rt":null,"stimulus":"Sounds/cow_sound.wav","key_press":null,"block":1,"trial_type":"audio-keyboard-response","trial_index":192,"time_elapsed":2283734,"internal_node_id":"0.0-13.0-0.35","match_key":"l","participant_id":"35"},{"rt":null,"stimulus":"<p style=\"font-size: 48px;\">+</p>","key_press":null,"block":1,"trial_type":"html-keyboard-response","trial_index":193,"time_elapsed":2284730,"internal_node_id":"0.0-13.0-1.35","match_key":"l","participant_id":"35"},{"rt":527.1050001028925,"stimulus":"Images/cow_2.png","key_press":76,"stim_onset":1583088222108,"block":1,"match_type":"match","image_category":"cow","sound_category":"cow","audio_type":"sound","phase":"test","trial_type":"image-keyboard-response","trial_index":194,"time_elapsed":2285258,"internal_node_id":"0.0-13.0-2.35","match_key":"l","participant_id":"35","correct":true},{"rt":null,"stimulus":"Sounds/correct.wav","key_press":null,"block":1,"trial_type":"audio-keyboard-response","trial_index":195,"time_elapsed":2287268,"internal_node_id":"0.0-13.0-3.35","match_key":"l","participant_id":"35"},{"rt":null,"stimulus":"Sounds/whistle_label.wav","key_press":null,"block":1,"trial_type":"audio-keyboard-response","trial_index":196,"time_elapsed":2287953,"internal_node_id":"0.0-13.0-0.36","match_key":"l","participant_id":"35"},{"rt":null,"stimulus":"<p style=\"font-size: 48px;\">+</p>","key_press":null,"block":1,"trial_type":"html-keyboard-response","trial_index":197,"time_elapsed":2288947,"internal_node_id":"0.0-13.0-1.36","match_key":"l","participant_id":"35"},{"rt":678.224999923259,"stimulus":"Images/whistle_3.png","key_press":76,"stim_onset":1583088226325,"block":1,"match_type":"match","image_category":"whistle","sound_category":"whistle","audio_type":"label","phase":"test","trial_type":"image-keyboard-response","trial_index":198,"time_elapsed":2289626,"internal_node_id":"0.0-13.0-2.36","match_key":"l","participant_id":"35","correct":true},{"rt":null,"stimulus":"Sounds/correct.wav","key_press":null,"block":1,"trial_type":"audio-keyboard-response","trial_index":199,"time_elapsed":2291637,"internal_node_id":"0.0-13.0-3.36","match_key":"l","participant_id":"35"},{"rt":null,"stimulus":"Sounds/frog_sound.wav","key_press":null,"block":1,"trial_type":"audio-keyboard-response","trial_index":200,"time_elapsed":2292553,"internal_node_id":"0.0-13.0-0.37","match_key":"l","participant_id":"35"},{"rt":null,"stimulus":"<p style=\"font-size: 48px;\">+</p>","key_press":null,"block":1,"trial_type":"html-keyboard-response","trial_index":201,"time_elapsed":2293547,"internal_node_id":"0.0-13.0-1.37","match_key":"l","participant_id":"35"},{"rt":590.6100000720471,"stimulus":"Images/train_1.png","key_press":65,"stim_onset":1583088230925,"block":1,"match_type":"non-match","image_category":"train","sound_category":"frog","audio_type":"sound","phase":"test","trial_type":"image-keyboard-response","trial_index":202,"time_elapsed":2294138,"internal_node_id":"0.0-13.0-2.37","match_key":"l","participant_id":"35","correct":true},{"rt":null,"stimulus":"Sounds/correct.wav","key_press":null,"block":1,"trial_type":"audio-keyboard-response","trial_index":203,"time_elapsed":2296152,"internal_node_id":"0.0-13.0-3.37","match_key":"l","participant_id":"35"},{"rt":null,"stimulus":"Sounds/whistle_label.wav","key_press":null,"block":1,"trial_type":"audio-keyboard-response","trial_index":204,"time_elapsed":2296833,"internal_node_id":"0.0-13.0-0.38","match_key":"l","participant_id":"35"},{"rt":null,"stimulus":"<p style=\"font-size: 48px;\">+</p>","key_press":null,"block":1,"trial_type":"html-keyboard-response","trial_index":205,"time_elapsed":2297830,"internal_node_id":"0.0-13.0-1.38","match_key":"l","participant_id":"35"},{"rt":690.764999948442,"stimulus":"Images/dog_1.png","key_press":65,"stim_onset":1583088235208,"block":1,"match_type":"non-match","image_category":"dog","sound_category":"whistle","audio_type":"label","phase":"test","trial_type":"image-keyboard-response","trial_index":206,"time_elapsed":2298522,"internal_node_id":"0.0-13.0-2.38","match_key":"l","participant_id":"35","correct":true},{"rt":null,"stimulus":"Sounds/correct.wav","key_press":null,"block":1,"trial_type":"audio-keyboard-response","trial_index":207,"time_elapsed":2300536,"internal_node_id":"0.0-13.0-3.38","match_key":"l","participant_id":"35"},{"rt":null,"stimulus":"Sounds/cat_label.wav","key_press":null,"block":1,"trial_type":"audio-keyboard-response","trial_index":208,"time_elapsed":2301373,"internal_node_id":"0.0-13.0-0.39","match_key":"l","participant_id":"35"},{"rt":null,"stimulus":"<p style=\"font-size: 48px;\">+</p>","key_press":null,"block":1,"trial_type":"html-keyboard-response","trial_index":209,"time_elapsed":2302363,"internal_node_id":"0.0-13.0-1.39","match_key":"l","participant_id":"35"},{"rt":622.0599999651313,"stimulus":"Images/cow_cartoon.png","key_press":65,"stim_onset":1583088239742,"block":1,"match_type":"non-match","image_category":"cow","sound_category":"cat","audio_type":"label","phase":"test","trial_type":"image-keyboard-response","trial_index":210,"time_elapsed":2302986,"internal_node_id":"0.0-13.0-2.39","match_key":"l","participant_id":"35","correct":true},{"rt":null,"stimulus":"Sounds/correct.wav","key_press":null,"block":1,"trial_type":"audio-keyboard-response","trial_index":211,"time_elapsed":2305002,"internal_node_id":"0.0-13.0-3.39","match_key":"l","participant_id":"35"},{"rt":null,"stimulus":"Sounds/dog_sound.wav","key_press":null,"block":1,"trial_type":"audio-keyboard-response","trial_index":212,"time_elapsed":2305714,"internal_node_id":"0.0-13.0-0.40","match_key":"l","participant_id":"35"},{"rt":null,"stimulus":"<p style=\"font-size: 48px;\">+</p>","key_press":null,"block":1,"trial_type":"html-keyboard-response","trial_index":213,"time_elapsed":2306714,"internal_node_id":"0.0-13.0-1.40","match_key":"l","participant_id":"35"},{"rt":527.8200001921505,"stimulus":"Images/train_orig.png","key_press":65,"stim_onset":1583088244092,"block":1,"match_type":"non-match","image_category":"train","sound_category":"dog","audio_type":"sound","phase":"test","trial_type":"image-keyboard-response","trial_index":214,"time_elapsed":2307243,"internal_node_id":"0.0-13.0-2.40","match_key":"l","participant_id":"35","correct":true},{"rt":null,"stimulus":"Sounds/correct.wav","key_press":null,"block":1,"trial_type":"audio-keyboard-response","trial_index":215,"time_elapsed":2309252,"internal_node_id":"0.0-13.0-3.40","match_key":"l","participant_id":"35"},{"rt":null,"stimulus":"Sounds/dog_label.wav","key_press":null,"block":1,"trial_type":"audio-keyboard-response","trial_index":216,"time_elapsed":2309914,"internal_node_id":"0.0-13.0-0.41","match_key":"l","participant_id":"35"},{"rt":null,"stimulus":"<p style=\"font-size: 48px;\">+</p>","key_press":null,"block":1,"trial_type":"html-keyboard-response","trial_index":217,"time_elapsed":2310914,"internal_node_id":"0.0-13.0-1.41","match_key":"l","participant_id":"35"},{"rt":983.574999962002,"stimulus":"Images/dog_1.png","key_press":76,"stim_onset":1583088248292,"block":1,"match_type":"match","image_category":"dog","sound_category":"dog","audio_type":"label","phase":"test","trial_type":"image-keyboard-response","trial_index":218,"time_elapsed":2311899,"internal_node_id":"0.0-13.0-2.41","match_key":"l","participant_id":"35","correct":true},{"rt":null,"stimulus":"Sounds/correct.wav","key_press":null,"block":1,"trial_type":"audio-keyboard-response","trial_index":219,"time_elapsed":2313905,"internal_node_id":"0.0-13.0-3.41","match_key":"l","participant_id":"35"},{"rt":null,"stimulus":"Sounds/rooster_label.wav","key_press":null,"block":1,"trial_type":"audio-keyboard-response","trial_index":220,"time_elapsed":2314613,"internal_node_id":"0.0-13.0-0.42","match_key":"l","participant_id":"35"},{"rt":null,"stimulus":"<p style=\"font-size: 48px;\">+</p>","key_press":null,"block":1,"trial_type":"html-keyboard-response","trial_index":221,"time_elapsed":2315614,"internal_node_id":"0.0-13.0-1.42","match_key":"l","participant_id":"35"},{"rt":1003.4050000831485,"stimulus":"Images/rooster_1.png","key_press":76,"stim_onset":1583088252992,"block":1,"match_type":"match","image_category":"rooster","sound_category":"rooster","audio_type":"label","phase":"test","trial_type":"image-keyboard-response","trial_index":222,"time_elapsed":2316619,"internal_node_id":"0.0-13.0-2.42","match_key":"l","participant_id":"35","correct":true},{"rt":null,"stimulus":"Sounds/correct.wav","key_press":null,"block":1,"trial_type":"audio-keyboard-response","trial_index":223,"time_elapsed":2318635,"internal_node_id":"0.0-13.0-3.42","match_key":"l","participant_id":"35"},{"rt":null,"stimulus":"Sounds/cat_label.wav","key_press":null,"block":1,"trial_type":"audio-keyboard-response","trial_index":224,"time_elapsed":2319473,"internal_node_id":"0.0-13.0-0.43","match_key":"l","participant_id":"35"},{"rt":null,"stimulus":"<p style=\"font-size: 48px;\">+</p>","key_press":null,"block":1,"trial_type":"html-keyboard-response","trial_index":225,"time_elapsed":2320464,"internal_node_id":"0.0-13.0-1.43","match_key":"l","participant_id":"35"},{"rt":665.6049999874085,"stimulus":"Images/cat_3.png","key_press":76,"stim_onset":1583088257842,"block":1,"match_type":"match","image_category":"cat","sound_category":"cat","audio_type":"label","phase":"test","trial_type":"image-keyboard-response","trial_index":226,"time_elapsed":2321131,"internal_node_id":"0.0-13.0-2.43","match_key":"l","participant_id":"35","correct":true},{"rt":null,"stimulus":"Sounds/correct.wav","key_press":null,"block":1,"trial_type":"audio-keyboard-response","trial_index":227,"time_elapsed":2323138,"internal_node_id":"0.0-13.0-3.43","match_key":"l","participant_id":"35"},{"rt":null,"stimulus":"Sounds/whistle_sound.wav","key_press":null,"block":1,"trial_type":"audio-keyboard-response","trial_index":228,"time_elapsed":2323834,"internal_node_id":"0.0-13.0-0.44","match_key":"l","participant_id":"35"},{"rt":null,"stimulus":"<p style=\"font-size: 48px;\">+</p>","key_press":null,"block":1,"trial_type":"html-keyboard-response","trial_index":229,"time_elapsed":2324831,"internal_node_id":"0.0-13.0-1.44","match_key":"l","participant_id":"35"},{"rt":698.5899999272078,"stimulus":"Images/whistle_2.png","key_press":76,"stim_onset":1583088262209,"block":1,"match_type":"match","image_category":"whistle","sound_category":"whistle","audio_type":"sound","phase":"test","trial_type":"image-keyboard-response","trial_index":230,"time_elapsed":2325531,"internal_node_id":"0.0-13.0-2.44","match_key":"l","participant_id":"35","correct":true},{"rt":null,"stimulus":"Sounds/correct.wav","key_press":null,"block":1,"trial_type":"audio-keyboard-response","trial_index":231,"time_elapsed":2327537,"internal_node_id":"0.0-13.0-3.44","match_key":"l","participant_id":"35"},{"rt":null,"stimulus":"Sounds/gun_sound.wav","key_press":null,"block":1,"trial_type":"audio-keyboard-response","trial_index":232,"time_elapsed":2328114,"internal_node_id":"0.0-13.0-0.45","match_key":"l","participant_id":"35"},{"rt":null,"stimulus":"<p style=\"font-size: 48px;\">+</p>","key_press":null,"block":1,"trial_type":"html-keyboard-response","trial_index":233,"time_elapsed":2329131,"internal_node_id":"0.0-13.0-1.45","match_key":"l","participant_id":"35"},{"rt":1070.575000019744,"stimulus":"Images/gun_cartoon.png","key_press":76,"stim_onset":1583088266510,"block":1,"match_type":"match","image_category":"gun","sound_category":"gun","audio_type":"sound","phase":"test","trial_type":"image-keyboard-response","trial_index":234,"time_elapsed":2330203,"internal_node_id":"0.0-13.0-2.45","match_key":"l","participant_id":"35","correct":true},{"rt":null,"stimulus":"Sounds/correct.wav","key_press":null,"block":1,"trial_type":"audio-keyboard-response","trial_index":235,"time_elapsed":2332218,"internal_node_id":"0.0-13.0-3.45","match_key":"l","participant_id":"35"},{"rt":null,"stimulus":"Sounds/gun_label.wav","key_press":null,"block":1,"trial_type":"audio-keyboard-response","trial_index":236,"time_elapsed":2332793,"internal_node_id":"0.0-13.0-0.46","match_key":"l","participant_id":"35"},{"rt":null,"stimulus":"<p style=\"font-size: 48px;\">+</p>","key_press":null,"block":1,"trial_type":"html-keyboard-response","trial_index":237,"time_elapsed":2333798,"internal_node_id":"0.0-13.0-1.46","match_key":"l","participant_id":"35"},{"rt":627.7400001417845,"stimulus":"Images/train_cartoon.png","key_press":65,"stim_onset":1583088271176,"block":1,"match_type":"non-match","image_category":"train","sound_category":"gun","audio_type":"label","phase":"test","trial_type":"image-keyboard-response","trial_index":238,"time_elapsed":2334427,"internal_node_id":"0.0-13.0-2.46","match_key":"l","participant_id":"35","correct":true},{"rt":null,"stimulus":"Sounds/correct.wav","key_press":null,"block":1,"trial_type":"audio-keyboard-response","trial_index":239,"time_elapsed":2336437,"internal_node_id":"0.0-13.0-3.46","match_key":"l","participant_id":"35"},{"rt":null,"stimulus":"Sounds/dog_sound.wav","key_press":null,"block":1,"trial_type":"audio-keyboard-response","trial_index":240,"time_elapsed":2337154,"internal_node_id":"0.0-13.0-0.47","match_key":"l","participant_id":"35"},{"rt":null,"stimulus":"<p style=\"font-size: 48px;\">+</p>","key_press":null,"block":1,"trial_type":"html-keyboard-response","trial_index":241,"time_elapsed":2338148,"internal_node_id":"0.0-13.0-1.47","match_key":"l","participant_id":"35"},{"rt":694.0600001253188,"stimulus":"Images/car_1.png","key_press":65,"stim_onset":1583088275526,"block":1,"match_type":"non-match","image_category":"car","sound_category":"dog","audio_type":"sound","phase":"test","trial_type":"image-keyboard-response","trial_index":242,"time_elapsed":2338843,"internal_node_id":"0.0-13.0-2.47","match_key":"l","participant_id":"35","correct":true},{"rt":null,"stimulus":"Sounds/correct.wav","key_press":null,"block":1,"trial_type":"audio-keyboard-response","trial_index":243,"time_elapsed":2340851,"internal_node_id":"0.0-13.0-3.47","match_key":"l","participant_id":"35"},{"rt":null,"stimulus":"Sounds/car_label.wav","key_press":null,"block":1,"trial_type":"audio-keyboard-response","trial_index":244,"time_elapsed":2341934,"internal_node_id":"0.0-13.0-0.48","match_key":"l","participant_id":"35"},{"rt":null,"stimulus":"<p style=\"font-size: 48px;\">+</p>","key_press":null,"block":1,"trial_type":"html-keyboard-response","trial_index":245,"time_elapsed":2342931,"internal_node_id":"0.0-13.0-1.48","match_key":"l","participant_id":"35"},{"rt":630.5849999189377,"stimulus":"Images/frog_cartoon.png","key_press":65,"stim_onset":1583088280309,"block":1,"match_type":"non-match","image_category":"frog","sound_category":"car","audio_type":"label","phase":"test","trial_type":"image-keyboard-response","trial_index":246,"time_elapsed":2343563,"internal_node_id":"0.0-13.0-2.48","match_key":"l","participant_id":"35","correct":true},{"rt":null,"stimulus":"Sounds/correct.wav","key_press":null,"block":1,"trial_type":"audio-keyboard-response","trial_index":247,"time_elapsed":2345569,"internal_node_id":"0.0-13.0-3.48","match_key":"l","participant_id":"35"},{"rt":null,"stimulus":"Sounds/cat_sound.wav","key_press":null,"block":1,"trial_type":"audio-keyboard-response","trial_index":248,"time_elapsed":2346414,"internal_node_id":"0.0-13.0-0.49","match_key":"l","participant_id":"35"},{"rt":null,"stimulus":"<p style=\"font-size: 48px;\">+</p>","key_press":null,"block":1,"trial_type":"html-keyboard-response","trial_index":249,"time_elapsed":2347431,"internal_node_id":"0.0-13.0-1.49","match_key":"l","participant_id":"35"},{"rt":610.6449998915195,"stimulus":"Images/dog_orig.png","key_press":65,"stim_onset":1583088284809,"block":1,"match_type":"non-match","image_category":"dog","sound_category":"cat","audio_type":"sound","phase":"test","trial_type":"image-keyboard-response","trial_index":250,"time_elapsed":2348043,"internal_node_id":"0.0-13.0-2.49","match_key":"l","participant_id":"35","correct":true},{"rt":null,"stimulus":"Sounds/correct.wav","key_press":null,"block":1,"trial_type":"audio-keyboard-response","trial_index":251,"time_elapsed":2350051,"internal_node_id":"0.0-13.0-3.49","match_key":"l","participant_id":"35"},{"rt":null,"stimulus":"Sounds/motorcycle_sound.wav","key_press":null,"block":1,"trial_type":"audio-keyboard-response","trial_index":252,"time_elapsed":2351173,"internal_node_id":"0.0-13.0-0.50","match_key":"l","participant_id":"35"},{"rt":null,"stimulus":"<p style=\"font-size: 48px;\">+</p>","key_press":null,"block":1,"trial_type":"html-keyboard-response","trial_index":253,"time_elapsed":2352164,"internal_node_id":"0.0-13.0-1.50","match_key":"l","participant_id":"35"},{"rt":581.1650000978261,"stimulus":"Images/whistle_1.png","key_press":65,"stim_onset":1583088289543,"block":1,"match_type":"non-match","image_category":"whistle","sound_category":"motorcycle","audio_type":"sound","phase":"test","trial_type":"image-keyboard-response","trial_index":254,"time_elapsed":2352747,"internal_node_id":"0.0-13.0-2.50","match_key":"l","participant_id":"35","correct":true},{"rt":null,"stimulus":"Sounds/correct.wav","key_press":null,"block":1,"trial_type":"audio-keyboard-response","trial_index":255,"time_elapsed":2354755,"internal_node_id":"0.0-13.0-3.50","match_key":"l","participant_id":"35"},{"rt":null,"stimulus":"Sounds/train_sound.wav","key_press":null,"block":1,"trial_type":"audio-keyboard-response","trial_index":256,"time_elapsed":2356054,"internal_node_id":"0.0-13.0-0.51","match_key":"l","participant_id":"35"},{"rt":null,"stimulus":"<p style=\"font-size: 48px;\">+</p>","key_press":null,"block":1,"trial_type":"html-keyboard-response","trial_index":257,"time_elapsed":2357048,"internal_node_id":"0.0-13.0-1.51","match_key":"l","participant_id":"35"},{"rt":689.7549999412149,"stimulus":"Images/cow_2.png","key_press":65,"stim_onset":1583088294426,"block":1,"match_type":"non-match","image_category":"cow","sound_category":"train","audio_type":"sound","phase":"test","trial_type":"image-keyboard-response","trial_index":258,"time_elapsed":2357739,"internal_node_id":"0.0-13.0-2.51","match_key":"l","participant_id":"35","correct":true},{"rt":null,"stimulus":"Sounds/correct.wav","key_press":null,"block":1,"trial_type":"audio-keyboard-response","trial_index":259,"time_elapsed":2359752,"internal_node_id":"0.0-13.0-3.51","match_key":"l","participant_id":"35"},{"rt":null,"stimulus":"Sounds/dog_sound.wav","key_press":null,"block":1,"trial_type":"audio-keyboard-response","trial_index":260,"time_elapsed":2360474,"internal_node_id":"0.0-13.0-0.52","match_key":"l","participant_id":"35"},{"rt":null,"stimulus":"<p style=\"font-size: 48px;\">+</p>","key_press":null,"block":1,"trial_type":"html-keyboard-response","trial_index":261,"time_elapsed":2361464,"internal_node_id":"0.0-13.0-1.52","match_key":"l","participant_id":"35"},{"rt":609.154999954626,"stimulus":"Images/gun_cartoon.png","key_press":65,"stim_onset":1583088298843,"block":1,"match_type":"non-match","image_category":"gun","sound_category":"dog","audio_type":"sound","phase":"test","trial_type":"image-keyboard-response","trial_index":262,"time_elapsed":2362075,"internal_node_id":"0.0-13.0-2.52","match_key":"l","participant_id":"35","correct":true},{"rt":null,"stimulus":"Sounds/correct.wav","key_press":null,"block":1,"trial_type":"audio-keyboard-response","trial_index":263,"time_elapsed":2364087,"internal_node_id":"0.0-13.0-3.52","match_key":"l","participant_id":"35"},{"rt":null,"stimulus":"Sounds/gun_label.wav","key_press":null,"block":1,"trial_type":"audio-keyboard-response","trial_index":264,"time_elapsed":2364674,"internal_node_id":"0.0-13.0-0.53","match_key":"l","participant_id":"35"},{"rt":null,"stimulus":"<p style=\"font-size: 48px;\">+</p>","key_press":null,"block":1,"trial_type":"html-keyboard-response","trial_index":265,"time_elapsed":2365664,"internal_node_id":"0.0-13.0-1.53","match_key":"l","participant_id":"35"},{"rt":600.8400002028793,"stimulus":"Images/cat_orig.png","key_press":65,"stim_onset":1583088303043,"block":1,"match_type":"non-match","image_category":"cat","sound_category":"gun","audio_type":"label","phase":"test","trial_type":"image-keyboard-response","trial_index":266,"time_elapsed":2366266,"internal_node_id":"0.0-13.0-2.53","match_key":"l","participant_id":"35","correct":true},{"rt":null,"stimulus":"Sounds/correct.wav","key_press":null,"block":1,"trial_type":"audio-keyboard-response","trial_index":267,"time_elapsed":2368270,"internal_node_id":"0.0-13.0-3.53","match_key":"l","participant_id":"35"},{"rt":null,"stimulus":"Sounds/cat_sound.wav","key_press":null,"block":1,"trial_type":"audio-keyboard-response","trial_index":268,"time_elapsed":2369113,"internal_node_id":"0.0-13.0-0.54","match_key":"l","participant_id":"35"},{"rt":null,"stimulus":"<p style=\"font-size: 48px;\">+</p>","key_press":null,"block":1,"trial_type":"html-keyboard-response","trial_index":269,"time_elapsed":2370148,"internal_node_id":"0.0-13.0-1.54","match_key":"l","participant_id":"35"},{"rt":709.4200002029538,"stimulus":"Images/car_cartoon.png","key_press":65,"stim_onset":1583088307526,"block":1,"match_type":"non-match","image_category":"car","sound_category":"cat","audio_type":"sound","phase":"test","trial_type":"image-keyboard-response","trial_index":270,"time_elapsed":2370858,"internal_node_id":"0.0-13.0-2.54","match_key":"l","participant_id":"35","correct":true},{"rt":null,"stimulus":"Sounds/correct.wav","key_press":null,"block":1,"trial_type":"audio-keyboard-response","trial_index":271,"time_elapsed":2372867,"internal_node_id":"0.0-13.0-3.54","match_key":"l","participant_id":"35"},{"rt":null,"stimulus":"Sounds/car_sound.wav","key_press":null,"block":1,"trial_type":"audio-keyboard-response","trial_index":272,"time_elapsed":2373953,"internal_node_id":"0.0-13.0-0.55","match_key":"l","participant_id":"35"},{"rt":null,"stimulus":"<p style=\"font-size: 48px;\">+</p>","key_press":null,"block":1,"trial_type":"html-keyboard-response","trial_index":273,"time_elapsed":2374948,"internal_node_id":"0.0-13.0-1.55","match_key":"l","participant_id":"35"},{"rt":1125.4249999765307,"stimulus":"Images/car_cartoon.png","key_press":76,"stim_onset":1583088312326,"block":1,"match_type":"match","image_category":"car","sound_category":"car","audio_type":"sound","phase":"test","trial_type":"image-keyboard-response","trial_index":274,"time_elapsed":2376074,"internal_node_id":"0.0-13.0-2.55","match_key":"l","participant_id":"35","correct":true},{"rt":null,"stimulus":"Sounds/correct.wav","key_press":null,"block":1,"trial_type":"audio-keyboard-response","trial_index":275,"time_elapsed":2378084,"internal_node_id":"0.0-13.0-3.55","match_key":"l","participant_id":"35"},{"rt":null,"stimulus":"Sounds/dog_sound.wav","key_press":null,"block":1,"trial_type":"audio-keyboard-response","trial_index":276,"time_elapsed":2378793,"internal_node_id":"0.0-13.0-0.56","match_key":"l","participant_id":"35"},{"rt":null,"stimulus":"<p style=\"font-size: 48px;\">+</p>","key_press":null,"block":1,"trial_type":"html-keyboard-response","trial_index":277,"time_elapsed":2379798,"internal_node_id":"0.0-13.0-1.56","match_key":"l","participant_id":"35"},{"rt":787.3299999628216,"stimulus":"Images/dog_3.png","key_press":76,"stim_onset":1583088317176,"block":1,"match_type":"match","image_category":"dog","sound_category":"dog","audio_type":"sound","phase":"test","trial_type":"image-keyboard-response","trial_index":278,"time_elapsed":2380586,"internal_node_id":"0.0-13.0-2.56","match_key":"l","participant_id":"35","correct":true},{"rt":null,"stimulus":"Sounds/correct.wav","key_press":null,"block":1,"trial_type":"audio-keyboard-response","trial_index":279,"time_elapsed":2382602,"internal_node_id":"0.0-13.0-3.56","match_key":"l","participant_id":"35"},{"rt":null,"stimulus":"Sounds/train_sound.wav","key_press":null,"block":1,"trial_type":"audio-keyboard-response","trial_index":280,"time_elapsed":2383893,"internal_node_id":"0.0-13.0-0.57","match_key":"l","participant_id":"35"},{"rt":null,"stimulus":"<p style=\"font-size: 48px;\">+</p>","key_press":null,"block":1,"trial_type":"html-keyboard-response","trial_index":281,"time_elapsed":2384898,"internal_node_id":"0.0-13.0-1.57","match_key":"l","participant_id":"35"},{"rt":471.40999999828637,"stimulus":"Images/train_cartoon.png","key_press":76,"stim_onset":1583088322276,"block":1,"match_type":"match","image_category":"train","sound_category":"train","audio_type":"sound","phase":"test","trial_type":"image-keyboard-response","trial_index":282,"time_elapsed":2385370,"internal_node_id":"0.0-13.0-2.57","match_key":"l","participant_id":"35","correct":true},{"rt":null,"stimulus":"Sounds/correct.wav","key_press":null,"block":1,"trial_type":"audio-keyboard-response","trial_index":283,"time_elapsed":2387387,"internal_node_id":"0.0-13.0-3.57","match_key":"l","participant_id":"35"},{"rt":null,"stimulus":"Sounds/cat_label.wav","key_press":null,"block":1,"trial_type":"audio-keyboard-response","trial_index":284,"time_elapsed":2388233,"internal_node_id":"0.0-13.0-0.58","match_key":"l","participant_id":"35"},{"rt":null,"stimulus":"<p style=\"font-size: 48px;\">+</p>","key_press":null,"block":1,"trial_type":"html-keyboard-response","trial_index":285,"time_elapsed":2389231,"internal_node_id":"0.0-13.0-1.58","match_key":"l","participant_id":"35"},{"rt":746.1800000164658,"stimulus":"Images/rooster_3.png","key_press":65,"stim_onset":1583088326610,"block":1,"match_type":"non-match","image_category":"rooster","sound_category":"cat","audio_type":"label","phase":"test","trial_type":"image-keyboard-response","trial_index":286,"time_elapsed":2389979,"internal_node_id":"0.0-13.0-2.58","match_key":"l","participant_id":"35","correct":true},{"rt":null,"stimulus":"Sounds/correct.wav","key_press":null,"block":1,"trial_type":"audio-keyboard-response","trial_index":287,"time_elapsed":2391987,"internal_node_id":"0.0-13.0-3.58","match_key":"l","participant_id":"35"},{"rt":null,"stimulus":"Sounds/cow_sound.wav","key_press":null,"block":1,"trial_type":"audio-keyboard-response","trial_index":288,"time_elapsed":2393013,"internal_node_id":"0.0-13.0-0.59","match_key":"l","participant_id":"35"},{"rt":null,"stimulus":"<p style=\"font-size: 48px;\">+</p>","key_press":null,"block":1,"trial_type":"html-keyboard-response","trial_index":289,"time_elapsed":2394031,"internal_node_id":"0.0-13.0-1.59","match_key":"l","participant_id":"35"},{"rt":521.9650000799447,"stimulus":"Images/motorcycle_3.png","key_press":65,"stim_onset":1583088331410,"block":1,"match_type":"non-match","image_category":"motorcycle","sound_category":"cow","audio_type":"sound","phase":"test","trial_type":"image-keyboard-response","trial_index":290,"time_elapsed":2394554,"internal_node_id":"0.0-13.0-2.59","match_key":"l","participant_id":"35","correct":true},{"rt":null,"stimulus":"Sounds/correct.wav","key_press":null,"block":1,"trial_type":"audio-keyboard-response","trial_index":291,"time_elapsed":2396569,"internal_node_id":"0.0-13.0-3.59","match_key":"l","participant_id":"35"},{"rt":null,"stimulus":"Sounds/cow_sound.wav","key_press":null,"block":1,"trial_type":"audio-keyboard-response","trial_index":292,"time_elapsed":2397553,"internal_node_id":"0.0-13.0-0.60","match_key":"l","participant_id":"35"},{"rt":null,"stimulus":"<p style=\"font-size: 48px;\">+</p>","key_press":null,"block":1,"trial_type":"html-keyboard-response","trial_index":293,"time_elapsed":2398548,"internal_node_id":"0.0-13.0-1.60","match_key":"l","participant_id":"35"},{"rt":533.1999999471009,"stimulus":"Images/frog_orig.png","key_press":65,"stim_onset":1583088335926,"block":1,"match_type":"non-match","image_category":"frog","sound_category":"cow","audio_type":"sound","phase":"test","trial_type":"image-keyboard-response","trial_index":294,"time_elapsed":2399082,"internal_node_id":"0.0-13.0-2.60","match_key":"l","participant_id":"35","correct":true},{"rt":null,"stimulus":"Sounds/correct.wav","key_press":null,"block":1,"trial_type":"audio-keyboard-response","trial_index":295,"time_elapsed":2401087,"internal_node_id":"0.0-13.0-3.60","match_key":"l","participant_id":"35"},{"rt":null,"stimulus":"Sounds/frog_sound.wav","key_press":null,"block":1,"trial_type":"audio-keyboard-response","trial_index":296,"time_elapsed":2401993,"internal_node_id":"0.0-13.0-0.61","match_key":"l","participant_id":"35"},{"rt":null,"stimulus":"<p style=\"font-size: 48px;\">+</p>","key_press":null,"block":1,"trial_type":"html-keyboard-response","trial_index":297,"time_elapsed":2402998,"internal_node_id":"0.0-13.0-1.61","match_key":"l","participant_id":"35"},{"rt":675.0099998898804,"stimulus":"Images/gun_orig.png","key_press":65,"stim_onset":1583088340376,"block":1,"match_type":"non-match","image_category":"gun","sound_category":"frog","audio_type":"sound","phase":"test","trial_type":"image-keyboard-response","trial_index":298,"time_elapsed":2403675,"internal_node_id":"0.0-13.0-2.61","match_key":"l","participant_id":"35","correct":true},{"rt":null,"stimulus":"Sounds/correct.wav","key_press":null,"block":1,"trial_type":"audio-keyboard-response","trial_index":299,"time_elapsed":2405686,"internal_node_id":"0.0-13.0-3.61","match_key":"l","participant_id":"35"},{"rt":null,"stimulus":"Sounds/gun_sound.wav","key_press":null,"block":1,"trial_type":"audio-keyboard-response","trial_index":300,"time_elapsed":2406273,"internal_node_id":"0.0-13.0-0.62","match_key":"l","participant_id":"35"},{"rt":null,"stimulus":"<p style=\"font-size: 48px;\">+</p>","key_press":null,"block":1,"trial_type":"html-keyboard-response","trial_index":301,"time_elapsed":2407265,"internal_node_id":"0.0-13.0-1.62","match_key":"l","participant_id":"35"},{"rt":872.6999999489635,"stimulus":"Images/gun_orig.png","key_press":76,"stim_onset":1583088344643,"block":1,"match_type":"match","image_category":"gun","sound_category":"gun","audio_type":"sound","phase":"test","trial_type":"image-keyboard-response","trial_index":302,"time_elapsed":2408139,"internal_node_id":"0.0-13.0-2.62","match_key":"l","participant_id":"35","correct":true},{"rt":null,"stimulus":"Sounds/correct.wav","key_press":null,"block":1,"trial_type":"audio-keyboard-response","trial_index":303,"time_elapsed":2410153,"internal_node_id":"0.0-13.0-3.62","match_key":"l","participant_id":"35"},{"rt":null,"stimulus":"Sounds/motorcycle_sound.wav","key_press":null,"block":1,"trial_type":"audio-keyboard-response","trial_index":304,"time_elapsed":2411273,"internal_node_id":"0.0-13.0-0.63","match_key":"l","participant_id":"35"},{"rt":null,"stimulus":"<p style=\"font-size: 48px;\">+</p>","key_press":null,"block":1,"trial_type":"html-keyboard-response","trial_index":305,"time_elapsed":2412265,"internal_node_id":"0.0-13.0-1.63","match_key":"l","participant_id":"35"},{"rt":624.525000108406,"stimulus":"Images/motorcycle_orig.png","key_press":76,"stim_onset":1583088349643,"block":1,"match_type":"match","image_category":"motorcycle","sound_category":"motorcycle","audio_type":"sound","phase":"test","trial_type":"image-keyboard-response","trial_index":306,"time_elapsed":2412890,"internal_node_id":"0.0-13.0-2.63","match_key":"l","participant_id":"35","correct":true},{"rt":null,"stimulus":"Sounds/correct.wav","key_press":null,"block":1,"trial_type":"audio-keyboard-response","trial_index":307,"time_elapsed":2414901,"internal_node_id":"0.0-13.0-3.63","match_key":"l","participant_id":"35"},{"rt":null,"stimulus":"Sounds/motorcycle_label.wav","key_press":null,"block":1,"trial_type":"audio-keyboard-response","trial_index":308,"time_elapsed":2416053,"internal_node_id":"0.0-13.0-0.64","match_key":"l","participant_id":"35"},{"rt":null,"stimulus":"<p style=\"font-size: 48px;\">+</p>","key_press":null,"block":1,"trial_type":"html-keyboard-response","trial_index":309,"time_elapsed":2417048,"internal_node_id":"0.0-13.0-1.64","match_key":"l","participant_id":"35"},{"rt":577.2949999663979,"stimulus":"Images/cow_3.png","key_press":65,"stim_onset":1583088354426,"block":1,"match_type":"non-match","image_category":"cow","sound_category":"motorcycle","audio_type":"label","phase":"test","trial_type":"image-keyboard-response","trial_index":310,"time_elapsed":2417627,"internal_node_id":"0.0-13.0-2.64","match_key":"l","participant_id":"35","correct":true},{"rt":null,"stimulus":"Sounds/correct.wav","key_press":null,"block":1,"trial_type":"audio-keyboard-response","trial_index":311,"time_elapsed":2419635,"internal_node_id":"0.0-13.0-3.64","match_key":"l","participant_id":"35"},{"rt":null,"stimulus":"Sounds/motorcycle_sound.wav","key_press":null,"block":1,"trial_type":"audio-keyboard-response","trial_index":312,"time_elapsed":2420733,"internal_node_id":"0.0-13.0-0.65","match_key":"l","participant_id":"35"},{"rt":null,"stimulus":"<p style=\"font-size: 48px;\">+</p>","key_press":null,"block":1,"trial_type":"html-keyboard-response","trial_index":313,"time_elapsed":2421732,"internal_node_id":"0.0-13.0-1.65","match_key":"l","participant_id":"35"},{"rt":853.6650000605732,"stimulus":"Images/train_3.png","key_press":65,"stim_onset":1583088359110,"block":1,"match_type":"non-match","image_category":"train","sound_category":"motorcycle","audio_type":"sound","phase":"test","trial_type":"image-keyboard-response","trial_index":314,"time_elapsed":2422586,"internal_node_id":"0.0-13.0-2.65","match_key":"l","participant_id":"35","correct":true},{"rt":null,"stimulus":"Sounds/correct.wav","key_press":null,"block":1,"trial_type":"audio-keyboard-response","trial_index":315,"time_elapsed":2424603,"internal_node_id":"0.0-13.0-3.65","match_key":"l","participant_id":"35"},{"rt":null,"stimulus":"Sounds/cow_sound.wav","key_press":null,"block":1,"trial_type":"audio-keyboard-response","trial_index":316,"time_elapsed":2425614,"internal_node_id":"0.0-13.0-0.66","match_key":"l","participant_id":"35"},{"rt":null,"stimulus":"<p style=\"font-size: 48px;\">+</p>","key_press":null,"block":1,"trial_type":"html-keyboard-response","trial_index":317,"time_elapsed":2426631,"internal_node_id":"0.0-13.0-1.66","match_key":"l","participant_id":"35"},{"rt":1089.5400000736117,"stimulus":"Images/rooster_2.png","key_press":65,"stim_onset":1583088364010,"block":1,"match_type":"non-match","image_category":"rooster","sound_category":"cow","audio_type":"sound","phase":"test","trial_type":"image-keyboard-response","trial_index":318,"time_elapsed":2427722,"internal_node_id":"0.0-13.0-2.66","match_key":"l","participant_id":"35","correct":true},{"rt":null,"stimulus":"Sounds/correct.wav","key_press":null,"block":1,"trial_type":"audio-keyboard-response","trial_index":319,"time_elapsed":2429734,"internal_node_id":"0.0-13.0-3.66","match_key":"l","participant_id":"35"},{"rt":null,"stimulus":"Sounds/cow_sound.wav","key_press":null,"block":1,"trial_type":"audio-keyboard-response","trial_index":320,"time_elapsed":2430733,"internal_node_id":"0.0-13.0-0.67","match_key":"l","participant_id":"35"},{"rt":null,"stimulus":"<p style=\"font-size: 48px;\">+</p>","key_press":null,"block":1,"trial_type":"html-keyboard-response","trial_index":321,"time_elapsed":2431732,"internal_node_id":"0.0-13.0-1.67","match_key":"l","participant_id":"35"},{"rt":597.5099999923259,"stimulus":"Images/cow_cartoon.png","key_press":76,"stim_onset":1583088369110,"block":1,"match_type":"match","image_category":"cow","sound_category":"cow","audio_type":"sound","phase":"test","trial_type":"image-keyboard-response","trial_index":322,"time_elapsed":2432330,"internal_node_id":"0.0-13.0-2.67","match_key":"l","participant_id":"35","correct":true},{"rt":null,"stimulus":"Sounds/correct.wav","key_press":null,"block":1,"trial_type":"audio-keyboard-response","trial_index":323,"time_elapsed":2434337,"internal_node_id":"0.0-13.0-3.67","match_key":"l","participant_id":"35"},{"rt":null,"stimulus":"Sounds/car_sound.wav","key_press":null,"block":1,"trial_type":"audio-keyboard-response","trial_index":324,"time_elapsed":2435413,"internal_node_id":"0.0-13.0-0.68","match_key":"l","participant_id":"35"},{"rt":null,"stimulus":"<p style=\"font-size: 48px;\">+</p>","key_press":null,"block":1,"trial_type":"html-keyboard-response","trial_index":325,"time_elapsed":2436415,"internal_node_id":"0.0-13.0-1.68","match_key":"l","participant_id":"35"},{"rt":714.1899999696761,"stimulus":"Images/car_2.png","key_press":76,"stim_onset":1583088373793,"block":1,"match_type":"match","image_category":"car","sound_category":"car","audio_type":"sound","phase":"test","trial_type":"image-keyboard-response","trial_index":326,"time_elapsed":2437130,"internal_node_id":"0.0-13.0-2.68","match_key":"l","participant_id":"35","correct":true},{"rt":null,"stimulus":"Sounds/correct.wav","key_press":null,"block":1,"trial_type":"audio-keyboard-response","trial_index":327,"time_elapsed":2439138,"internal_node_id":"0.0-13.0-3.68","match_key":"l","participant_id":"35"},{"rt":null,"stimulus":"Sounds/frog_sound.wav","key_press":null,"block":1,"trial_type":"audio-keyboard-response","trial_index":328,"time_elapsed":2440053,"internal_node_id":"0.0-13.0-0.69","match_key":"l","participant_id":"35"},{"rt":null,"stimulus":"<p style=\"font-size: 48px;\">+</p>","key_press":null,"block":1,"trial_type":"html-keyboard-response","trial_index":329,"time_elapsed":2441048,"internal_node_id":"0.0-13.0-1.69","match_key":"l","participant_id":"35"},{"rt":737.1149999089539,"stimulus":"Images/frog_cartoon.png","key_press":76,"stim_onset":1583088378426,"block":1,"match_type":"match","image_category":"frog","sound_category":"frog","audio_type":"sound","phase":"test","trial_type":"image-keyboard-response","trial_index":330,"time_elapsed":2441786,"internal_node_id":"0.0-13.0-2.69","match_key":"l","participant_id":"35","correct":true},{"rt":null,"stimulus":"Sounds/correct.wav","key_press":null,"block":1,"trial_type":"audio-keyboard-response","trial_index":331,"time_elapsed":2443803,"internal_node_id":"0.0-13.0-3.69","match_key":"l","participant_id":"35"},{"rt":null,"stimulus":"Sounds/gun_sound.wav","key_press":null,"block":1,"trial_type":"audio-keyboard-response","trial_index":332,"time_elapsed":2444373,"internal_node_id":"0.0-13.0-0.70","match_key":"l","participant_id":"35"},{"rt":null,"stimulus":"<p style=\"font-size: 48px;\">+</p>","key_press":null,"block":1,"trial_type":"html-keyboard-response","trial_index":333,"time_elapsed":2445365,"internal_node_id":"0.0-13.0-1.70","match_key":"l","participant_id":"35"},{"rt":643.9050000626594,"stimulus":"Images/gun_1.png","key_press":76,"stim_onset":1583088382743,"block":1,"match_type":"match","image_category":"gun","sound_category":"gun","audio_type":"sound","phase":"test","trial_type":"image-keyboard-response","trial_index":334,"time_elapsed":2446010,"internal_node_id":"0.0-13.0-2.70","match_key":"l","participant_id":"35","correct":true},{"rt":null,"stimulus":"Sounds/correct.wav","key_press":null,"block":1,"trial_type":"audio-keyboard-response","trial_index":335,"time_elapsed":2448018,"internal_node_id":"0.0-13.0-3.70","match_key":"l","participant_id":"35"},{"rt":null,"stimulus":"Sounds/rooster_label.wav","key_press":null,"block":1,"trial_type":"audio-keyboard-response","trial_index":336,"time_elapsed":2448713,"internal_node_id":"0.0-13.0-0.71","match_key":"l","participant_id":"35"},{"rt":null,"stimulus":"<p style=\"font-size: 48px;\">+</p>","key_press":null,"block":1,"trial_type":"html-keyboard-response","trial_index":337,"time_elapsed":2449715,"internal_node_id":"0.0-13.0-1.71","match_key":"l","participant_id":"35"},{"rt":789.9849999230355,"stimulus":"Images/rooster_cartoon.png","key_press":76,"stim_onset":1583088387093,"block":1,"match_type":"match","image_category":"rooster","sound_category":"rooster","audio_type":"label","phase":"test","trial_type":"image-keyboard-response","trial_index":338,"time_elapsed":2450506,"internal_node_id":"0.0-13.0-2.71","match_key":"l","participant_id":"35","correct":true},{"rt":null,"stimulus":"Sounds/correct.wav","key_press":null,"block":1,"trial_type":"audio-keyboard-response","trial_index":339,"time_elapsed":2452519,"internal_node_id":"0.0-13.0-3.71","match_key":"l","participant_id":"35"},{"rt":null,"stimulus":"Sounds/cow_sound.wav","key_press":null,"block":1,"trial_type":"audio-keyboard-response","trial_index":340,"time_elapsed":2453534,"internal_node_id":"0.0-13.0-0.72","match_key":"l","participant_id":"35"},{"rt":null,"stimulus":"<p style=\"font-size: 48px;\">+</p>","key_press":null,"block":1,"trial_type":"html-keyboard-response","trial_index":341,"time_elapsed":2454532,"internal_node_id":"0.0-13.0-1.72","match_key":"l","participant_id":"35"},{"rt":469.7050000540912,"stimulus":"Images/cow_3.png","key_press":76,"stim_onset":1583088391910,"block":1,"match_type":"match","image_category":"cow","sound_category":"cow","audio_type":"sound","phase":"test","trial_type":"image-keyboard-response","trial_index":342,"time_elapsed":2455002,"internal_node_id":"0.0-13.0-2.72","match_key":"l","participant_id":"35","correct":true},{"rt":null,"stimulus":"Sounds/correct.wav","key_press":null,"block":1,"trial_type":"audio-keyboard-response","trial_index":343,"time_elapsed":2457019,"internal_node_id":"0.0-13.0-3.72","match_key":"l","participant_id":"35"},{"rt":null,"stimulus":"Sounds/car_label.wav","key_press":null,"block":1,"trial_type":"audio-keyboard-response","trial_index":344,"time_elapsed":2458093,"internal_node_id":"0.0-13.0-0.73","match_key":"l","participant_id":"35"},{"rt":null,"stimulus":"<p style=\"font-size: 48px;\">+</p>","key_press":null,"block":1,"trial_type":"html-keyboard-response","trial_index":345,"time_elapsed":2459098,"internal_node_id":"0.0-13.0-1.73","match_key":"l","participant_id":"35"},{"rt":574.544999981299,"stimulus":"Images/car_orig.png","key_press":76,"stim_onset":1583088396477,"block":1,"match_type":"match","image_category":"car","sound_category":"car","audio_type":"label","phase":"test","trial_type":"image-keyboard-response","trial_index":346,"time_elapsed":2459674,"internal_node_id":"0.0-13.0-2.73","match_key":"l","participant_id":"35","correct":true},{"rt":null,"stimulus":"Sounds/correct.wav","key_press":null,"block":1,"trial_type":"audio-keyboard-response","trial_index":347,"time_elapsed":2461685,"internal_node_id":"0.0-13.0-3.73","match_key":"l","participant_id":"35"},{"rt":null,"stimulus":"Sounds/frog_label.wav","key_press":null,"block":1,"trial_type":"audio-keyboard-response","trial_index":348,"time_elapsed":2462593,"internal_node_id":"0.0-13.0-0.74","match_key":"l","participant_id":"35"},{"rt":null,"stimulus":"<p style=\"font-size: 48px;\">+</p>","key_press":null,"block":1,"trial_type":"html-keyboard-response","trial_index":349,"time_elapsed":2463582,"internal_node_id":"0.0-13.0-1.74","match_key":"l","participant_id":"35"},{"rt":667.284999974072,"stimulus":"Images/rooster_1.png","key_press":65,"stim_onset":1583088400960,"block":1,"match_type":"non-match","image_category":"rooster","sound_category":"frog","audio_type":"label","phase":"test","trial_type":"image-keyboard-response","trial_index":350,"time_elapsed":2464250,"internal_node_id":"0.0-13.0-2.74","match_key":"l","participant_id":"35","correct":true},{"rt":null,"stimulus":"Sounds/correct.wav","key_press":null,"block":1,"trial_type":"audio-keyboard-response","trial_index":351,"time_elapsed":2466254,"internal_node_id":"0.0-13.0-3.74","match_key":"l","participant_id":"35"},{"rt":null,"stimulus":"Sounds/train_sound.wav","key_press":null,"block":1,"trial_type":"audio-keyboard-response","trial_index":352,"time_elapsed":2467554,"internal_node_id":"0.0-13.0-0.75","match_key":"l","participant_id":"35"},{"rt":null,"stimulus":"<p style=\"font-size: 48px;\">+</p>","key_press":null,"block":1,"trial_type":"html-keyboard-response","trial_index":353,"time_elapsed":2468549,"internal_node_id":"0.0-13.0-1.75","match_key":"l","participant_id":"35"},{"rt":1348.8549999892712,"stimulus":"Images/rooster_cartoon.png","key_press":65,"stim_onset":1583088405927,"block":1,"match_type":"non-match","image_category":"rooster","sound_category":"train","audio_type":"sound","phase":"test","trial_type":"image-keyboard-response","trial_index":354,"time_elapsed":2469898,"internal_node_id":"0.0-13.0-2.75","match_key":"l","participant_id":"35","correct":true},{"rt":null,"stimulus":"Sounds/correct.wav","key_press":null,"block":1,"trial_type":"audio-keyboard-response","trial_index":355,"time_elapsed":2471915,"internal_node_id":"0.0-13.0-3.75","match_key":"l","participant_id":"35"},{"rt":null,"stimulus":"Sounds/motorcycle_label.wav","key_press":null,"block":1,"trial_type":"audio-keyboard-response","trial_index":356,"time_elapsed":2473033,"internal_node_id":"0.0-13.0-0.76","match_key":"l","participant_id":"35"},{"rt":null,"stimulus":"<p style=\"font-size: 48px;\">+</p>","key_press":null,"block":1,"trial_type":"html-keyboard-response","trial_index":357,"time_elapsed":2474032,"internal_node_id":"0.0-13.0-1.76","match_key":"l","participant_id":"35"},{"rt":921.1349999532104,"stimulus":"Images/frog_1.png","key_press":65,"stim_onset":1583088411410,"block":1,"match_type":"non-match","image_category":"frog","sound_category":"motorcycle","audio_type":"label","phase":"test","trial_type":"image-keyboard-response","trial_index":358,"time_elapsed":2474954,"internal_node_id":"0.0-13.0-2.76","match_key":"l","participant_id":"35","correct":true},{"rt":null,"stimulus":"Sounds/correct.wav","key_press":null,"block":1,"trial_type":"audio-keyboard-response","trial_index":359,"time_elapsed":2476970,"internal_node_id":"0.0-13.0-3.76","match_key":"l","participant_id":"35"},{"rt":null,"stimulus":"Sounds/gun_label.wav","key_press":null,"block":1,"trial_type":"audio-keyboard-response","trial_index":360,"time_elapsed":2477553,"internal_node_id":"0.0-13.0-0.77","match_key":"l","participant_id":"35"},{"rt":null,"stimulus":"<p style=\"font-size: 48px;\">+</p>","key_press":null,"block":1,"trial_type":"html-keyboard-response","trial_index":361,"time_elapsed":2478549,"internal_node_id":"0.0-13.0-1.77","match_key":"l","participant_id":"35"},{"rt":964.2300000414252,"stimulus":"Images/frog_3.png","key_press":65,"stim_onset":1583088415927,"block":1,"match_type":"non-match","image_category":"frog","sound_category":"gun","audio_type":"label","phase":"test","trial_type":"image-keyboard-response","trial_index":362,"time_elapsed":2479514,"internal_node_id":"0.0-13.0-2.77","match_key":"l","participant_id":"35","correct":true},{"rt":null,"stimulus":"Sounds/correct.wav","key_press":null,"block":1,"trial_type":"audio-keyboard-response","trial_index":363,"time_elapsed":2481523,"internal_node_id":"0.0-13.0-3.77","match_key":"l","participant_id":"35"},{"rt":null,"stimulus":"Sounds/dog_sound.wav","key_press":null,"block":1,"trial_type":"audio-keyboard-response","trial_index":364,"time_elapsed":2482233,"internal_node_id":"0.0-13.0-0.78","match_key":"l","participant_id":"35"},{"rt":null,"stimulus":"<p style=\"font-size: 48px;\">+</p>","key_press":null,"block":1,"trial_type":"html-keyboard-response","trial_index":365,"time_elapsed":2483232,"internal_node_id":"0.0-13.0-1.78","match_key":"l","participant_id":"35"},{"rt":649.3249998893589,"stimulus":"Images/frog_2.png","key_press":65,"sti