"rt","responses","trial_type","trial_index","time_elapsed","internal_node_id","match_key","participant_id","stimulus","key_press","block","stim_onset","match_type","image_category","sound_category","audio_type","phase","correct"
"18992.87000000004","{""Q0"":""38""}","survey-text","0","19039","0.0-0.0","l","38","","","","","","","","","",""
"45329.09500000005","","html-keyboard-response","1","64384","0.0-1.0","l","38","<p>Use KEYBOARD 1 (match RIGHT)</p><p>Press MATCH to continue.</p>","76","","","","","","","",""
"2053233.7399999995","","html-keyboard-response","2","2117621","0.0-2.0","l","38","<p>Welcome to the experiment.</p>","76","","","","","","","",""
"9496.80499999877","","html-keyboard-response","3","2127124","0.0-3.0","l","38","<p>Thank you for agreeing to participate in this study.</p><p>If during any part of the procedure you must stop for any reason, please inform the researcher that you do not wish to continue.</p>","76","","","","","","","",""
"14654.77000000095","","html-keyboard-response","4","2141780","0.0-4.0","l","38","<p>In this experiment, you will hear various words or sounds and see pictures of various animals and objects.</p><p>Most of the images will be of common everyday objects, such as cars, cats, cows, firearms, frogs, chickens, whistles, trains, motorcycles, and dogs.</p><p>Some of the images will be real-life stills, while others will be cartoons.</p>","76","","","","","","","",""
"12286.679999999236","","html-keyboard-response","5","2154068","0.0-5.0","l","38","<p>Sometimes, the word/sound will match the picture, for example you'll hear a meowing sound and see a cat.</p><p>Other times, the picture will not match the sound or word.</p><p>Your task is to decide as quickly as possible if the word/sound matches the picture or not. </p>","76","","","","","","","",""
"11118.855000000447","","html-keyboard-response","6","2165181","0.0-6.0","l","38","<p>For example, if you hear the word ""cat"" or hear a meowing sound, and then see a picture of a cat, you should press the MATCH key.</p><p> If the sound and image do not match, press the NOT-MATCH key to indicate that there is not a match.</p>","65","","","","","","","",""
"10062.764999998733","","html-keyboard-response","7","2175246","0.0-7.0","l","38","<p>If you make a mistake, you will hear a buzzing sound instead of a more pleasant sound.</p><p> Try to respond as quickly as possible, while making as few errors as possible. If you are making mistakes, you are probably rushing.</p>","76","","","","","","","",""
"9693.98499999987","","html-keyboard-response","8","2184941","0.0-8.0","l","38","<p>Please try to not move or blink your eyes during the presentation of the images. You can move and blink between images.</p><p>During the experiment there will be some breaks during which you can rest your eyes.</p>","76","","","","","","","",""
"7742.810000000056","","html-keyboard-response","9","2192685","0.0-9.0","l","38","<p>We will begin with 10 practice trials. Please let the experimenter know if you have any questions.</p>","76","","","","","","","",""
"null","","audio-keyboard-response","10","2193623","0.0-10.0-0.0","l","38","Sounds/cat_sound.wav","null","0","","","","","","",""
"null","","html-keyboard-response","11","2194627","0.0-10.0-1.0","l","38","<p style=""font-size: 48px;"">+</p>","null","0","","","","","","",""
"535.8450000002049","","image-keyboard-response","12","2195165","0.0-10.0-2.0","l","38","Images/cat_cartoon.png","76","0","1583116895919","match","cat","cat","sound","practice","true"
"null","","audio-keyboard-response","13","2197170","0.0-10.0-3.0","l","38","Sounds/correct.wav","null","0","","","","","","",""
"null","","audio-keyboard-response","14","2198283","0.0-10.0-0.1","l","38","Sounds/motorcycle_sound.wav","null","0","","","","","","",""
"null","","html-keyboard-response","15","2199277","0.0-10.0-1.1","l","38","<p style=""font-size: 48px;"">+</p>","null","0","","","","","","",""
"526.3649999997579","","image-keyboard-response","16","2199805","0.0-10.0-2.1","l","38","Images/dog_2.png","65","0","1583116900569","non-match","dog","motorcycle","sound","practice","true"
"null","","audio-keyboard-response","17","2201818","0.0-10.0-3.1","l","38","Sounds/correct.wav","null","0","","","","","","",""
"null","","audio-keyboard-response","18","2203123","0.0-10.0-0.2","l","38","Sounds/train_sound.wav","null","0","","","","","","",""
"null","","html-keyboard-response","19","2204127","0.0-10.0-1.2","l","38","<p style=""font-size: 48px;"">+</p>","null","0","","","","","","",""
"556.8249999997206","","image-keyboard-response","20","2204685","0.0-10.0-2.2","l","38","Images/train_3.png","76","0","1583116905419","match","train","train","sound","practice","true"
"null","","audio-keyboard-response","21","2206699","0.0-10.0-3.2","l","38","Sounds/correct.wav","null","0","","","","","","",""
"null","","audio-keyboard-response","22","2207603","0.0-10.0-0.3","l","38","Sounds/frog_label.wav","null","0","","","","","","",""
"null","","html-keyboard-response","23","2208594","0.0-10.0-1.3","l","38","<p style=""font-size: 48px;"">+</p>","null","0","","","","","","",""
"393.70999999996275","","image-keyboard-response","24","2208989","0.0-10.0-2.3","l","38","Images/frog_2.png","76","0","1583116909886","match","frog","frog","label","practice","true"
"null","","audio-keyboard-response","25","2210996","0.0-10.0-3.3","l","38","Sounds/correct.wav","null","0","","","","","","",""
"null","","audio-keyboard-response","26","2212023","0.0-10.0-0.4","l","38","Sounds/cow_sound.wav","null","0","","","","","","",""
"null","","html-keyboard-response","27","2213027","0.0-10.0-1.4","l","38","<p style=""font-size: 48px;"">+</p>","null","0","","","","","","",""
"504.38500000024214","","image-keyboard-response","28","2213533","0.0-10.0-2.4","l","38","Images/cow_cartoon.png","76","0","1583116914319","match","cow","cow","sound","practice","true"
"null","","audio-keyboard-response","29","2215538","0.0-10.0-3.4","l","38","Sounds/correct.wav","null","0","","","","","","",""
"null","","audio-keyboard-response","30","2216203","0.0-10.0-0.5","l","38","Sounds/dog_label.wav","null","0","","","","","","",""
"null","","html-keyboard-response","31","2217194","0.0-10.0-1.5","l","38","<p style=""font-size: 48px;"">+</p>","null","0","","","","","","",""
"513.75","","image-keyboard-response","32","2217709","0.0-10.0-2.5","l","38","Images/dog_orig.png","76","0","1583116918486","match","dog","dog","label","practice","true"
"null","","audio-keyboard-response","33","2219720","0.0-10.0-3.5","l","38","Sounds/correct.wav","null","0","","","","","","",""
"null","","audio-keyboard-response","34","2220423","0.0-10.0-0.6","l","38","Sounds/rooster_label.wav","null","0","","","","","","",""
"null","","html-keyboard-response","35","2221427","0.0-10.0-1.6","l","38","<p style=""font-size: 48px;"">+</p>","null","0","","","","","","",""
"424.00499999849126","","image-keyboard-response","36","2221853","0.0-10.0-2.6","l","38","Images/dog_1.png","65","0","1583116922719","non-match","dog","rooster","label","practice","true"
"null","","audio-keyboard-response","37","2223860","0.0-10.0-3.6","l","38","Sounds/correct.wav","null","0","","","","","","",""
"null","","audio-keyboard-response","38","2224563","0.0-10.0-0.7","l","38","Sounds/whistle_sound.wav","null","0","","","","","","",""
"null","","html-keyboard-response","39","2225568","0.0-10.0-1.7","l","38","<p style=""font-size: 48px;"">+</p>","null","0","","","","","","",""
"771.0200000000186","","image-keyboard-response","40","2226341","0.0-10.0-2.7","l","38","Images/car_cartoon.png","65","0","1583116926861","non-match","car","whistle","sound","practice","true"
"null","","audio-keyboard-response","41","2228344","0.0-10.0-3.7","l","38","Sounds/correct.wav","null","0","","","","","","",""
"null","","audio-keyboard-response","42","2229011","0.0-10.0-0.8","l","38","Sounds/rooster_label.wav","null","0","","","","","","",""
"null","","html-keyboard-response","43","2230002","0.0-10.0-1.8","l","38","<p style=""font-size: 48px;"">+</p>","null","0","","","","","","",""
"449.5499999993481","","image-keyboard-response","44","2230453","0.0-10.0-2.8","l","38","Images/whistle_2.png","65","0","1583116931294","non-match","whistle","rooster","label","practice","true"
"null","","audio-keyboard-response","45","2232467","0.0-10.0-3.8","l","38","Sounds/correct.wav","null","0","","","","","","",""
"null","","audio-keyboard-response","46","2233171","0.0-10.0-0.9","l","38","Sounds/rooster_sound.wav","null","0","","","","","","",""
"null","","html-keyboard-response","47","2234169","0.0-10.0-1.9","l","38","<p style=""font-size: 48px;"">+</p>","null","0","","","","","","",""
"874.8100000014529","","image-keyboard-response","48","2235045","0.0-10.0-2.9","l","38","Images/gun_orig.png","65","0","1583116935461","non-match","gun","rooster","sound","practice","true"
"null","","audio-keyboard-response","49","2237051","0.0-10.0-3.9","l","38","Sounds/correct.wav","null","0","","","","","","",""
"56442.03500000015","","html-keyboard-response","50","2293480","0.0-11.0","l","38","<p>The rest of the experiment is divided into five blocks with 100 trials in each block. It will take about 45 minutes to complete.</p><p>The experimenter will be in the outer room and you can communicate with them through the monitor if you have any questions or wish to stop the experiment.</p>","76","","","","","","","",""
"2189.6049999999814","","html-keyboard-response","51","2295670","0.0-12.0","l","38","<p>Remember, please try not to move or blink your eyes during the presentation of the images. </p><p>At the end of the experiment, we will show you your scores on the task so you can see how you did.</p><p>The experiment will start on the next screen.</p>","76","","","","","","","",""
"null","","audio-keyboard-response","52","2298961","0.0-13.0-0.0","l","38","Sounds/train_label.wav","null","1","","","","","","",""
"null","","html-keyboard-response","53","2299955","0.0-13.0-1.0","l","38","<p style=""font-size: 48px;"">+</p>","null","1","","","","","","",""
"562.1650000009686","","image-keyboard-response","54","2300519","0.0-13.0-2.0","l","38","Images/whistle_1.png","65","1","1583117001247","non-match","whistle","train","label","test","true"
"null","","audio-keyboard-response","55","2302529","0.0-13.0-3.0","l","38","Sounds/correct.wav","null","1","","","","","","",""
"null","","audio-keyboard-response","56","2303543","0.0-13.0-0.1","l","38","Sounds/cow_sound.wav","null","1","","","","","","",""
"null","","html-keyboard-response","57","2304538","0.0-13.0-1.1","l","38","<p style=""font-size: 48px;"">+</p>","null","1","","","","","","",""
"555.0449999989942","","image-keyboard-response","58","2305095","0.0-13.0-2.1","l","38","Images/cow_3.png","76","1","1583117005831","match","cow","cow","sound","test","true"
"null","","audio-keyboard-response","59","2307098","0.0-13.0-3.1","l","38","Sounds/correct.wav","null","1","","","","","","",""
"null","","audio-keyboard-response","60","2308121","0.0-13.0-0.2","l","38","Sounds/cow_label.wav","null","1","","","","","","",""
"null","","html-keyboard-response","61","2309139","0.0-13.0-1.2","l","38","<p style=""font-size: 48px;"">+</p>","null","1","","","","","","",""
"610.7399999997579","","image-keyboard-response","62","2309751","0.0-13.0-2.2","l","38","Images/cow_orig.png","76","1","1583117010431","match","cow","cow","label","test","true"
"null","","audio-keyboard-response","63","2311760","0.0-13.0-3.2","l","38","Sounds/correct.wav","null","1","","","","","","",""
"null","","audio-keyboard-response","64","2312881","0.0-13.0-0.3","l","38","Sounds/motorcycle_sound.wav","null","1","","","","","","",""
"null","","html-keyboard-response","65","2313872","0.0-13.0-1.3","l","38","<p style=""font-size: 48px;"">+</p>","null","1","","","","","","",""
"597.2899999995716","","image-keyboard-response","66","2314470","0.0-13.0-2.3","l","38","Images/motorcycle_cartoon.png","76","1","1583117015164","match","motorcycle","motorcycle","sound","test","true"
"null","","audio-keyboard-response","67","2316474","0.0-13.0-3.3","l","38","Sounds/correct.wav","null","1","","","","","","",""
"null","","audio-keyboard-response","68","2317181","0.0-13.0-0.4","l","38","Sounds/whistle_sound.wav","null","1","","","","","","",""
"null","","html-keyboard-response","69","2318189","0.0-13.0-1.4","l","38","<p style=""font-size: 48px;"">+</p>","null","1","","","","","","",""
"632.8549999999814","","image-keyboard-response","70","2318823","0.0-13.0-2.4","l","38","Images/whistle_cartoon.png","76","1","1583117019481","match","whistle","whistle","sound","test","true"
"null","","audio-keyboard-response","71","2320826","0.0-13.0-3.4","l","38","Sounds/correct.wav","null","1","","","","","","",""
"null","","audio-keyboard-response","72","2321901","0.0-13.0-0.5","l","38","Sounds/car_label.wav","null","1","","","","","","",""
"null","","html-keyboard-response","73","2322905","0.0-13.0-1.5","l","38","<p style=""font-size: 48px;"">+</p>","null","1","","","","","","",""
"572.1450000000186","","image-keyboard-response","74","2323479","0.0-13.0-2.5","l","38","Images/car_orig.png","76","1","1583117024198","match","car","car","label","test","true"
"null","","audio-keyboard-response","75","2325482","0.0-13.0-3.5","l","38","Sounds/correct.wav","null","1","","","","","","",""
"null","","audio-keyboard-response","76","2326061","0.0-13.0-0.6","l","38","Sounds/gun_sound.wav","null","1","","","","","","",""
"null","","html-keyboard-response","77","2327055","0.0-13.0-1.6","l","38","<p style=""font-size: 48px;"">+</p>","null","1","","","","","","",""
"437.9350000000559","","image-keyboard-response","78","2327494","0.0-13.0-2.6","l","38","Images/gun_orig.png","76","1","1583117028348","match","gun","gun","sound","test","true"
"null","","audio-keyboard-response","79","2329504","0.0-13.0-3.6","l","38","Sounds/correct.wav","null","1","","","","","","",""
"null","","audio-keyboard-response","80","2330181","0.0-13.0-0.7","l","38","Sounds/whistle_sound.wav","null","1","","","","","","",""
"null","","html-keyboard-response","81","2331172","0.0-13.0-1.7","l","38","<p style=""font-size: 48px;"">+</p>","null","1","","","","","","",""
"465.4250000002794","","image-keyboard-response","82","2331639","0.0-13.0-2.7","l","38","Images/car_1.png","65","1","1583117032464","non-match","car","whistle","sound","test","true"
"null","","audio-keyboard-response","83","2333652","0.0-13.0-3.7","l","38","Sounds/correct.wav","null","1","","","","","","",""
"null","","audio-keyboard-response","84","2334661","0.0-13.0-0.8","l","38","Sounds/cow_label.wav","null","1","","","","","","",""
"null","","html-keyboard-response","85","2335655","0.0-13.0-1.8","l","38","<p style=""font-size: 48px;"">+</p>","null","1","","","","","","",""
"685.9849999998696","","image-keyboard-response","86","2336343","0.0-13.0-2.8","l","38","Images/frog_cartoon.png","65","1","1583117036948","non-match","frog","cow","label","test","true"
"null","","audio-keyboard-response","87","2338357","0.0-13.0-3.8","l","38","Sounds/correct.wav","null","1","","","","","","",""
"null","","audio-keyboard-response","88","2339061","0.0-13.0-0.9","l","38","Sounds/rooster_sound.wav","null","1","","","","","","",""
"null","","html-keyboard-response","89","2340056","0.0-13.0-1.9","l","38","<p style=""font-size: 48px;"">+</p>","null","1","","","","","","",""
"653.7349999998696","","image-keyboard-response","90","2340710","0.0-13.0-2.9","l","38","Images/whistle_orig.png","65","1","1583117041348","non-match","whistle","rooster","sound","test","true"
"null","","audio-keyboard-response","91","2342722","0.0-13.0-3.9","l","38","Sounds/correct.wav","null","1","","","","","","",""
"null","","audio-keyboard-response","92","2344021","0.0-13.0-0.10","l","38","Sounds/train_sound.wav","null","1","","","","","","",""
"null","","html-keyboard-response","93","2345056","0.0-13.0-1.10","l","38","<p style=""font-size: 48px;"">+</p>","null","1","","","","","","",""
"486.00000000046566","","image-keyboard-response","94","2345543","0.0-13.0-2.10","l","38","Images/cat_2.png","65","1","1583117046348","non-match","cat","train","sound","test","true"
"null","","audio-keyboard-response","95","2347548","0.0-13.0-3.10","l","38","Sounds/correct.wav","null","1","","","","","","",""
"null","","audio-keyboard-response","96","2348241","0.0-13.0-0.11","l","38","Sounds/rooster_label.wav","null","1","","","","","","",""
"null","","html-keyboard-response","97","2349239","0.0-13.0-1.11","l","38","<p style=""font-size: 48px;"">+</p>","null","1","","","","","","",""
"430.4800000009127","","image-keyboard-response","98","2349671","0.0-13.0-2.11","l","38","Images/rooster_cartoon.png","76","1","1583117050531","match","rooster","rooster","label","test","true"
"null","","audio-keyboard-response","99","2351684","0.0-13.0-3.11","l","38","Sounds/correct.wav","null","1","","","","","","",""
"null","","audio-keyboard-response","100","2352701","0.0-13.0-0.12","l","38","Sounds/cow_label.wav","null","1","","","","","","",""
"null","","html-keyboard-response","101","2353721","0.0-13.0-1.12","l","38","<p style=""font-size: 48px;"">+</p>","null","1","","","","","","",""
"539.8700000005774","","image-keyboard-response","102","2354262","0.0-13.0-2.12","l","38","Images/dog_2.png","65","1","1583117055013","non-match","dog","cow","label","test","true"
"null","","audio-keyboard-response","103","2356275","0.0-13.0-3.12","l","38","Sounds/correct.wav","null","1","","","","","","",""
"null","","audio-keyboard-response","104","2357357","0.0-13.0-0.13","l","38","Sounds/car_label.wav","null","1","","","","","","",""
"null","","html-keyboard-response","105","2358354","0.0-13.0-1.13","l","38","<p style=""font-size: 48px;"">+</p>","null","1","","","","","","",""
"466.4599999994971","","image-keyboard-response","106","2358822","0.0-13.0-2.13","l","38","Images/rooster_orig.png","65","1","1583117059647","non-match","rooster","car","label","test","true"
"null","","audio-keyboard-response","107","2360826","0.0-13.0-3.13","l","38","Sounds/correct.wav","null","1","","","","","","",""
"null","","audio-keyboard-response","108","2361837","0.0-13.0-0.14","l","38","Sounds/cow_sound.wav","null","1","","","","","","",""
"null","","html-keyboard-response","109","2362854","0.0-13.0-1.14","l","38","<p style=""font-size: 48px;"">+</p>","null","1","","","","","","",""
"587.2649999996647","","image-keyboard-response","110","2363446","0.0-13.0-2.14","l","38","Images/rooster_cartoon.png","65","1","1583117064147","non-match","rooster","cow","sound","test","true"
"null","","audio-keyboard-response","111","2365457","0.0-13.0-3.14","l","38","Sounds/correct.wav","null","1","","","","","","",""
"null","","audio-keyboard-response","112","2366157","0.0-13.0-0.15","l","38","Sounds/rooster_sound.wav","null","1","","","","","","",""
"null","","html-keyboard-response","113","2367155","0.0-13.0-1.15","l","38","<p style=""font-size: 48px;"">+</p>","null","1","","","","","","",""
"690.3349999990314","","image-keyboard-response","114","2367846","0.0-13.0-2.15","l","38","Images/rooster_1.png","76","1","1583117068447","match","rooster","rooster","sound","test","true"
"null","","audio-keyboard-response","115","2369852","0.0-13.0-3.15","l","38","Sounds/correct.wav","null","1","","","","","","",""
"null","","audio-keyboard-response","116","2370977","0.0-13.0-0.16","l","38","Sounds/motorcycle_sound.wav","null","1","","","","","","",""
"null","","html-keyboard-response","117","2371971","0.0-13.0-1.16","l","38","<p style=""font-size: 48px;"">+</p>","null","1","","","","","","",""
"641.785000001546","","image-keyboard-response","118","2372614","0.0-13.0-2.16","l","38","Images/motorcycle_2.png","76","1","1583117073264","match","motorcycle","motorcycle","sound","test","true"
"null","","audio-keyboard-response","119","2374622","0.0-13.0-3.16","l","38","Sounds/correct.wav","null","1","","","","","","",""
"null","","audio-keyboard-response","120","2375277","0.0-13.0-0.17","l","38","Sounds/dog_label.wav","null","1","","","","","","",""
"null","","html-keyboard-response","121","2376271","0.0-13.0-1.17","l","38","<p style=""font-size: 48px;"">+</p>","null","1","","","","","","",""
"437.31999999890104","","image-keyboard-response","122","2376710","0.0-13.0-2.17","l","38","Images/dog_2.png","76","1","1583117077564","match","dog","dog","label","test","true"
"null","","audio-keyboard-response","123","2378720","0.0-13.0-3.17","l","38","Sounds/correct.wav","null","1","","","","","","",""
"null","","audio-keyboard-response","124","2379617","0.0-13.0-0.18","l","38","Sounds/frog_sound.wav","null","1","","","","","","",""
"null","","html-keyboard-response","125","2380622","0.0-13.0-1.18","l","38","<p style=""font-size: 48px;"">+</p>","null","1","","","","","","",""
"503.15500000026077","","image-keyboard-response","126","2381126","0.0-13.0-2.18","l","38","Images/train_1.png","65","1","1583117081914","non-match","train","frog","sound","test","true"
"null","","audio-keyboard-response","127","2383130","0.0-13.0-3.18","l","38","Sounds/correct.wav","null","1","","","","","","",""
"null","","audio-keyboard-response","128","2383837","0.0-13.0-0.19","l","38","Sounds/dog_sound.wav","null","1","","","","","","",""
"null","","html-keyboard-response","129","2384855","0.0-13.0-1.19","l","38","<p style=""font-size: 48px;"">+</p>","null","1","","","","","","",""
"574.2250000000931","","image-keyboard-response","130","2385430","0.0-13.0-2.19","l","38","Images/cow_orig.png","65","1","1583117086147","non-match","cow","dog","sound","test","true"
"null","","audio-keyboard-response","131","2387441","0.0-13.0-3.19","l","38","Sounds/correct.wav","null","1","","","","","","",""
"null","","audio-keyboard-response","132","2388137","0.0-13.0-0.20","l","38","Sounds/whistle_label.wav","null","1","","","","","","",""
"null","","html-keyboard-response","133","2389155","0.0-13.0-1.20","l","38","<p style=""font-size: 48px;"">+</p>","null","1","","","","","","",""
"610.2799999988638","","image-keyboard-response","134","2389766","0.0-13.0-2.20","l","38","Images/gun_3.png","65","1","1583117090447","non-match","gun","whistle","label","test","true"
"null","","audio-keyboard-response","135","2391773","0.0-13.0-3.20","l","38","Sounds/correct.wav","null","1","","","","","","",""
"null","","audio-keyboard-response","136","2392797","0.0-13.0-0.21","l","38","Sounds/cow_label.wav","null","1","","","","","","",""
"null","","html-keyboard-response","137","2393788","0.0-13.0-1.21","l","38","<p style=""font-size: 48px;"">+</p>","null","1","","","","","","",""
"392.4199999999255","","image-keyboard-response","138","2394182","0.0-13.0-2.21","l","38","Images/train_cartoon.png","65","1","1583117095081","non-match","train","cow","label","test","true"
"null","","audio-keyboard-response","139","2396191","0.0-13.0-3.21","l","38","Sounds/correct.wav","null","1","","","","","","",""
"null","","audio-keyboard-response","140","2397497","0.0-13.0-0.22","l","38","Sounds/train_sound.wav","null","1","","","","","","",""
"null","","html-keyboard-response","141","2398488","0.0-13.0-1.22","l","38","<p style=""font-size: 48px;"">+</p>","null","1","","","","","","",""
"428.83500000089407","","image-keyboard-response","142","2398918","0.0-13.0-2.22","l","38","Images/frog_3.png","65","1","1583117099781","non-match","frog","train","sound","test","true"
"null","","audio-keyboard-response","143","2400922","0.0-13.0-3.22","l","38","Sounds/correct.wav","null","1","","","","","","",""
"null","","audio-keyboard-response","144","2401757","0.0-13.0-0.23","l","38","Sounds/cat_sound.wav","null","1","","","","","","",""
"null","","html-keyboard-response","145","2402755","0.0-13.0-1.23","l","38","<p style=""font-size: 48px;"">+</p>","null","1","","","","","","",""
"449.9099999992177","","image-keyboard-response","146","2403206","0.0-13.0-2.23","l","38","Images/gun_cartoon.png","65","1","1583117104047","non-match","gun","cat","sound","test","true"
"null","","audio-keyboard-response","147","2405219","0.0-13.0-3.23","l","38","Sounds/correct.wav","null","1","","","","","","",""
"null","","audio-keyboard-response","148","2405897","0.0-13.0-0.24","l","38","Sounds/whistle_label.wav","null","1","","","","","","",""
"null","","html-keyboard-response","149","2406888","0.0-13.0-1.24","l","38","<p style=""font-size: 48px;"">+</p>","null","1","","","","","","",""
"684.4549999986775","","image-keyboard-response","150","2407574","0.0-13.0-2.24","l","38","Images/whistle_1.png","76","1","1583117108181","match","whistle","whistle","label","test","true"
"null","","audio-keyboard-response","151","2409585","0.0-13.0-3.24","l","38","Sounds/correct.wav","null","1","","","","","","",""
"null","","audio-keyboard-response","152","2410417","0.0-13.0-0.25","l","38","Sounds/cat_label.wav","null","1","","","","","","",""
"null","","html-keyboard-response","153","2411405","0.0-13.0-1.25","l","38","<p style=""font-size: 48px;"">+</p>","null","1","","","","","","",""
"439.8849999997765","","image-keyboard-response","154","2411846","0.0-13.0-2.25","l","38","Images/cat_1.png","76","1","1583117112697","match","cat","cat","label","test","true"
"null","","audio-keyboard-response","155","2413855","0.0-13.0-3.25","l","38","Sounds/correct.wav","null","1","","","","","","",""
"null","","audio-keyboard-response","156","2415117","0.0-13.0-0.26","l","38","Sounds/train_sound.wav","null","1","","","","","","",""
"null","","html-keyboard-response","157","2416123","0.0-13.0-1.26","l","38","<p style=""font-size: 48px;"">+</p>","null","1","","","","","","",""
"457.96999999927357","","image-keyboard-response","158","2416583","0.0-13.0-2.26","l","38","Images/train_1.png","76","1","1583117117415","match","train","train","sound","test","true"
"null","","audio-keyboard-response","159","2418587","0.0-13.0-3.26","l","38","Sounds/correct.wav","null","1","","","","","","",""
"null","","audio-keyboard-response","160","2419397","0.0-13.0-0.27","l","38","Sounds/cat_label.wav","null","1","","","","","","",""
"null","","html-keyboard-response","161","2420389","0.0-13.0-1.27","l","38","<p style=""font-size: 48px;"">+</p>","null","1","","","","","","",""
"592.2799999988638","","image-keyboard-response","162","2420983","0.0-13.0-2.27","l","38","Images/motorcycle_cartoon.png","65","1","1583117121681","non-match","motorcycle","cat","label","test","true"
"null","","audio-keyboard-response","163","2422994","0.0-13.0-3.27","l","38","Sounds/correct.wav","null","1","","","","","","",""
"null","","audio-keyboard-response","164","2423897","0.0-13.0-0.28","l","38","Sounds/frog_sound.wav","null","1","","","","","","",""
"null","","html-keyboard-response","165","2424889","0.0-13.0-1.28","l","38","<p style=""font-size: 48px;"">+</p>","null","1","","","","","","",""
"460.4850000012666","","image-keyboard-response","166","2425351","0.0-13.0-2.28","l","38","Images/frog_orig.png","76","1","1583117126181","match","frog","frog","sound","test","true"
"null","","audio-keyboard-response","167","2427354","0.0-13.0-3.28","l","38","Sounds/correct.wav","null","1","","","","","","",""
"null","","audio-keyboard-response","168","2428477","0.0-13.0-0.29","l","38","Sounds/motorcycle_label.wav","null","1","","","","","","",""
"null","","html-keyboard-response","169","2429473","0.0-13.0-1.29","l","38","<p style=""font-size: 48px;"">+</p>","null","1","","","","","","",""
"468.76999999955297","","image-keyboard-response","170","2429943","0.0-13.0-2.29","l","38","Images/whistle_2.png","65","1","1583117130765","non-match","whistle","motorcycle","label","test","true"
"null","","audio-keyboard-response","171","2431952","0.0-13.0-3.29","l","38","Sounds/correct.wav","null","1","","","","","","",""
"null","","audio-keyboard-response","172","2433057","0.0-13.0-0.30","l","38","Sounds/motorcycle_label.wav","null","1","","","","","","",""
"null","","html-keyboard-response","173","2434056","0.0-13.0-1.30","l","38","<p style=""font-size: 48px;"">+</p>","null","1","","","","","","",""
"637.589999998454","","image-keyboard-response","174","2434695","0.0-13.0-2.30","l","38","Images/cat_3.png","65","1","1583117135348","non-match","cat","motorcycle","label","test","true"
"null","","audio-keyboard-response","175","2436706","0.0-13.0-3.30","l","38","Sounds/correct.wav","null","1","","","","","","",""
"null","","audio-keyboard-response","176","2437277","0.0-13.0-0.31","l","38","Sounds/gun_sound.wav","null","1","","","","","","",""
"null","","html-keyboard-response","177","2438273","0.0-13.0-1.31","l","38","<p style=""font-size: 48px;"">+</p>","null","1","","","","","","",""
"788.9699999997392","","image-keyboard-response","178","2439063","0.0-13.0-2.31","l","38","Images/car_3.png","65","1","1583117139565","non-match","car","gun","sound","test","true"
"null","","audio-keyboard-response","179","2441079","0.0-13.0-3.31","l","38","Sounds/correct.wav","null","1","","","","","","",""
"null","","audio-keyboard-response","180","2441657","0.0-13.0-0.32","l","38","Sounds/gun_label.wav","null","1","","","","","","",""
"null","","html-keyboard-response","181","2442656","0.0-13.0-1.32","l","38","<p style=""font-size: 48px;"">+</p>","null","1","","","","","","",""
"517.3249999987893","","image-keyboard-response","182","2443175","0.0-13.0-2.32","l","38","Images/gun_3.png","76","1","1583117143948","match","gun","gun","label","test","true"
"null","","audio-keyboard-response","183","2445184","0.0-13.0-3.32","l","38","Sounds/correct.wav","null","1","","","","","","",""
"null","","audio-keyboard-response","184","2446198","0.0-13.0-0.33","l","38","Sounds/cow_label.wav","null","1","","","","","","",""
"null","","html-keyboard-response","185","2447189","0.0-13.0-1.33","l","38","<p style=""font-size: 48px;"">+</p>","null","1","","","","","","",""
"544.1300000003539","","image-keyboard-response","186","2447735","0.0-13.0-2.33","l","38","Images/car_orig.png","65","1","1583117148482","non-match","car","cow","label","test","true"
"null","","audio-keyboard-response","187","2449748","0.0-13.0-3.33","l","38","Sounds/correct.wav","null","1","","","","","","",""
"null","","audio-keyboard-response","188","2450397","0.0-13.0-0.34","l","38","Sounds/dog_label.wav","null","1","","","","","","",""
"null","","html-keyboard-response","189","2451390","0.0-13.0-1.34","l","38","<p style=""font-size: 48px;"">+</p>","null","1","","","","","","",""
"616.234999999404","","image-keyboard-response","190","2452007","0.0-13.0-2.34","l","38","Images/cat_1.png","76","1","1583117152682","non-match","cat","dog","label","test","false"
"null","","audio-keyboard-response","191","2454010","0.0-13.0-3.34","l","38","Sounds/incorrect.wav","null","1","","","","","","",""
"null","","audio-keyboard-response","192","2454917","0.0-13.0-0.35","l","38","Sounds/frog_sound.wav","null","1","","","","","","",""
"null","","html-keyboard-response","193","2455906","0.0-13.0-1.35","l","38","<p style=""font-size: 48px;"">+</p>","null","1","","","","","","",""
"643.4700000011362","","image-keyboard-response","194","2456551","0.0-13.0-2.35","l","38","Images/gun_2.png","65","1","1583117157199","non-match","gun","frog","sound","test","true"
"null","","audio-keyboard-response","195","2458559","0.0-13.0-3.35","l","38","Sounds/correct.wav","null","1","","","","","","",""
"null","","audio-keyboard-response","196","2459397","0.0-13.0-0.36","l","38","Sounds/cat_label.wav","null","1","","","","","","",""
"null","","html-keyboard-response","197","2460390","0.0-13.0-1.36","l","38","<p style=""font-size: 48px;"">+</p>","null","1","","","","","","",""
"960.1899999999441","","image-keyboard-response","198","2461351","0.0-13.0-2.36","l","38","Images/cat_3.png","76","1","1583117161682","match","cat","cat","label","test","true"
"null","","audio-keyboard-response","199","2463367","0.0-13.0-3.36","l","38","Sounds/correct.wav","null","1","","","","","","",""
"null","","audio-keyboard-response","200","2464197","0.0-13.0-0.37","l","38","Sounds/cat_sound.wav","null","1","","","","","","",""
"null","","html-keyboard-response","201","2465190","0.0-13.0-1.37","l","38","<p style=""font-size: 48px;"">+</p>","null","1","","","","","","",""
"528.0150000001304","","image-keyboard-response","202","2465719","0.0-13.0-2.37","l","38","Images/cat_orig.png","76","1","1583117166482","match","cat","cat","sound","test","true"
"null","","audio-keyboard-response","203","2467731","0.0-13.0-3.37","l","38","Sounds/correct.wav","null","1","","","","","","",""
"null","","audio-keyboard-response","204","2468537","0.0-13.0-0.38","l","38","Sounds/cat_sound.wav","null","1","","","","","","",""
"null","","html-keyboard-response","205","2469540","0.0-13.0-1.38","l","38","<p style=""font-size: 48px;"">+</p>","null","1","","","","","","",""
"625.9599999994971","","image-keyboard-response","206","2470167","0.0-13.0-2.38","l","38","Images/train_3.png","65","1","1583117170832","non-match","train","cat","sound","test","true"
"null","","audio-keyboard-response","207","2472177","0.0-13.0-3.38","l","38","Sounds/correct.wav","null","1","","","","","","",""
"null","","audio-keyboard-response","208","2472877","0.0-13.0-0.39","l","38","Sounds/whistle_sound.wav","null","1","","","","","","",""
"null","","html-keyboard-response","209","2473874","0.0-13.0-1.39","l","38","<p style=""font-size: 48px;"">+</p>","null","1","","","","","","",""
"788.4999999990687","","image-keyboard-response","210","2474664","0.0-13.0-2.39","l","38","Images/whistle_2.png","76","1","1583117175166","match","whistle","whistle","sound","test","true"
"null","","audio-keyboard-response","211","2476680","0.0-13.0-3.39","l","38","Sounds/correct.wav","null","1","","","","","","",""
"null","","audio-keyboard-response","212","2477378","0.0-13.0-0.40","l","38","Sounds/whistle_label.wav","null","1","","","","","","",""
"null","","html-keyboard-response","213","2478374","0.0-13.0-1.40","l","38","<p style=""font-size: 48px;"">+</p>","null","1","","","","","","",""
"528.4899999988265","","image-keyboard-response","214","2478904","0.0-13.0-2.40","l","38","Images/motorcycle_1.png","65","1","1583117179666","non-match","motorcycle","whistle","label","test","true"
"null","","audio-keyboard-response","215","2480918","0.0-13.0-3.40","l","38","Sounds/correct.wav","null","1","","","","","","",""
"null","","audio-keyboard-response","216","2481618","0.0-13.0-0.41","l","38","Sounds/rooster_label.wav","null","1","","","","","","",""
"null","","html-keyboard-response","217","2482608","0.0-13.0-1.41","l","38","<p style=""font-size: 48px;"">+</p>","null","1","","","","","","",""
"615.0149999996647","","image-keyboard-response","218","2483224","0.0-13.0-2.41","l","38","Images/rooster_2.png","76","1","1583117183900","match","rooster","rooster","label","test","true"
"null","","audio-keyboard-response","219","2485231","0.0-13.0-3.41","l","38","Sounds/correct.wav","null","1","","","","","","",""
"null","","audio-keyboard-response","220","2486318","0.0-13.0-0.42","l","38","Sounds/car_sound.wav","null","1","","","","","","",""
"null","","html-keyboard-response","221","2487324","0.0-13.0-1.42","l","38","<p style=""font-size: 48px;"">+</p>","null","1","","","","","","",""
"618.0949999997392","","image-keyboard-response","222","2487944","0.0-13.0-2.42","l","38","Images/whistle_cartoon.png","65","1","1583117188616","non-match","whistle","car","sound","test","true"
"null","","audio-keyboard-response","223","2489959","0.0-13.0-3.42","l","38","Sounds/correct.wav","null","1","","","","","","",""
"null","","audio-keyboard-response","224","2491078","0.0-13.0-0.43","l","38","Sounds/motorcycle_sound.wav","null","1","","","","","","",""
"null","","html-keyboard-response","225","2492074","0.0-13.0-1.43","l","38","<p style=""font-size: 48px;"">+</p>","null","1","","","","","","",""
"540.4099999996834","","image-keyboard-response","226","2492616","0.0-13.0-2.43","l","38","Images/motorcycle_3.png","76","1","1583117193367","match","motorcycle","motorcycle","sound","test","true"
"null","","audio-keyboard-response","227","2494632","0.0-13.0-3.43","l","38","Sounds/correct.wav","null","1","","","","","","",""
"null","","audio-keyboard-response","228","2495218","0.0-13.0-0.44","l","38","Sounds/gun_label.wav","null","1","","","","","","",""
"null","","html-keyboard-response","229","2496208","0.0-13.0-1.44","l","38","<p style=""font-size: 48px;"">+</p>","null","1","","","","","","",""
"662.8199999993667","","image-keyboard-response","230","2496872","0.0-13.0-2.44","l","38","Images/gun_1.png","76","1","1583117197500","match","gun","gun","label","test","true"
"null","","audio-keyboard-response","231","2498889","0.0-13.0-3.44","l","38","Sounds/correct.wav","null","1","","","","","","",""
"null","","audio-keyboard-response","232","2499958","0.0-13.0-0.45","l","38","Sounds/car_label.wav","null","1","","","","","","",""
"null","","html-keyboard-response","233","2500958","0.0-13.0-1.45","l","38","<p style=""font-size: 48px;"">+</p>","null","1","","","","","","",""
"664.8349999999627","","image-keyboard-response","234","2501624","0.0-13.0-2.45","l","38","Images/cat_orig.png","65","1","1583117202250","non-match","cat","car","label","test","true"
"null","","audio-keyboard-response","235","2503630","0.0-13.0-3.45","l","38","Sounds/correct.wav","null","1","","","","","","",""
"null","","audio-keyboard-response","236","2504338","0.0-13.0-0.46","l","38","Sounds/dog_sound.wav","null","1","","","","","","",""
"null","","html-keyboard-response","237","2505341","0.0-13.0-1.46","l","38","<p style=""font-size: 48px;"">+</p>","null","1","","","","","","",""
"489.6399999996647","","image-keyboard-response","238","2505832","0.0-13.0-2.46","l","38","Images/gun_1.png","65","1","1583117206633","non-match","gun","dog","sound","test","true"
"null","","audio-keyboard-response","239","2507838","0.0-13.0-3.46","l","38","Sounds/correct.wav","null","1","","","","","","",""
"null","","audio-keyboard-response","240","2509138","0.0-13.0-0.47","l","38","Sounds/train_sound.wav","null","1","","","","","","",""
"null","","html-keyboard-response","241","2510141","0.0-13.0-1.47","l","38","<p style=""font-size: 48px;"">+</p>","null","1","","","","","","",""
"489.2050000000745","","image-keyboard-response","242","2510632","0.0-13.0-2.47","l","38","Images/dog_cartoon.png","65","1","1583117211433","non-match","dog","train","sound","test","true"
"null","","audio-keyboard-response","243","2512644","0.0-13.0-3.47","l","38","Sounds/correct.wav","null","1","","","","","","",""
"null","","audio-keyboard-response","244","2513338","0.0-13.0-0.48","l","38","Sounds/dog_sound.wav","null","1","","","","","","",""
"null","","html-keyboard-response","245","2514341","0.0-13.0-1.48","l","38","<p style=""font-size: 48px;"">+</p>","null","1","","","","","","",""
"577.4049999997951","","image-keyboard-response","246","2514920","0.0-13.0-2.48","l","38","Images/rooster_3.png","65","1","1583117215633","non-match","rooster","dog","sound","test","true"
"null","","audio-keyboard-response","247","2516929","0.0-13.0-3.48","l","38","Sounds/correct.wav","null","1","","","","","","",""
"null","","audio-keyboard-response","248","2517998","0.0-13.0-0.49","l","38","Sounds/car_sound.wav","null","1","","","","","","",""
"null","","html-keyboard-response","249","2518991","0.0-13.0-1.49","l","38","<p style=""font-size: 48px;"">+</p>","null","1","","","","","","",""
"999.4750000005588","","image-keyboard-response","250","2519992","0.0-13.0-2.49","l","38","Images/car_cartoon.png","65","1","1583117220283","match","car","car","sound","test","false"
"null","","audio-keyboard-response","251","2522000","0.0-13.0-3.49","l","38","Sounds/incorrect.wav","null","1","","","","","","",""
"null","","audio-keyboard-response","252","2522578","0.0-13.0-0.50","l","38","Sounds/gun_sound.wav","null","1","","","","","","",""
"null","","html-keyboard-response","253","2523575","0.0-13.0-1.50","l","38","<p style=""font-size: 48px;"">+</p>","null","1","","","","","","",""
"671.9099999992177","","image-keyboard-response","254","2524248","0.0-13.0-2.50","l","38","Images/gun_2.png","76","1","1583117224867","match","gun","gun","sound","test","true"
"null","","audio-keyboard-response","255","2526255","0.0-13.0-3.50","l","38","Sounds/correct.wav","null","1","","","","","","",""
"null","","audio-keyboard-response","256","2527159","0.0-13.0-0.51","l","38","Sounds/frog_sound.wav","null","1","","","","","","",""
"null","","html-keyboard-response","257","2528158","0.0-13.0-1.51","l","38","<p style=""font-size: 48px;"">+</p>","null","1","","","","","","",""
"520.7200000006706","","image-keyboard-response","258","2528680","0.0-13.0-2.51","l","38","Images/frog_2.png","76","1","1583117229450","match","frog","frog","sound","test","true"
"null","","audio-keyboard-response","259","2530684","0.0-13.0-3.51","l","38","Sounds/correct.wav","null","1","","","","","","",""
"null","","audio-keyboard-response","260","2531378","0.0-13.0-0.52","l","38","Sounds/rooster_label.wav","null","1","","","","","","",""
"null","","html-keyboard-response","261","2532375","0.0-13.0-1.52","l","38","<p style=""font-size: 48px;"">+</p>","null","1","","","","","","",""
"527.999999998603","","image-keyboard-response","262","2532904","0.0-13.0-2.52","l","38","Images/motorcycle_3.png","65","1","1583117233667","non-match","motorcycle","rooster","label","test","true"
"null","","audio-keyboard-response","263","2534916","0.0-13.0-3.52","l","38","Sounds/correct.wav","null","1","","","","","","",""
"null","","audio-keyboard-response","264","2535939","0.0-13.0-0.53","l","38","Sounds/cow_sound.wav","null","1","","","","","","",""
"null","","html-keyboard-response","265","2536942","0.0-13.0-1.53","l","38","<p style=""font-size: 48px;"">+</p>","null","1","","","","","","",""
"584.9249999988824","","image-keyboard-response","266","2537528","0.0-13.0-2.53","l","38","Images/cow_2.png","76","1","1583117238234","match","cow","cow","sound","test","true"
"null","","audio-keyboard-response","267","2539545","0.0-13.0-3.53","l","38","Sounds/correct.wav","null","1","","","","","","",""
"null","","audio-keyboard-response","268","2540199","0.0-13.0-0.54","l","38","Sounds/dog_label.wav","null","1","","","","","","",""
"null","","html-keyboard-response","269","2541192","0.0-13.0-1.54","l","38","<p style=""font-size: 48px;"">+</p>","null","1","","","","","","",""
"542.9949999996461","","image-keyboard-response","270","2541736","0.0-13.0-2.54","l","38","Images/dog_cartoon.png","76","1","1583117242484","match","dog","dog","label","test","true"
"null","","audio-keyboard-response","271","2543749","0.0-13.0-3.54","l","38","Sounds/correct.wav","null","1","","","","","","",""
"null","","audio-keyboard-response","272","2544819","0.0-13.0-0.55","l","38","Sounds/car_sound.wav","null","1","","","","","","",""
"null","","html-keyboard-response","273","2545809","0.0-13.0-1.55","l","38","<p style=""font-size: 48px;"">+</p>","null","1","","","","","","",""
"646.6000000000931","","image-keyboard-response","274","2546457","0.0-13.0-2.55","l","38","Images/dog_3.png","65","1","1583117247101","non-match","dog","car","sound","test","true"
"null","","audio-keyboard-response","275","2548460","0.0-13.0-3.55","l","38","Sounds/correct.wav","null","1","","","","","","",""
"null","","audio-keyboard-response","276","2549359","0.0-13.0-0.56","l","38","Sounds/frog_label.wav","null","1","","","","","","",""
"null","","html-keyboard-response","277","2550359","0.0-13.0-1.56","l","38","<p style=""font-size: 48px;"">+</p>","null","1","","","","","","",""
"560.4399999994785","","image-keyboard-response","278","2550920","0.0-13.0-2.56","l","38","Images/rooster_2.png","65","1","1583117251651","non-match","rooster","frog","label","test","true"
"null","","audio-keyboard-response","279","2552933","0.0-13.0-3.56","l","38","Sounds/correct.wav","null","1","","","","","","",""
"null","","audio-keyboard-response","280","2554219","0.0-13.0-0.57","l","38","Sounds/train_label.wav","null","1","","","","","","",""
"null","","html-keyboard-response","281","2555209","0.0-13.0-1.57","l","38","<p style=""font-size: 48px;"">+</p>","null","1","","","","","","",""
"862.4600000004284","","image-keyboard-response","282","2556072","0.0-13.0-2.57","l","38","Images/train_cartoon.png","76","1","1583117256501","match","train","train","label","test","true"
"null","","audio-keyboard-response","283","2558078","0.0-13.0-3.57","l","38","Sounds/correct.wav","null","1","","","","","","",""
"null","","audio-keyboard-response","284","2559339","0.0-13.0-0.58","l","38","Sounds/train_label.wav","null","1","","","","","","",""
"null","","html-keyboard-response","285","2560342","0.0-13.0-1.58","l","38","<p style=""font-size: 48px;"">+</p>","null","1","","","","","","",""
"449.03499999968335","","image-keyboard-response","286","2560793","0.0-13.0-2.58","l","38","Images/rooster_1.png","65","1","1583117261635","non-match","rooster","train","label","test","true"
"null","","audio-keyboard-response","287","2562807","0.0-13.0-3.58","l","38","Sounds/correct.wav","null","1","","","","","","",""
"null","","audio-keyboard-response","288","2563499","0.0-13.0-0.59","l","38","Sounds/rooster_label.wav","null","1","","","","","","",""
"null","","html-keyboard-response","289","2564492","0.0-13.0-1.59","l","38","<p style=""font-size: 48px;"">+</p>","null","1","","","","","","",""
"506.9249999993481","","image-keyboard-response","290","2565000","0.0-13.0-2.59","l","38","Images/rooster_orig.png","76","1","1583117265785","match","rooster","rooster","label","test","true"
"null","","audio-keyboard-response","291","2567004","0.0-13.0-3.59","l","38","Sounds/correct.wav","null","1","","","","","","",""
"null","","audio-keyboard-response","292","2567919","0.0-13.0-0.60","l","38","Sounds/frog_sound.wav","null","1","","","","","","",""
"null","","html-keyboard-response","293","2568909","0.0-13.0-1.60","l","38","<p style=""font-size: 48px;"">+</p>","null","1","","","","","","",""
"698.0400000009686","","image-keyboard-response","294","2569608","0.0-13.0-2.60","l","38","Images/cow_2.png","65","1","1583117270201","non-match","cow","frog","sound","test","true"
"null","","audio-keyboard-response","295","2571621","0.0-13.0-3.60","l","38","Sounds/correct.wav","null","1","","","","","","",""
"null","","audio-keyboard-response","296","2572199","0.0-13.0-0.61","l","38","Sounds/gun_sound.wav","null","1","","","","","","",""
"null","","html-keyboard-response","297","2573193","0.0-13.0-1.61","l","38","<p style=""font-size: 48px;"">+</p>","null","1","","","","","","",""
"702.7899999991059","","image-keyboard-response","298","2573897","0.0-13.0-2.61","l","38","Images/gun_cartoon.png","76","1","1583117274485","match","gun","gun","sound","test","true"
"null","","audio-keyboard-response","299","2575906","0.0-13.0-3.61","l","38","Sounds/correct.wav","null","1","","","","","","",""
"null","","audio-keyboard-response","300","2577159","0.0-13.0-0.62","l","38","Sounds/train_label.wav","null","1","","","","","","",""
"null","","html-keyboard-response","301","2578159","0.0-13.0-1.62","l","38","<p style=""font-size: 48px;"">+</p>","null","1","","","","","","",""
"648.3249999997206","","image-keyboard-response","302","2578810","0.0-13.0-2.62","l","38","Images/train_orig.png","76","1","1583117279452","match","train","train","label","test","true"
"null","","audio-keyboard-response","303","2580815","0.0-13.0-3.62","l","38","Sounds/correct.wav","null","1","","","","","","",""
"null","","audio-keyboard-response","304","2581659","0.0-13.0-0.63","l","38","Sounds/cat_label.wav","null","1","","","","","","",""
"null","","html-keyboard-response","305","2582659","0.0-13.0-1.63","l","38","<p style=""font-size: 48px;"">+</p>","null","1","","","","","","",""
"516.3750000009313","","image-keyboard-response","306","2583177","0.0-13.0-2.63","l","38","Images/car_cartoon.png","65","1","1583117283951","non-match","car","cat","label","test","true"
"null","","audio-keyboard-response","307","2585186","0.0-13.0-3.63","l","38","Sounds/correct.wav","null","1","","","","","","",""
"null","","audio-keyboard-response","308","2585879","0.0-13.0-0.64","l","38","Sounds/whistle_label.wav","null","1","","","","","","",""
"null","","html-keyboard-response","309","2586876","0.0-13.0-1.64","l","38","<p style=""font-size: 48px;"">+</p>","null","1","","","","","","",""
"1051.2050000000745","","image-keyboard-response","310","2587929","0.0-13.0-2.64","l","38","Images/whistle_3.png","76","1","1583117288169","match","whistle","whistle","label","test","true"
"null","","audio-keyboard-response","311","2589937","0.0-13.0-3.64","l","38","Sounds/correct.wav","null","1","","","","","","",""
"null","","audio-keyboard-response","312","2590959","0.0-13.0-0.65","l","38","Sounds/cow_label.wav","null","1","","","","","","",""
"null","","html-keyboard-response","313","2591960","0.0-13.0-1.65","l","38","<p style=""font-size: 48px;"">+</p>","null","1","","","","","","",""
"591.6900000008754","","image-keyboard-response","314","2592552","0.0-13.0-2.65","l","38","Images/cow_cartoon.png","76","1","1583117293252","match","cow","cow","label","test","true"
"null","","audio-keyboard-response","315","2594564","0.0-13.0-3.65","l","38","Sounds/correct.wav","null","1","","","","","","",""
"null","","audio-keyboard-response","316","2595280","0.0-13.0-0.66","l","38","Sounds/dog_sound.wav","null","1","","","","","","",""
"null","","html-keyboard-response","317","2596277","0.0-13.0-1.66","l","38","<p style=""font-size: 48px;"">+</p>","null","1","","","","","","",""
"515.1649999986403","","image-keyboard-response","318","2596793","0.0-13.0-2.66","l","38","Images/dog_orig.png","76","1","1583117297569","match","dog","dog","sound","test","true"
"null","","audio-keyboard-response","319","2598803","0.0-13.0-3.66","l","38","Sounds/correct.wav","null","1","","","","","","",""
"null","","audio-keyboard-response","320","2599500","0.0-13.0-0.67","l","38","Sounds/rooster_sound.wav","null","1","","","","","","",""
"null","","html-keyboard-response","321","2600494","0.0-13.0-1.67","l","38","<p style=""font-size: 48px;"">+</p>","null","1","","","","","","",""
"634.7499999990687","","image-keyboard-response","322","2601129","0.0-13.0-2.67","l","38","Images/gun_orig.png","65","1","1583117301786","non-match","gun","rooster","sound","test","true"
"null","","audio-keyboard-response","323","2603143","0.0-13.0-3.67","l","38","Sounds/correct.wav","null","1","","","","","","",""
"null","","audio-keyboard-response","324","2603720","0.0-13.0-0.68","l","38","Sounds/gun_sound.wav","null","1","","","","","","",""
"null","","html-keyboard-response","325","2604710","0.0-13.0-1.68","l","38","<p style=""font-size: 48px;"">+</p>","null","1","","","","","","",""
"561.2250000010245","","image-keyboard-response","326","2605273","0.0-13.0-2.68","l","38","Images/frog_2.png","65","1","1583117306002","non-match","frog","gun","sound","test","true"
"null","","audio-keyboard-response","327","2607286","0.0-13.0-3.68","l","38","Sounds/correct.wav","null","1","","","","","","",""
"null","","audio-keyboard-response","328","2608420","0.0-13.0-0.69","l","38","Sounds/motorcycle_label.wav","null","1","","","","","","",""
"null","","html-keyboard-response","329","2609410","0.0-13.0-1.69","l","38","<p style=""font-size: 48px;"">+</p>","null","1","","","","","","",""
"533.3350000004284","","image-keyboard-response","330","2609945","0.0-13.0-2.69","l","38","Images/frog_orig.png","65","1","1583117310703","non-match","frog","motorcycle","label","test","true"
"null","","audio-keyboard-response","331","2611954","0.0-13.0-3.69","l","38","Sounds/correct.wav","null","1","","","","","","",""
"null","","audio-keyboard-response","332","2612860","0.0-13.0-0.70","l","38","Sounds/frog_label.wav","null","1","","","","","","",""
"null","","html-keyboard-response","333","2613860","0.0-13.0-1.70","l","38","<p style=""font-size: 48px;"">+</p>","null","1","","","","","","",""
"531.7749999994412","","image-keyboard-response","334","2614393","0.0-13.0-2.70","l","38","Images/frog_1.png","76","1","1583117315153","match","frog","frog","label","test","true"
"null","","audio-keyboard-response","335","2616402","0.0-13.0-3.70","l","38","Sounds/correct.wav","null","1","","","","","","",""
"null","","audio-keyboard-response","336","2617520","0.0-13.0-0.71","l","38","Sounds/motorcycle_sound.wav","null","1","","","","","","",""
"null","","html-keyboard-response","337","2618510","0.0-13.0-1.71","l","38","<p style=""font-size: 48px;"">+</p>","null","1","","","","","","",""
"505.6750000002794","","image-keyboard-response","338","2619017","0.0-13.0-2.71","l","38","Images/motorcycle_1.png","76","1","1583117319803","match","motorcycle","motorcycle","sound","test","true"
"null","","audio-keyboard-response","339","2621021","0.0-13.0-3.71","l","38","Sounds/correct.wav","null","1","","","","","","",""
"null","","audio-keyboard-response","340","2622120","0.0-13.0-0.72","l","38","Sounds/motorcycle_sound.wav","null","1","","","","","","",""
"null","","html-keyboard-response","341","2623111","0.0-13.0-1.72","l","38","<p style=""font-size: 48px;"">+</p>","null","1","","","","","","",""
"545.409999998752","","image-keyboard-response","342","2623657","0.0-13.0-2.72","l","38","Images/cow_1.png","65","1","1583117324403","non-match","cow","motorcycle","sound","test","true"
"null","","audio-keyboard-response","343","2625674","0.0-13.0-3.72","l","38","Sounds/correct.wav","null","1","","","","","","",""
"null","","audio-keyboard-response","344","2626760","0.0-13.0-0.73","l","38","Sounds/car_sound.wav","null","1","","","","","","",""
"null","","html-keyboard-response","345","2627761","0.0-13.0-1.73","l","38","<p style=""font-size: 48px;"">+</p>","null","1","","","","","","",""
"679.804999999702","","image-keyboard-response","346","2628442","0.0-13.0-2.73","l","38","Images/frog_1.png","65","1","1583117329053","non-match","frog","car","sound","test","true"
"null","","audio-keyboard-response","347","2630457","0.0-13.0-3.73","l","38","Sounds/correct.wav","null","1","","","","","","",""
"null","","audio-keyboard-response","348","2631360","0.0-13.0-0.74","l","38","Sounds/frog_sound.wav","null","1","","","","","","",""
"null","","html-keyboard-response","349","2632361","0.0-13.0-1.74","l","38","<p style=""font-size: 48px;"">+</p>","null","1","","","","","","",""
"767.6900000004098","","image-keyboard-response","350","2633129","0.0-13.0-2.74","l","38","Images/frog_3.png","76","1","1583117333653","match","frog","frog","sound","test","true"
"null","","audio-keyboard-response","351","2635135","0.0-13.0-3.74","l","38","Sounds/correct.wav","null","1","","","","","","",""
"null","","audio-keyboard-response","352","2636160","0.0-13.0-0.75","l","38","Sounds/cow_sound.wav","null","1","","","","","","",""
"null","","html-keyboard-response","353","2637161","0.0-13.0-1.75","l","38","<p style=""font-size: 48px;"">+</p>","null","1","","","","","","",""
"447.3400000007823","","image-keyboard-response","354","2637609","0.0-13.0-2.75","l","38","Images/cow_1.png","76","1","1583117338453","match","cow","cow","sound","test","true"
"null","","audio-keyboard-response","355","2639616","0.0-13.0-3.75","l","38","Sounds/correct.wav","null","1","","","","","","",""
"null","","audio-keyboard-response","356","2640280","0.0-13.0-0.76","l","38","Sounds/dog_label.wav","null","1","","","","","","",""
"null","","html-keyboard-response","357","2641277","0.0-13.0-1.76","l","38","<p style=""font-size: 48px;"">+</p>","null","1","","","","","","",""
"619.0100000002421","","image-keyboard-response","358","2641898","0.0-13.0-2.76","l","38","Images/dog_1.png","76","1","1583117342570","match","dog","dog","label","test","true"
"null","","audio-keyboard-response","359","2643912","0.0-13.0-3.76","l","38","Sounds/correct.wav","null","1","","","","","","",""
"null","","audio-keyboard-response","360","2644480","0.0-13.0-0.77","l","38","Sounds/gun_sound.wav","null","1","","","","","","",""
"null","","html-keyboard-response","361","2645477","0.0-13.0-1.77","l","38","<p style=""font-size: 48px;"">+</p>","null","1","","","","","","",""
"946.5049999998882","","image-keyboard-response","362","2646425","0.0-13.0-2.77","l","38","Images/cow_cartoon.png","65","1","1583117346770","non-match","cow","gun","sound","test","true"
"null","","audio-keyboard-response","363","2648437","0.0-13.0-3.77","l","38","Sounds/correct.wav","null","1","","","","","","",""
"null","","audio-keyboard-response","364","2649520","0.0-13.0-0.78","l","38","Sounds/car_label.wav","null","1","","","","","","",""
"null","","html-keyboard-response","365","2650511","0.0-13.0-1.78","l","38","<p style=""font-size: 48px;"">+</p>","null","1","","","","","","",""
"521.269999999553","","image-keyboard-response","366","2651033","0.0-13.0-2.78","l","38","Images/car_1.png","76","1","1583117351803","match","car","car","label","test","true"
"null","","audio-keyboard-response","367","2653038","0.0-13.0-3.78","l","38","Sounds/correct.wav","null","1","","","","","","",""
"null","","audio-keyboard-response","368","2654160","0.0-13.0-0.79","l","38","Sounds/motorcycle_sound.wav","null","1","","","","","","",""
"null","","html-keyboard-response","369","2655178","0.0-13.0-1.79","l","38","<p style=""font-size: 48px;"">+</p>","null","1","","","","","","",""
"526.7599999983795","","image-keyboard-response","370","2655706","0.0-13.0-2.79","l","38","Images/motorcycle_orig.png","76","1","1583117356470","match","motorcycle","motorcycle","sound","test","true"
"null","","audio-keyboard-response","371","2657718","0.0-13.0-3.79","l","38","Sounds/correct.wav","null","1","","","","","","",""
"null","","audio-keyboard-response","372","2658560","0.0-13.0-0.80","l","38","Sounds/cat_label.wav","null","1","","","","","","",""
"null","","html-keyboard-response","373","2659595","0.0-13.0-1.80","l","38","<p style=""font-size: 48px;"">+</p>","null","1","","","","","","",""
"589.9350000000559","","image-keyboard-response","374","2660186","0.0-13.0-2.80","l","38","Images/cat_cartoon.png","76","1","1583117360887","match","cat","cat","label","test","true"
"null","","audio-keyboard-response","375","2662195","0.0-13.0-3.80","l","38","Sounds/correct.wav","null","1","","","","","","",""
"null","","audio-keyboard-response","376","2663100","0.0-13.0-0.81","l","38","Sounds/frog_sound.wav","null","1","","","","","","",""
"null","","html-keyboard-response","377","2664095","0.0-13.0-1.81","l","38","<p style=""font-size: 48px;"">+</p>","null","1","","","","","","",""
"553.7900000000373","","image-keyboard-response","378","2664650","0.0-13.0-2.81","l","38","Images/car_2.png","65","1","1583117365387","non-match","car","frog","sound","test","true"
"null","","audio-keyboard-response","379","2666652","0.0-13.0-3.81","l","38","Sounds/correct.wav","null","1","","","","","","",""
"null","","audio-keyboard-response","380","2667300","0.0-13.0-0.82","l","38","Sounds/dog_label.wav","null","1","","","","","","",""
"null","","html-keyboard-response","381","2668295","0.0-13.0-1.82","l","38","<p style=""font-size: 48px;"">+</p>","null","1","","","","","","",""
"721.5849999990314","","image-keyboard-response","382","2669017","0.0-13.0-2.82","l","38","Images/dog_3.png","76","1","1583117369587","match","dog","dog","label","test","true"
"null","","audio-keyboard-response","383","2671024","0.0-13.0-3.82","l","38","Sounds/correct.wav","null","1","","","","","","",""
"null","","audio-keyboard-response","384","2671720","0.0-13.0-0.83","l","38","Sounds/whistle_label.wav","null","1","","","","","","",""
"null","","html-keyboard-response","385","2672711","0.0-13.0-1.83","l","38","<p style=""font-size: 48px;"">+</p>","null","1","","","","","","",""
"705.0349999992177","","image-keyboard-response","386","2673418","0.0-13.0-2.83","l","38","Images/cow_3.png","65","1","1583117374004","non-match","cow","whistle","label","test","true"
"null","","audio-keyboard-response","387","2675432","0.0-13.0-3.83","l","38","Sounds/correct.wav","null","1","","","","","","",""
"null","","audio-keyboard-response","388","2676500","0.0-13.0-0.84","l","38","Sounds/car_label.wav","null","1","","","","","","",""
"null","","html-keyboard-response","389","2677495","0.0-13.0-1.84","l","38","<p style=""font-size: 48px;"">+</p>","null","1","","","","","","",""
"481.57999999960884","","image-keyboard-response","390","2677978","0.0-13.0-2.84","l","38","Images/car_3.png","76","1","1583117378787","match","car","car","label","test","true"
"null","","audio-keyboard-response","391","2679991","0.0-13.0-3.84","l","38","Sounds/correct.wav","null","1","","","","","","",""
"null","","audio-keyboard-response","392","2680820","0.0-13.0-0.85","l","38","Sounds/cat_label.wav","null","1","","","","","","",""
"null","","html-keyboard-response","393","2681812","0.0-13.0-1.85","l","38","<p style=""font-size: 48px;"">+</p>","null","1","","","","","","",""
"451.00999999884516","","image-keyboard-response","394","2682266","0.0-13.0-2.85","l","38","Images/cat_2.png","76","1","1583117383104","match","cat","cat","label","test","true"
"null","","audio-keyboard-response","395","2684277","0.0-13.0-3.85","l","38","Sounds/correct.wav","null","1","","","","","","",""
"null","","audio-keyboard-response","396","2685420","0.0-13.0-0.86","l","38","Sounds/motorcycle_label.wav","null","1","","","","","","",""
"null","","html-keyboard-response","397","2686412","0.0-13.0-1.86","l","38","<p style=""font-size: 48px;"">+</p>","null","1","","","","","","",""
"556.9299999987707","","image-keyboard-response","398","2686970","0.0-13.0-2.86","l","38","Images/train_orig.png","65","1","1583117387704","non-match","train","motorcycle","label","test","true"
"null","","audio-keyboard-response","399","2688985","0.0-13.0-3.86","l","38","Sounds/correct.wav","null","1","","","","","","",""
"null","","audio-keyboard-response","400","2689560","0.0-13.0-0.87","l","38","Sounds/gun_sound.wav","null","1","","","","","","",""
"null","","html-keyboard-response","401","2690578","0.0-13.0-1.87","l","38","<p style=""font-size: 48px;"">+</p>","null","1","","","","","","",""
"678.2599999988452","","image-keyboard-response","402","2691258","0.0-13.0-2.87","l","38","Images/whistle_3.png","65","1","1583117391870","non-match","whistle","gun","sound","test","true"
"null","","audio-keyboard-response","403","2693265","0.0-13.0-3.87","l","38","Sounds/correct.wav","null","1","","","","","","",""
"null","","audio-keyboard-response","404","2694340","0.0-13.0-0.88","l","38","Sounds/car_sound.wav","null","1","","","","","","",""
"null","","html-keyboard-response","405","2695345","0.0-13.0-1.88","l","38","<p style=""font-size: 48px;"">+</p>","null","1","","","","","","",""
"615.6400000001304","","image-keyboard-response","406","2695962","0.0-13.0-2.88","l","38","Images/car_2.png","76","1","1583117396637","match","car","car","sound","test","true"
"null","","audio-keyboard-response","407","2697967","0.0-13.0-3.88","l","38","Sounds/correct.wav","null","1","","","","","","",""
"null","","audio-keyboard-response","408","2698660","0.0-13.0-0.89","l","38","Sounds/whistle_sound.wav","null","1","","","","","","",""
"null","","html-keyboard-response","409","2699678","0.0-13.0-1.89","l","38","<p style=""font-size: 48px;"">+</p>","null","1","","","","","","",""
"554.1249999990687","","image-keyboard-response","410","2700234","0.0-13.0-2.89","l","38","Images/whistle_orig.png","76","1","1583117400971","match","whistle","whistle","sound","test","true"
"null","","audio-keyboard-response","411","2702250","0.0-13.0-3.89","l","38","Sounds/correct.wav","null","1","","","","","","",""
"null","","audio-keyboard-response","412","2702940","0.0-13.0-0.90","l","38","Sounds/rooster_label.wav","null","1","","","","","","",""
"null","","html-keyboard-response","413","2703945","0.0-13.0-1.90","l","38","<p style=""font-size: 48px;"">+</p>","null","1","","","","","","",""
"607.1450000000186","","image-keyboard-response","414","2704554","0.0-13.0-2.90","l","38","Images/cat_cartoon.png","65","1","1583117405237","non-match","cat","rooster","label","test","true"
"null","","audio-keyboard-response","415","2706565","0.0-13.0-3.90","l","38","Sounds/correct.wav","null","1","","","","","","",""
"null","","audio-keyboard-response","416","2707400","0.0-13.0-0.91","l","38","Sounds/cat_sound.wav","null","1","","","","","","",""
"null","","html-keyboard-response","417","2708395","0.0-13.0-1.91","l","38","<p style=""font-size: 48px;"">+</p>","null","1","","","","","","",""
"653.6350000007078","","image-keyboard-response","418","2709050","0.0-13.0-2.91","l","38","Images/dog_orig.png","65","1","1583117409687","non-match","dog","cat","sound","test","true"
"null","","audio-keyboard-response","419","2711062","0.0-13.0-3.91","l","38","Sounds/correct.wav","null","1","","","","","","",""
"null","","audio-keyboard-response","420","2711760","0.0-13.0-0.92","l","38","Sounds/rooster_sound.wav","null","1","","","","","","",""
"null","","html-keyboard-response","421","2712779","0.0-13.0-1.92","l","38","<p style=""font-size: 48px;"">+</p>","null","1","","","","","","",""
"573.9150000005029","","image-keyboard-response","422","2713354","0.0-13.0-2.92","l","38","Images/rooster_3.png","76","1","1583117414071","match","rooster","rooster","sound","test","true"
"null","","audio-keyboard-response","423","2715366","0.0-13.0-3.92","l","38","Sounds/correct.wav","null","1","","","","","","",""
"null","","audio-keyboard-response","424","2716021","0.0-13.0-0.93","l","38","Sounds/dog_label.wav","null","1","","","","","","",""
"null","","html-keyboard-response","425","2717012","0.0-13.0-1.93","l","38","<p style=""font-size: 48px;"">+</p>","null","1","","","","","","",""
"596.72999999905","","image-keyboard-response","426","2717610","0.0-13.0-2.93","l","38","Images/motorcycle_2.png","65","1","1583117418305","non-match","motorcycle","dog","label","test","true"
"null","","audio-keyboard-response","427","2719618","0.0-13.0-3.93","l","38","Sounds/correct.wav","null","1","","","","","","",""
"null","","audio-keyboard-response","428","2720201","0.0-13.0-0.94","l","38","Sounds/gun_label.wav","null","1","","","","","","",""
"null","","html-keyboard-response","429","2721196","0.0-13.0-1.94","l","38","<p style=""font-size: 48px;"">+</p>","null","1","","","","","","",""
"653.3300000010058","","image-keyboard-response","430","2721850","0.0-13.0-2.94","l","38","Images/motorcycle_orig.png","65","1","1583117422488","non-match","motorcycle","gun","label","test","true"
"null","","audio-keyboard-response","431","2723861","0.0-13.0-3.94","l","38","Sounds/correct.wav","null","1","","","","","","",""
"null","","audio-keyboard-response","432","2725141","0.0-13.0-0.95","l","38","Sounds/train_label.wav","null","1","","","","","","",""
"null","","html-keyboard-response","433","2726146","0.0-13.0-1.95","l","38","<p style=""font-size: 48px;"">+</p>","null","1","","","","","","",""
"741.5549999987707","","image-keyboard-response","434","2726890","0.0-13.0-2.95","l","38","Images/train_2.png","76","1","1583117427438","match","train","train","label","test","true"
"null","","audio-keyboard-response","435","2728902","0.0-13.0-3.95","l","38","Sounds/correct.wav","null","1","","","","","","",""
"null","","audio-keyboard-response","436","2729601","0.0-13.0-0.96","l","38","Sounds/rooster_label.wav","null","1","","","","","","",""
"null","","html-keyboard-response","437","2730596","0.0-13.0-1.96","l","38","<p style=""font-size: 48px;"">+</p>","null","1","","","","","","",""
"565.3199999998324","","image-keyboard-response","438","2731162","0.0-13.0-2.96","l","38","Images/dog_1.png","65","1","1583117431888","non-match","dog","rooster","label","test","true"
"null","","audio-keyboard-response","439","2733171","0.0-13.0-3.96","l","38","Sounds/correct.wav","null","1","","","","","","",""
"null","","audio-keyboard-response","440","2734241","0.0-13.0-0.97","l","38","Sounds/car_label.wav","null","1","","","","","","",""
"null","","html-keyboard-response","441","2735246","0.0-13.0-1.97","l","38","<p style=""font-size: 48px;"">+</p>","null","1","","","","","","",""
"490.6800000006333","","image-keyboard-response","442","2735738","0.0-13.0-2.97","l","38","Images/train_2.png","76","1","1583117436538","non-match","train","car","label","test","false"
"null","","audio-keyboard-response","443","2737741","0.0-13.0-3.97","l","38","Sounds/incorrect.wav","null","1","","","","","","",""
"null","","audio-keyboard-response","444","2738641","0.0-13.0-0.98","l","38","Sounds/frog_label.wav","null","1","","","","","","",""
"null","","html-keyboard-response","445","2739629","0.0-13.0-1.98","l","38","<p style=""font-size: 48px;"">+</p>","null","1","","","","","","",""
"539.7100000008941","","image-keyboard-response","446","2740170","0.0-13.0-2.98","l","38","Images/frog_cartoon.png","76","1","1583117440921","match","frog","frog","label","test","true"
"null","","audio-keyboard-response","447","2742187","0.0-13.0-3.98","l","38","Sounds/correct.wav","null","1","","","","","","",""
"null","","audio-keyboard-response","448","2743481","0.0-13.0-0.99","l","38","Sounds/train_sound.wav","null","1","","","","","","",""
"null","","html-keyboard-response","449","2744479","0.0-13.0-1.99","l","38","<p style=""font-size: 48px;"">+</p>","null","1","","","","","","",""
"537.5049999980256","","image-keyboard-response","450","2745018","0.0-13.0-2.99","l","38","Images/train_3.png","76","1","1583117445772","match","train","train","sound","test","true"
"null","","audio-keyboard-response","451","2747032","0.0-13.0-3.99","l","38","Sounds/correct.wav","null","1","","","","","","",""
"8225.739999999758","","html-keyboard-response","452","2755258","0.0-14.0","l","38","<p>Please take this opportunity to rest your eyes before proceeding.</p><p>When ready, press the enter key to continue to the next set of trials.</p>","76","","","","","","","",""
"null","","audio-keyboard-response","453","2758347","0.0-15.0-0.0","l","38","Sounds/motorcycle_sound.wav","null","2","","","","","","",""
"null","","html-keyboard-response","454","2759346","0.0-15.0-1.0","l","38","<p style=""font-size: 48px;"">+</p>","null","2","","","","","","",""
"582.555000001099","","image-keyboard-response","455","2759930","0.0-15.0-2.0","l","38","Images/car_3.png","76","2","1583117460638","non-match","car","motorcycle","sound","test","false"
"null","","audio-keyboard-response","456","2761935","0.0-15.0-3.0","l","38","Sounds/incorrect.wav","null","2","","","","","","",""
"null","","audio-keyboard-response","457","2763227","0.0-15.0-0.1","l","38","Sounds/train_sound.wav","null","2","","","","","","",""
"null","","html-keyboard-response","458","2764229","0.0-15.0-1.1","l","38","<p style=""font-size: 48px;"">+</p>","null","2","","","","","","",""
"691.4900000011548","","image-keyboard-response","459","2764922","0.0-15.0-2.1","l","38","Images/train_orig.png","76","2","1583117465522","match","train","train","sound","test","true"
"null","","audio-keyboard-response","460","2766926","0.0-15.0-3.1","l","38","Sounds/correct.wav","null","2","","","","","","",""
"null","","audio-keyboard-response","461","2768007","0.0-15.0-0.2","l","38","Sounds/car_label.wav","null","2","","","","","","",""
"null","","html-keyboard-response","462","2769013","0.0-15.0-1.2","l","38","<p style=""font-size: 48px;"">+</p>","null","2","","","","","","",""
"675.9550000005402","","image-keyboard-response","463","2769690","0.0-15.0-2.2","l","38","Images/car_1.png","76","2","1583117470305","match","car","car","label","test","true"
"null","","audio-keyboard-response","464","2771695","0.0-15.0-3.2","l","38","Sounds/correct.wav","null","2","","","","","","",""
"null","","audio-keyboard-response","465","2772387","0.0-15.0-0.3","l","38","Sounds/rooster_label.wav","null","2","","","","","","",""
"null","","html-keyboard-response","466","2773380","0.0-15.0-1.3","l","38","<p style=""font-size: 48px;"">+</p>","null","2","","","","","","",""
"565.089999999851","","image-keyboard-response","467","2773946","0.0-15.0-2.3","l","38","Images/gun_orig.png","65","2","1583117474672","non-match","gun","rooster","label","test","true"
"null","","audio-keyboard-response","468","2775954","0.0-15.0-3.3","l","38","Sounds/correct.wav","null","2","","","","","","",""
"null","","audio-keyboard-response","469","2777008","0.0-15.0-0.4","l","38","Sounds/car_label.wav","null","2","","","","","","",""
"null","","html-keyboard-response","470","2778014","0.0-15.0-1.4","l","38","<p style=""font-size: 48px;"">+</p>","null","2","","","","","","",""
"587.6299999998882","","image-keyboard-response","471","2778603","0.0-15.0-2.4","l","38","Images/cat_orig.png","65","2","1583117479306","non-match","cat","car","label","test","true"
"null","","audio-keyboard-response","472","2780617","0.0-15.0-3.4","l","38","Sounds/correct.wav","null","2","","","","","","",""
"null","","audio-keyboard-response","473","2781668","0.0-15.0-0.5","l","38","Sounds/car_label.wav","null","2","","","","","","",""
"null","","html-keyboard-response","474","2782664","0.0-15.0-1.5","l","38","<p style=""font-size: 48px;"">+</p>","null","2","","","","","","",""
"546.2949999999255","","image-keyboard-response","475","2783211","0.0-15.0-2.5","l","38","Images/frog_1.png","65","2","1583117483956","non-match","frog","car","label","test","true"
"null","","audio-keyboard-response","476","2785223","0.0-15.0-3.5","l","38","Sounds/correct.wav","null","2","","","","","","",""
"null","","audio-keyboard-response","477","2785808","0.0-15.0-0.6","l","38","Sounds/gun_sound.wav","null","2","","","","","","",""
"null","","html-keyboard-response","478","2786814","0.0-15.0-1.6","l","38","<p style=""font-size: 48px;"">+</p>","null","2","","","","","","",""
"651.6149999988265","","image-keyboard-response","479","2787467","0.0-15.0-2.6","l","38","Images/train_1.png","65","2","1583117488106","non-match","train","gun","sound","test","true"
"null","","audio-keyboard-response","480","2789479","0.0-15.0-3.6","l","38","Sounds/correct.wav","null","2","","","","","","",""
"null","","audio-keyboard-response","481","2790168","0.0-15.0-0.7","l","38","Sounds/whistle_label.wav","null","2","","","","","","",""
"null","","html-keyboard-response","482","2791164","0.0-15.0-1.7","l","38","<p style=""font-size: 48px;"">+</p>","null","2","","","","","","",""
"477.7649999996647","","image-keyboard-response","483","2791643","0.0-15.0-2.7","l","38","Images/whistle_orig.png","76","2","1583117492456","match","whistle","whistle","label","test","true"
"null","","audio-keyboard-response","484","2793659","0.0-15.0-3.7","l","38","Sounds/correct.wav","null","2","","","","","","",""
"null","","audio-keyboard-response","485","2794348","0.0-15.0-0.8","l","38","Sounds/whistle_sound.wav","null","2","","","","","","",""
"null","","html-keyboard-response","486","2795347","0.0-15.0-1.8","l","38","<p style=""font-size: 48px;"">+</p>","null","2","","","","","","",""
"694.5900000007823","","image-keyboard-response","487","2796043","0.0-15.0-2.8","l","38","Images/whistle_3.png","76","2","1583117496639","match","whistle","whistle","sound","test","true"
"null","","audio-keyboard-response","488","2798059","0.0-15.0-3.8","l","38","Sounds/correct.wav","null","2","","","","","","",""
"null","","audio-keyboard-response","489","2798748","0.0-15.0-0.9","l","38","Sounds/rooster_sound.wav","null","2","","","","","","",""
"null","","html-keyboard-response","490","2799747","0.0-15.0-1.9","l","38","<p style=""font-size: 48px;"">+</p>","null","2","","","","","","",""
"854.4650000003166","","image-keyboard-response","491","2800603","0.0-15.0-2.9","l","38","Images/train_3.png","65","2","1583117501039","non-match","train","rooster","sound","test","true"
"null","","audio-keyboard-response","492","2802618","0.0-15.0-3.9","l","38","Sounds/correct.wav","null","2","","","","","","",""
"null","","audio-keyboard-response","493","2803448","0.0-15.0-0.10","l","38","Sounds/cat_sound.wav","null","2","","","","","","",""
"null","","html-keyboard-response","494","2804447","0.0-15.0-1.10","l","38","<p style=""font-size: 48px;"">+</p>","null","2","","","","","","",""
"602.4900000011548","","image-keyboard-response","495","2805051","0.0-15.0-2.10","l","38","Images/cat_2.png","76","2","1583117505739","match","cat","cat","sound","test","true"
"null","","audio-keyboard-response","496","2807068","0.0-15.0-3.10","l","38","Sounds/correct.wav","null","2","","","","","","",""
"null","","audio-keyboard-response","497","2808088","0.0-15.0-0.11","l","38","Sounds/cow_label.wav","null","2","","","","","","",""
"null","","html-keyboard-response","498","2809081","0.0-15.0-1.11","l","38","<p style=""font-size: 48px;"">+</p>","null","2","","","","","","",""
"577.2149999993853","","image-keyboard-response","499","2809659","0.0-15.0-2.11","l","38","Images/cow_cartoon.png","76","2","1583117510373","match","cow","cow","label","test","true"
"null","","audio-keyboard-response","500","2811670","0.0-15.0-3.11","l","38","Sounds/correct.wav","null","2","","","","","","",""
"null","","audio-keyboard-response","501","2812668","0.0-15.0-0.12","l","38","Sounds/cow_label.wav","null","2","","","","","","",""
"null","","html-keyboard-response","502","2813664","0.0-15.0-1.12","l","38","<p style=""font-size: 48px;"">+</p>","null","2","","","","","","",""
"601.5299999997951","","image-keyboard-response","503","2814267","0.0-15.0-2.12","l","38","Images/cat_2.png","65","2","1583117514956","non-match","cat","cow","label","test","true"
"null","","audio-keyboard-response","504","2816284","0.0-15.0-3.12","l","38","Sounds/correct.wav","null","2","","","","","","",""
"null","","audio-keyboard-response","505","2816868","0.0-15.0-0.13","l","38","Sounds/gun_sound.wav","null","2","","","","","","",""
"null","","html-keyboard-response","506","2817864","0.0-15.0-1.13","l","38","<p style=""font-size: 48px;"">+</p>","null","2","","","","","","",""
"625.4649999989197","","image-keyboard-response","507","2818491","0.0-15.0-2.13","l","38","Images/gun_2.png","76","2","1583117519156","match","gun","gun","sound","test","true"
"null","","audio-keyboard-response","508","2820502","0.0-15.0-3.13","l","38","Sounds/correct.wav","null","2","","","","","","",""
"null","","audio-keyboard-response","509","2821328","0.0-15.0-0.14","l","38","Sounds/cat_sound.wav","null","2","","","","","","",""
"null","","html-keyboard-response","510","2822331","0.0-15.0-1.14","l","38","<p style=""font-size: 48px;"">+</p>","null","2","","","","","","",""
"607.1400000001304","","image-keyboard-response","511","2822939","0.0-15.0-2.14","l","38","Images/cat_1.png","76","2","1583117523623","match","cat","cat","sound","test","true"
"null","","audio-keyboard-response","512","2824950","0.0-15.0-3.14","l","38","Sounds/correct.wav","null","2","","","","","","",""
"null","","audio-keyboard-response","513","2825648","0.0-15.0-0.15","l","38","Sounds/whistle_label.wav","null","2","","","","","","",""
"null","","html-keyboard-response","514","2826647","0.0-15.0-1.15","l","38","<p style=""font-size: 48px;"">+</p>","null","2","","","","","","",""
"610.4149999991059","","image-keyboard-response","515","2827259","0.0-15.0-2.15","l","38","Images/whistle_2.png","76","2","1583117527940","match","whistle","whistle","label","test","true"
"null","","audio-keyboard-response","516","2829266","0.0-15.0-3.15","l","38","Sounds/correct.wav","null","2","","","","","","",""
"null","","audio-keyboard-response","517","2829968","0.0-15.0-0.16","l","38","Sounds/dog_sound.wav","null","2","","","","","","",""
"null","","html-keyboard-response","518","2830964","0.0-15.0-1.16","l","38","<p style=""font-size: 48px;"">+</p>","null","2","","","","","","",""
"565.3799999998882","","image-keyboard-response","519","2831531","0.0-15.0-2.16","l","38","Images/dog_1.png","76","2","1583117532256","match","dog","dog","sound","test","true"
"null","","audio-keyboard-response","520","2833536","0.0-15.0-3.16","l","38","Sounds/correct.wav","null","2","","","","","","",""
"null","","audio-keyboard-response","521","2834428","0.0-15.0-0.17","l","38","Sounds/frog_label.wav","null","2","","","","","","",""
"null","","html-keyboard-response","522","2835431","0.0-15.0-1.17","l","38","<p style=""font-size: 48px;"">+</p>","null","2","","","","","","",""
"578.8699999991804","","image-keyboard-response","523","2836011","0.0-15.0-2.17","l","38","Images/cow_1.png","65","2","1583117536723","non-match","cow","frog","label","test","true"
"null","","audio-keyboard-response","524","2838029","0.0-15.0-3.17","l","38","Sounds/correct.wav","null","2","","","","","","",""
"null","","audio-keyboard-response","525","2838868","0.0-15.0-0.18","l","38","Sounds/cat_label.wav","null","2","","","","","","",""
"null","","html-keyboard-response","526","2839865","0.0-15.0-1.18","l","38","<p style=""font-size: 48px;"">+</p>","null","2","","","","","","",""
"657.4350000009872","","image-keyboard-response","527","2840523","0.0-15.0-2.18","l","38","Images/rooster_cartoon.png","65","2","1583117541157","non-match","rooster","cat","label","test","true"
"null","","audio-keyboard-response","528","2842530","0.0-15.0-3.18","l","38","Sounds/correct.wav","null","2","","","","","","",""
"null","","audio-keyboard-response","529","2843828","0.0-15.0-0.19","l","38","Sounds/train_label.wav","null","2","","","","","","",""
"null","","html-keyboard-response","530","2844831","0.0-15.0-1.19","l","38","<p style=""font-size: 48px;"">+</p>","null","2","","","","","","",""
"506.70999999996275","","image-keyboard-response","531","2845339","0.0-15.0-2.19","l","38","Images/train_3.png","76","2","1583117546124","match","train","train","label","test","true"
"null","","audio-keyboard-response","532","2847342","0.0-15.0-3.19","l","38","Sounds/correct.wav","null","2","","","","","","",""
"null","","audio-keyboard-response","533","2847988","0.0-15.0-0.20","l","38","Sounds/dog_label.wav","null","2","","","","","","",""
"null","","html-keyboard-response","534","2848981","0.0-15.0-1.20","l","38","<p style=""font-size: 48px;"">+</p>","null","2","","","","","","",""
"645.4100000010803","","image-keyboard-response","535","2849628","0.0-15.0-2.20","l","38","Images/rooster_2.png","65","2","1583117550273","non-match","rooster","dog","label","test","true"
"null","","audio-keyboard-response","536","2851633","0.0-15.0-3.20","l","38","Sounds/correct.wav","null","2","","","","","","",""
"null","","audio-keyboard-response","537","2852708","0.0-15.0-0.21","l","38","Sounds/car_label.wav","null","2","","","","","","",""
"null","","html-keyboard-response","538","2853698","0.0-15.0-1.21","l","38","<p style=""font-size: 48px;"">+</p>","null","2","","","","","","",""
"471.8049999992363","","image-keyboard-response","539","2854171","0.0-15.0-2.21","l","38","Images/car_3.png","76","2","1583117554991","match","car","car","label","test","true"
"null","","audio-keyboard-response","540","2856177","0.0-15.0-3.21","l","38","Sounds/correct.wav","null","2","","","","","","",""
"null","","audio-keyboard-response","541","2856748","0.0-15.0-0.22","l","38","Sounds/gun_label.wav","null","2","","","","","","",""
"null","","html-keyboard-response","542","2857748","0.0-15.0-1.22","l","38","<p style=""font-size: 48px;"">+</p>","null","2","","","","","","",""
"645.8749999981374","","image-keyboard-response","543","2858395","0.0-15.0-2.22","l","38","Images/gun_cartoon.png","76","2","1583117559040","match","gun","gun","label","test","true"
"null","","audio-keyboard-response","544","2860398","0.0-15.0-3.22","l","38","Sounds/correct.wav","null","2","","","","","","",""
"null","","audio-keyboard-response","545","2861668","0.0-15.0-0.23","l","38","Sounds/train_label.wav","null","2","","","","","","",""
"null","","html-keyboard-response","546","2862665","0.0-15.0-1.23","l","38","<p style=""font-size: 48px;"">+</p>","null","2","","","","","","",""
"641.2849999996834","","image-keyboard-response","547","2863307","0.0-15.0-2.23","l","38","Images/whistle_cartoon.png","65","2","1583117563957","non-match","whistle","train","label","test","true"
"null","","audio-keyboard-response","548","2865315","0.0-15.0-3.23","l","38","Sounds/correct.wav","null","2","","","","","","",""
"null","","audio-keyboard-response","549","2866448","0.0-15.0-0.24","l","38","Sounds/motorcycle_label.wav","null","2","","","","","","",""
"null","","html-keyboard-response","550","2867448","0.0-15.0-1.24","l","38","<p style=""font-size: 48px;"">+</p>","null","2","","","","","","",""
"561.8400000003166","","image-keyboard-response","551","2868011","0.0-15.0-2.24","l","38","Images/gun_1.png","65","2","1583117568741","non-match","gun","motorcycle","label","test","true"
"null","","audio-keyboard-response","552","2870022","0.0-15.0-3.24","l","38","Sounds/correct.wav","null","2","","","","","","",""
"null","","audio-keyboard-response","553","2870688","0.0-15.0-0.25","l","38","Sounds/dog_label.wav","null","2","","","","","","",""
"null","","html-keyboard-response","554","2871682","0.0-15.0-1.25","l","38","<p style=""font-size: 48px;"">+</p>","null","2","","","","","","",""
"664.3899999996647","","image-keyboard-response","555","2872347","0.0-15.0-2.25","l","38","Images/dog_cartoon.png","76","2","1583117572974","match","dog","dog","label","test","true"
"null","","audio-keyboard-response","556","2874363","0.0-15.0-3.25","l","38","Sounds/correct.wav","null","2","","","","","","",""
"null","","audio-keyboard-response","557","2875628","0.0-15.0-0.26","l","38","Sounds/train_label.wav","null","2","","","","","","",""
"null","","html-keyboard-response","558","2876632","0.0-15.0-1.26","l","38","<p style=""font-size: 48px;"">+</p>","null","2","","","","","","",""
"802.3000000012107","","image-keyboard-response","559","2877435","0.0-15.0-2.26","l","38","Images/gun_2.png","65","2","1583117577924","non-match","gun","train","label","test","true"
"null","","audio-keyboard-response","560","2879439","0.0-15.0-3.26","l","38","Sounds/correct.wav","null","2","","","","","","",""
"null","","audio-keyboard-response","561","2880268","0.0-15.0-0.27","l","38","Sounds/cat_label.wav","null","2","","","","","","",""
"null","","html-keyboard-response","562","2881265","0.0-15.0-1.27","l","38","<p style=""font-size: 48px;"">+</p>","null","2","","","","","","",""
"552.7299999995157","","image-keyboard-response","563","2881819","0.0-15.0-2.27","l","38","Images/cow_3.png","65","2","1583117582557","non-match","cow","cat","label","test","true"
"null","","audio-keyboard-response","564","2883825","0.0-15.0-3.27","l","38","Sounds/correct.wav","null","2","","","","","","",""
"null","","audio-keyboard-response","565","2884668","0.0-15.0-0.28","l","38","Sounds/cat_sound.wav","null","2","","","","","","",""
"null","","html-keyboard-response","566","2885665","0.0-15.0-1.28","l","38","<p style=""font-size: 48px;"">+</p>","null","2","","","","","","",""
"616.7500000009313","","image-keyboard-response","567","2886283","0.0-15.0-2.28","l","38","Images/cat_orig.png","65","2","1583117586958","match","cat","cat","sound","test","false"
"null","","audio-keyboard-response","568","2888288","0.0-15.0-3.28","l","38","Sounds/incorrect.wav","null","2","","","","","","",""
"null","","audio-keyboard-response","569","2889368","0.0-15.0-0.29","l","38","Sounds/car_label.wav","null","2","","","","","","",""
"null","","html-keyboard-response","570","2890365","0.0-15.0-1.29","l","38","<p style=""font-size: 48px;"">+</p>","null","2","","","","","","",""
"893.1750000012107","","image-keyboard-response","571","2891260","0.0-15.0-2.29","l","38","Images/car_cartoon.png","76","2","1583117591657","match","car","car","label","test","true"
"null","","audio-keyboard-response","572","2893269","0.0-15.0-3.29","l","38","Sounds/correct.wav","null","2","","","","","","",""
"null","","audio-keyboard-response","573","2894388","0.0-15.0-0.30","l","38","Sounds/motorcycle_sound.wav","null","2","","","","","","",""
"null","","html-keyboard-response","574","2895382","0.0-15.0-1.30","l","38","<p style=""font-size: 48px;"">+</p>","null","2","","","","","","",""
"772.14500000095","","image-keyboard-response","575","2896155","0.0-15.0-2.30","l","38","Images/motorcycle_1.png","76","2","1583117596674","match","motorcycle","motorcycle","sound","test","true"
"null","","audio-keyboard-response","576","2898159","0.0-15.0-3.30","l","38","Sounds/correct.wav","null","2","","","","","","",""
"null","","audio-keyboard-response","577","2898848","0.0-15.0-0.31","l","38","Sounds/rooster_sound.wav","null","2","","","","","","",""
"null","","html-keyboard-response","578","2899849","0.0-15.0-1.31","l","38","<p style=""font-size: 48px;"">+</p>","null","2","","","","","","",""
"1009.2449999991804","","image-keyboard-response","579","2900859","0.0-15.0-2.31","l","38","Images/whistle_orig.png","65","2","1583117601141","non-match","whistle","rooster","sound","test","true"
"null","","audio-keyboard-response","580","2902871","0.0-15.0-3.31","l","38","Sounds/correct.wav","null","2","","","","","","",""
"null","","audio-keyboard-response","581","2904008","0.0-15.0-0.32","l","38","Sounds/motorcycle_label.wav","null","2","","","","","","",""
"null","","html-keyboard-response","582","2904999","0.0-15.0-1.32","l","38","<p style=""font-size: 48px;"">+</p>","null","2","","","","","","",""
"723.6350000002421","","image-keyboard-response","583","2905724","0.0-15.0-2.32","l","38","Images/motorcycle_2.png","76","2","1583117606291","match","motorcycle","motorcycle","label","test","true"
"null","","audio-keyboard-response","584","2907728","0.0-15.0-3.32","l","38","Sounds/correct.wav","null","2","","","","","","",""
"null","","audio-keyboard-response","585","2908428","0.0-15.0-0.33","l","38","Sounds/whistle_sound.wav","null","2","","","","","","",""
"null","","html-keyboard-response","586","2909432","0.0-15.0-1.33","l","38","<p style=""font-size: 48px;"">+</p>","null","2","","","","","","",""
"1345.769999999553","","image-keyboard-response","587","2910779","0.0-15.0-2.33","l","38","Images/motorcycle_1.png","65","2","1583117610724","non-match","motorcycle","whistle","sound","test","true"
"null","","audio-keyboard-response","588","2912788","0.0-15.0-3.33","l","38","Sounds/correct.wav","null","2","","","","","","",""
"null","","audio-keyboard-response","589","2913448","0.0-15.0-0.34","l","38","Sounds/dog_label.wav","null","2","","","","","","",""
"null","","html-keyboard-response","590","2914449","0.0-15.0-1.34","l","38","<p style=""font-size: 48px;"">+</p>","null","2","","","","","","",""
"665.2800000011921","","image-keyboard-response","591","2915115","0.0-15.0-2.34","l","38","Images/dog_3.png","76","2","1583117615741","match","dog","dog","label","test","true"
"null","","audio-keyboard-response","592","2917121","0.0-15.0-3.34","l","38","Sounds/correct.wav","null","2","","","","","","",""
"null","","audio-keyboard-response","593","2917948","0.0-15.0-0.35","l","38","Sounds/cat_label.wav","null","2","","","","","","",""
"null","","html-keyboard-response","594","2918949","0.0-15.0-1.35","l","38","<p style=""font-size: 48px;"">+</p>","null","2","","","","","","",""
"661.3249999992549","","image-keyboard-response","595","2919612","0.0-15.0-2.35","l","38","Images/car_orig.png","65","2","1583117620241","non-match","car","cat","label","test","true"
"null","","audio-keyboard-response","596","2921623","0.0-15.0-3.35","l","38","Sounds/correct.wav","null","2","","","","","","",""
"null","","audio-keyboard-response","597","2922928","0.0-15.0-0.36","l","38","Sounds/train_sound.wav","null","2","","","","","","",""
"null","","html-keyboard-response","598","2923932","0.0-15.0-1.36","l","38","<p style=""font-size: 48px;"">+</p>","null","2","","","","","","",""
"684.7649999996647","","image-keyboard-response","599","2924619","0.0-15.0-2.36","l","38","Images/train_1.png","76","2","1583117625225","match","train","train","sound","test","true"
"null","","audio-keyboard-response","600","2926626","0.0-15.0-3.36","l","38","Sounds/correct.wav","null","2","","","","","","",""
"null","","audio-keyboard-response","601","2927468","0.0-15.0-0.37","l","38","Sounds/cat_sound.wav","null","2","","","","","","",""
"null","","html-keyboard-response","602","2928466","0.0-15.0-1.37","l","38","<p style=""font-size: 48px;"">+</p>","null","2","","","","","","",""
"600.3449999988079","","image-keyboard-response","603","2929067","0.0-15.0-2.37","l","38","Images/frog_2.png","65","2","1583117629758","non-match","frog","cat","sound","test","true"
"null","","audio-keyboard-response","604","2931072","0.0-15.0-3.37","l","38","Sounds/correct.wav","null","2","","","","","","",""
"null","","audio-keyboard-response","605","2932088","0.0-15.0-0.38","l","38","Sounds/cow_label.wav","null","2","","","","","","",""
"null","","html-keyboard-response","606","2933082","0.0-15.0-1.38","l","38","<p style=""font-size: 48px;"">+</p>","null","2","","","","","","",""
"575.9450000007637","","image-keyboard-response","607","2933660","0.0-15.0-2.38","l","38","Images/cow_2.png","76","2","1583117634375","match","cow","cow","label","test","true"
"null","","audio-keyboard-response","608","2935669","0.0-15.0-3.38","l","38","Sounds/correct.wav","null","2","","","","","","",""
"null","","audio-keyboard-response","609","2936808","0.0-15.0-0.39","l","38","Sounds/motorcycle_label.wav","null","2","","","","","","",""
"null","","html-keyboard-response","610","2937799","0.0-15.0-1.39","l","38","<p style=""font-size: 48px;"">+</p>","null","2","","","","","","",""
"994.0499999993481","","image-keyboard-response","611","2938796","0.0-15.0-2.39","l","38","Images/train_2.png","65","2","1583117639091","non-match","train","motorcycle","label","test","true"
"null","","audio-keyboard-response","612","2940804","0.0-15.0-3.39","l","38","Sounds/correct.wav","null","2","","","","","","",""
"null","","audio-keyboard-response","613","2941889","0.0-15.0-0.40","l","38","Sounds/car_sound.wav","null","2","","","","","","",""
"null","","html-keyboard-response","614","2942883","0.0-15.0-1.40","l","38","<p style=""font-size: 48px;"">+</p>","null","2","","","","","","",""
"647.4500000006519","","image-keyboard-response","615","2943531","0.0-15.0-2.40","l","38","Images/rooster_3.png","65","2","1583117644175","non-match","rooster","car","sound","test","true"
"null","","audio-keyboard-response","616","2945541","0.0-15.0-3.40","l","38","Sounds/correct.wav","null","2","","","","","","",""
"null","","audio-keyboard-response","617","2946848","0.0-15.0-0.41","l","38","Sounds/train_sound.wav","null","2","","","","","","",""
"null","","html-keyboard-response","618","2947867","0.0-15.0-1.41","l","38","<p style=""font-size: 48px;"">+</p>","null","2","","","","","","",""
"510.8250000011176","","image-keyboard-response","619","2948380","0.0-15.0-2.41","l","38","Images/motorcycle_orig.png","65","2","1583117649158","non-match","motorcycle","train","sound","test","true"
"null","","audio-keyboard-response","620","2950384","0.0-15.0-3.41","l","38","Sounds/correct.wav","null","2","","","","","","",""
"null","","audio-keyboard-response","621","2951648","0.0-15.0-0.42","l","38","Sounds/train_sound.wav","null","2","","","","","","",""
"null","","html-keyboard-response","622","2952666","0.0-15.0-1.42","l","38","<p style=""font-size: 48px;"">+</p>","null","2","","","","","","",""
"576.4149999995716","","image-keyboard-response","623","2953243","0.0-15.0-2.42","l","38","Images/cow_cartoon.png","65","2","1583117653958","non-match","cow","train","sound","test","true"
"null","","audio-keyboard-response","624","2955253","0.0-15.0-3.42","l","38","Sounds/correct.wav","null","2","","","","","","",""
"null","","audio-keyboard-response","625","2955948","0.0-15.0-0.43","l","38","Sounds/whistle_label.wav","null","2","","","","","","",""
"null","","html-keyboard-response","626","2956966","0.0-15.0-1.43","l","38","<p style=""font-size: 48px;"">+</p>","null","2","","","","","","",""
"660.2050000000745","","image-keyboard-response","627","2957627","0.0-15.0-2.43","l","38","Images/whistle_1.png","76","2","1583117658258","match","whistle","whistle","label","test","true"
"null","","audio-keyboard-response","628","2959638","0.0-15.0-3.43","l","38","Sounds/correct.wav","null","2","","","","","","",""
"null","","audio-keyboard-response","629","2960548","0.0-15.0-0.44","l","38","Sounds/frog_sound.wav","null","2","","","","","","",""
"null","","html-keyboard-response","630","2961566","0.0-15.0-1.44","l","38","<p style=""font-size: 48px;"">+</p>","null","2","","","","","","",""
"492.589999999851","","image-keyboard-response","631","2962060","0.0-15.0-2.44","l","38","Images/frog_1.png","76","2","1583117662858","match","frog","frog","sound","test","true"
"null","","audio-keyboard-response","632","2964070","0.0-15.0-3.44","l","38","Sounds/correct.wav","null","2","","","","","","",""
"null","","audio-keyboard-response","633","2965089","0.0-15.0-0.45","l","38","Sounds/cow_sound.wav","null","2","","","","","","",""
"null","","html-keyboard-response","634","2966083","0.0-15.0-1.45","l","38","<p style=""font-size: 48px;"">+</p>","null","2","","","","","","",""
"679.3400000007823","","image-keyboard-response","635","2966763","0.0-15.0-2.45","l","38","Images/dog_1.png","65","2","1583117667375","non-match","dog","cow","sound","test","true"
"null","","audio-keyboard-response","636","2968776","0.0-15.0-3.45","l","38","Sounds/correct.wav","null","2","","","","","","",""
"null","","audio-keyboard-response","637","2969909","0.0-15.0-0.46","l","38","Sounds/motorcycle_label.wav","null","2","","","","","","",""
"null","","html-keyboard-response","638","2970900","0.0-15.0-1.46","l","38","<p style=""font-size: 48px;"">+</p>","null","2","","","","","","",""
"550.5950000006706","","image-keyboard-response","639","2971452","0.0-15.0-2.46","l","38","Images/motorcycle_orig.png","76","2","1583117672192","match","motorcycle","motorcycle","label","test","true"
"null","","audio-keyboard-response","640","2973467","0.0-15.0-3.46","l","38","Sounds/correct.wav","null","2","","","","","","",""
"null","","audio-keyboard-response","641","2974149","0.0-15.0-0.47","l","38","Sounds/whistle_label.wav","null","2","","","","","","",""
"null","","html-keyboard-response","642","2975166","0.0-15.0-1.47","l","38","<p style=""font-size: 48px;"">+</p>","null","2","","","","","","",""
"700.2400000002235","","image-keyboard-response","643","2975868","0.0-15.0-2.47","l","38","Images/cat_3.png","65","2","1583117676459","non-match","cat","whistle","label","test","true"
"null","","audio-keyboard-response","644","2977872","0.0-15.0-3.47","l","38","Sounds/correct.wav","null","2","","","","","","",""
"null","","audio-keyboard-response","645","2978989","0.0-15.0-0.48","l","38","Sounds/motorcycle_sound.wav","null","2","","","","","","",""
"null","","html-keyboard-response","646","2979983","0.0-15.0-1.48","l","38","<p style=""font-size: 48px;"">+</p>","null","2","","","","","","",""
"619.2099999990314","","image-keyboard-response","647","2980604","0.0-15.0-2.48","l","38","Images/motorcycle_cartoon.png","76","2","1583117681275","match","motorcycle","motorcycle","sound","test","true"
"null","","audio-keyboard-response","648","2982606","0.0-15.0-3.48","l","38","Sounds/correct.wav","null","2","","","","","","",""
"null","","audio-keyboard-response","649","2983909","0.0-15.0-0.49","l","38","Sounds/train_label.wav","null","2","","","","","","",""
"null","","html-keyboard-response","650","2984900","0.0-15.0-1.49","l","38","<p style=""font-size: 48px;"">+</p>","null","2","","","","","","",""
"533.7550000003539","","image-keyboard-response","651","2985436","0.0-15.0-2.49","l","38","Images/train_2.png","76","2","1583117686192","match","train","train","label","test","true"
"null","","audio-keyboard-response","652","2987438","0.0-15.0-3.49","l","38","Sounds/correct.wav","null","2","","","","","","",""
"null","","audio-keyboard-response","653","2988509","0.0-15.0-0.50","l","38","Sounds/car_sound.wav","null","2","","","","","","",""
"null","","html-keyboard-response","654","2989500","0.0-15.0-1.50","l","38","<p style=""font-size: 48px;"">+</p>","null","2","","","","","","",""
"574.5900000003166","","image-keyboard-response","655","2990076","0.0-15.0-2.50","l","38","Images/car_2.png","76","2","1583117690792","match","car","car","sound","test","true"
"null","","audio-keyboard-response","656","2992087","0.0-15.0-3.50","l","38","Sounds/correct.wav","null","2","","","","","","",""
"null","","audio-keyboard-response","657","2992789","0.0-15.0-0.51","l","38","Sounds/dog_sound.wav","null","2","","","","","","",""
