[{"rt":18992.87000000004,"responses":"{\"Q0\":\"38\"}","trial_type":"survey-text","trial_index":0,"time_elapsed":19039,"internal_node_id":"0.0-0.0","match_key":"l","participant_id":"38"},{"rt":45329.09500000005,"stimulus":"<p>Use KEYBOARD 1 (match RIGHT)</p><p>Press MATCH to continue.</p>","key_press":76,"trial_type":"html-keyboard-response","trial_index":1,"time_elapsed":64384,"internal_node_id":"0.0-1.0","match_key":"l","participant_id":"38"},{"rt":2053233.7399999995,"stimulus":"<p>Welcome to the experiment.</p>","key_press":76,"trial_type":"html-keyboard-response","trial_index":2,"time_elapsed":2117621,"internal_node_id":"0.0-2.0","match_key":"l","participant_id":"38"},{"rt":9496.80499999877,"stimulus":"<p>Thank you for agreeing to participate in this study.</p><p>If during any part of the procedure you must stop for any reason, please inform the researcher that you do not wish to continue.</p>","key_press":76,"trial_type":"html-keyboard-response","trial_index":3,"time_elapsed":2127124,"internal_node_id":"0.0-3.0","match_key":"l","participant_id":"38"},{"rt":14654.77000000095,"stimulus":"<p>In this experiment, you will hear various words or sounds and see pictures of various animals and objects.</p><p>Most of the images will be of common everyday objects, such as cars, cats, cows, firearms, frogs, chickens, whistles, trains, motorcycles, and dogs.</p><p>Some of the images will be real-life stills, while others will be cartoons.</p>","key_press":76,"trial_type":"html-keyboard-response","trial_index":4,"time_elapsed":2141780,"internal_node_id":"0.0-4.0","match_key":"l","participant_id":"38"},{"rt":12286.679999999236,"stimulus":"<p>Sometimes, the word/sound will match the picture, for example you'll hear a meowing sound and see a cat.</p><p>Other times, the picture will not match the sound or word.</p><p>Your task is to decide as quickly as possible if the word/sound matches the picture or not. </p>","key_press":76,"trial_type":"html-keyboard-response","trial_index":5,"time_elapsed":2154068,"internal_node_id":"0.0-5.0","match_key":"l","participant_id":"38"},{"rt":11118.855000000447,"stimulus":"<p>For example, if you hear the word \"cat\" or hear a meowing sound, and then see a picture of a cat, you should press the MATCH key.</p><p> If the sound and image do not match, press the NOT-MATCH key to indicate that there is not a match.</p>","key_press":65,"trial_type":"html-keyboard-response","trial_index":6,"time_elapsed":2165181,"internal_node_id":"0.0-6.0","match_key":"l","participant_id":"38"},{"rt":10062.764999998733,"stimulus":"<p>If you make a mistake, you will hear a buzzing sound instead of a more pleasant sound.</p><p> Try to respond as quickly as possible, while making as few errors as possible. If you are making mistakes, you are probably rushing.</p>","key_press":76,"trial_type":"html-keyboard-response","trial_index":7,"time_elapsed":2175246,"internal_node_id":"0.0-7.0","match_key":"l","participant_id":"38"},{"rt":9693.98499999987,"stimulus":"<p>Please try to not move or blink your eyes during the presentation of the images. You can move and blink between images.</p><p>During the experiment there will be some breaks during which you can rest your eyes.</p>","key_press":76,"trial_type":"html-keyboard-response","trial_index":8,"time_elapsed":2184941,"internal_node_id":"0.0-8.0","match_key":"l","participant_id":"38"},{"rt":7742.810000000056,"stimulus":"<p>We will begin with 10 practice trials. Please let the experimenter know if you have any questions.</p>","key_press":76,"trial_type":"html-keyboard-response","trial_index":9,"time_elapsed":2192685,"internal_node_id":"0.0-9.0","match_key":"l","participant_id":"38"},{"rt":null,"stimulus":"Sounds/cat_sound.wav","key_press":null,"block":0,"trial_type":"audio-keyboard-response","trial_index":10,"time_elapsed":2193623,"internal_node_id":"0.0-10.0-0.0","match_key":"l","participant_id":"38"},{"rt":null,"stimulus":"<p style=\"font-size: 48px;\">+</p>","key_press":null,"block":0,"trial_type":"html-keyboard-response","trial_index":11,"time_elapsed":2194627,"internal_node_id":"0.0-10.0-1.0","match_key":"l","participant_id":"38"},{"rt":535.8450000002049,"stimulus":"Images/cat_cartoon.png","key_press":76,"stim_onset":1583116895919,"block":0,"match_type":"match","image_category":"cat","sound_category":"cat","audio_type":"sound","phase":"practice","trial_type":"image-keyboard-response","trial_index":12,"time_elapsed":2195165,"internal_node_id":"0.0-10.0-2.0","match_key":"l","participant_id":"38","correct":true},{"rt":null,"stimulus":"Sounds/correct.wav","key_press":null,"block":0,"trial_type":"audio-keyboard-response","trial_index":13,"time_elapsed":2197170,"internal_node_id":"0.0-10.0-3.0","match_key":"l","participant_id":"38"},{"rt":null,"stimulus":"Sounds/motorcycle_sound.wav","key_press":null,"block":0,"trial_type":"audio-keyboard-response","trial_index":14,"time_elapsed":2198283,"internal_node_id":"0.0-10.0-0.1","match_key":"l","participant_id":"38"},{"rt":null,"stimulus":"<p style=\"font-size: 48px;\">+</p>","key_press":null,"block":0,"trial_type":"html-keyboard-response","trial_index":15,"time_elapsed":2199277,"internal_node_id":"0.0-10.0-1.1","match_key":"l","participant_id":"38"},{"rt":526.3649999997579,"stimulus":"Images/dog_2.png","key_press":65,"stim_onset":1583116900569,"block":0,"match_type":"non-match","image_category":"dog","sound_category":"motorcycle","audio_type":"sound","phase":"practice","trial_type":"image-keyboard-response","trial_index":16,"time_elapsed":2199805,"internal_node_id":"0.0-10.0-2.1","match_key":"l","participant_id":"38","correct":true},{"rt":null,"stimulus":"Sounds/correct.wav","key_press":null,"block":0,"trial_type":"audio-keyboard-response","trial_index":17,"time_elapsed":2201818,"internal_node_id":"0.0-10.0-3.1","match_key":"l","participant_id":"38"},{"rt":null,"stimulus":"Sounds/train_sound.wav","key_press":null,"block":0,"trial_type":"audio-keyboard-response","trial_index":18,"time_elapsed":2203123,"internal_node_id":"0.0-10.0-0.2","match_key":"l","participant_id":"38"},{"rt":null,"stimulus":"<p style=\"font-size: 48px;\">+</p>","key_press":null,"block":0,"trial_type":"html-keyboard-response","trial_index":19,"time_elapsed":2204127,"internal_node_id":"0.0-10.0-1.2","match_key":"l","participant_id":"38"},{"rt":556.8249999997206,"stimulus":"Images/train_3.png","key_press":76,"stim_onset":1583116905419,"block":0,"match_type":"match","image_category":"train","sound_category":"train","audio_type":"sound","phase":"practice","trial_type":"image-keyboard-response","trial_index":20,"time_elapsed":2204685,"internal_node_id":"0.0-10.0-2.2","match_key":"l","participant_id":"38","correct":true},{"rt":null,"stimulus":"Sounds/correct.wav","key_press":null,"block":0,"trial_type":"audio-keyboard-response","trial_index":21,"time_elapsed":2206699,"internal_node_id":"0.0-10.0-3.2","match_key":"l","participant_id":"38"},{"rt":null,"stimulus":"Sounds/frog_label.wav","key_press":null,"block":0,"trial_type":"audio-keyboard-response","trial_index":22,"time_elapsed":2207603,"internal_node_id":"0.0-10.0-0.3","match_key":"l","participant_id":"38"},{"rt":null,"stimulus":"<p style=\"font-size: 48px;\">+</p>","key_press":null,"block":0,"trial_type":"html-keyboard-response","trial_index":23,"time_elapsed":2208594,"internal_node_id":"0.0-10.0-1.3","match_key":"l","participant_id":"38"},{"rt":393.70999999996275,"stimulus":"Images/frog_2.png","key_press":76,"stim_onset":1583116909886,"block":0,"match_type":"match","image_category":"frog","sound_category":"frog","audio_type":"label","phase":"practice","trial_type":"image-keyboard-response","trial_index":24,"time_elapsed":2208989,"internal_node_id":"0.0-10.0-2.3","match_key":"l","participant_id":"38","correct":true},{"rt":null,"stimulus":"Sounds/correct.wav","key_press":null,"block":0,"trial_type":"audio-keyboard-response","trial_index":25,"time_elapsed":2210996,"internal_node_id":"0.0-10.0-3.3","match_key":"l","participant_id":"38"},{"rt":null,"stimulus":"Sounds/cow_sound.wav","key_press":null,"block":0,"trial_type":"audio-keyboard-response","trial_index":26,"time_elapsed":2212023,"internal_node_id":"0.0-10.0-0.4","match_key":"l","participant_id":"38"},{"rt":null,"stimulus":"<p style=\"font-size: 48px;\">+</p>","key_press":null,"block":0,"trial_type":"html-keyboard-response","trial_index":27,"time_elapsed":2213027,"internal_node_id":"0.0-10.0-1.4","match_key":"l","participant_id":"38"},{"rt":504.38500000024214,"stimulus":"Images/cow_cartoon.png","key_press":76,"stim_onset":1583116914319,"block":0,"match_type":"match","image_category":"cow","sound_category":"cow","audio_type":"sound","phase":"practice","trial_type":"image-keyboard-response","trial_index":28,"time_elapsed":2213533,"internal_node_id":"0.0-10.0-2.4","match_key":"l","participant_id":"38","correct":true},{"rt":null,"stimulus":"Sounds/correct.wav","key_press":null,"block":0,"trial_type":"audio-keyboard-response","trial_index":29,"time_elapsed":2215538,"internal_node_id":"0.0-10.0-3.4","match_key":"l","participant_id":"38"},{"rt":null,"stimulus":"Sounds/dog_label.wav","key_press":null,"block":0,"trial_type":"audio-keyboard-response","trial_index":30,"time_elapsed":2216203,"internal_node_id":"0.0-10.0-0.5","match_key":"l","participant_id":"38"},{"rt":null,"stimulus":"<p style=\"font-size: 48px;\">+</p>","key_press":null,"block":0,"trial_type":"html-keyboard-response","trial_index":31,"time_elapsed":2217194,"internal_node_id":"0.0-10.0-1.5","match_key":"l","participant_id":"38"},{"rt":513.75,"stimulus":"Images/dog_orig.png","key_press":76,"stim_onset":1583116918486,"block":0,"match_type":"match","image_category":"dog","sound_category":"dog","audio_type":"label","phase":"practice","trial_type":"image-keyboard-response","trial_index":32,"time_elapsed":2217709,"internal_node_id":"0.0-10.0-2.5","match_key":"l","participant_id":"38","correct":true},{"rt":null,"stimulus":"Sounds/correct.wav","key_press":null,"block":0,"trial_type":"audio-keyboard-response","trial_index":33,"time_elapsed":2219720,"internal_node_id":"0.0-10.0-3.5","match_key":"l","participant_id":"38"},{"rt":null,"stimulus":"Sounds/rooster_label.wav","key_press":null,"block":0,"trial_type":"audio-keyboard-response","trial_index":34,"time_elapsed":2220423,"internal_node_id":"0.0-10.0-0.6","match_key":"l","participant_id":"38"},{"rt":null,"stimulus":"<p style=\"font-size: 48px;\">+</p>","key_press":null,"block":0,"trial_type":"html-keyboard-response","trial_index":35,"time_elapsed":2221427,"internal_node_id":"0.0-10.0-1.6","match_key":"l","participant_id":"38"},{"rt":424.00499999849126,"stimulus":"Images/dog_1.png","key_press":65,"stim_onset":1583116922719,"block":0,"match_type":"non-match","image_category":"dog","sound_category":"rooster","audio_type":"label","phase":"practice","trial_type":"image-keyboard-response","trial_index":36,"time_elapsed":2221853,"internal_node_id":"0.0-10.0-2.6","match_key":"l","participant_id":"38","correct":true},{"rt":null,"stimulus":"Sounds/correct.wav","key_press":null,"block":0,"trial_type":"audio-keyboard-response","trial_index":37,"time_elapsed":2223860,"internal_node_id":"0.0-10.0-3.6","match_key":"l","participant_id":"38"},{"rt":null,"stimulus":"Sounds/whistle_sound.wav","key_press":null,"block":0,"trial_type":"audio-keyboard-response","trial_index":38,"time_elapsed":2224563,"internal_node_id":"0.0-10.0-0.7","match_key":"l","participant_id":"38"},{"rt":null,"stimulus":"<p style=\"font-size: 48px;\">+</p>","key_press":null,"block":0,"trial_type":"html-keyboard-response","trial_index":39,"time_elapsed":2225568,"internal_node_id":"0.0-10.0-1.7","match_key":"l","participant_id":"38"},{"rt":771.0200000000186,"stimulus":"Images/car_cartoon.png","key_press":65,"stim_onset":1583116926861,"block":0,"match_type":"non-match","image_category":"car","sound_category":"whistle","audio_type":"sound","phase":"practice","trial_type":"image-keyboard-response","trial_index":40,"time_elapsed":2226341,"internal_node_id":"0.0-10.0-2.7","match_key":"l","participant_id":"38","correct":true},{"rt":null,"stimulus":"Sounds/correct.wav","key_press":null,"block":0,"trial_type":"audio-keyboard-response","trial_index":41,"time_elapsed":2228344,"internal_node_id":"0.0-10.0-3.7","match_key":"l","participant_id":"38"},{"rt":null,"stimulus":"Sounds/rooster_label.wav","key_press":null,"block":0,"trial_type":"audio-keyboard-response","trial_index":42,"time_elapsed":2229011,"internal_node_id":"0.0-10.0-0.8","match_key":"l","participant_id":"38"},{"rt":null,"stimulus":"<p style=\"font-size: 48px;\">+</p>","key_press":null,"block":0,"trial_type":"html-keyboard-response","trial_index":43,"time_elapsed":2230002,"internal_node_id":"0.0-10.0-1.8","match_key":"l","participant_id":"38"},{"rt":449.5499999993481,"stimulus":"Images/whistle_2.png","key_press":65,"stim_onset":1583116931294,"block":0,"match_type":"non-match","image_category":"whistle","sound_category":"rooster","audio_type":"label","phase":"practice","trial_type":"image-keyboard-response","trial_index":44,"time_elapsed":2230453,"internal_node_id":"0.0-10.0-2.8","match_key":"l","participant_id":"38","correct":true},{"rt":null,"stimulus":"Sounds/correct.wav","key_press":null,"block":0,"trial_type":"audio-keyboard-response","trial_index":45,"time_elapsed":2232467,"internal_node_id":"0.0-10.0-3.8","match_key":"l","participant_id":"38"},{"rt":null,"stimulus":"Sounds/rooster_sound.wav","key_press":null,"block":0,"trial_type":"audio-keyboard-response","trial_index":46,"time_elapsed":2233171,"internal_node_id":"0.0-10.0-0.9","match_key":"l","participant_id":"38"},{"rt":null,"stimulus":"<p style=\"font-size: 48px;\">+</p>","key_press":null,"block":0,"trial_type":"html-keyboard-response","trial_index":47,"time_elapsed":2234169,"internal_node_id":"0.0-10.0-1.9","match_key":"l","participant_id":"38"},{"rt":874.8100000014529,"stimulus":"Images/gun_orig.png","key_press":65,"stim_onset":1583116935461,"block":0,"match_type":"non-match","image_category":"gun","sound_category":"rooster","audio_type":"sound","phase":"practice","trial_type":"image-keyboard-response","trial_index":48,"time_elapsed":2235045,"internal_node_id":"0.0-10.0-2.9","match_key":"l","participant_id":"38","correct":true},{"rt":null,"stimulus":"Sounds/correct.wav","key_press":null,"block":0,"trial_type":"audio-keyboard-response","trial_index":49,"time_elapsed":2237051,"internal_node_id":"0.0-10.0-3.9","match_key":"l","participant_id":"38"},{"rt":56442.03500000015,"stimulus":"<p>The rest of the experiment is divided into five blocks with 100 trials in each block. It will take about 45 minutes to complete.</p><p>The experimenter will be in the outer room and you can communicate with them through the monitor if you have any questions or wish to stop the experiment.</p>","key_press":76,"trial_type":"html-keyboard-response","trial_index":50,"time_elapsed":2293480,"internal_node_id":"0.0-11.0","match_key":"l","participant_id":"38"},{"rt":2189.6049999999814,"stimulus":"<p>Remember, please try not to move or blink your eyes during the presentation of the images. </p><p>At the end of the experiment, we will show you your scores on the task so you can see how you did.</p><p>The experiment will start on the next screen.</p>","key_press":76,"trial_type":"html-keyboard-response","trial_index":51,"time_elapsed":2295670,"internal_node_id":"0.0-12.0","match_key":"l","participant_id":"38"},{"rt":null,"stimulus":"Sounds/train_label.wav","key_press":null,"block":1,"trial_type":"audio-keyboard-response","trial_index":52,"time_elapsed":2298961,"internal_node_id":"0.0-13.0-0.0","match_key":"l","participant_id":"38"},{"rt":null,"stimulus":"<p style=\"font-size: 48px;\">+</p>","key_press":null,"block":1,"trial_type":"html-keyboard-response","trial_index":53,"time_elapsed":2299955,"internal_node_id":"0.0-13.0-1.0","match_key":"l","participant_id":"38"},{"rt":562.1650000009686,"stimulus":"Images/whistle_1.png","key_press":65,"stim_onset":1583117001247,"block":1,"match_type":"non-match","image_category":"whistle","sound_category":"train","audio_type":"label","phase":"test","trial_type":"image-keyboard-response","trial_index":54,"time_elapsed":2300519,"internal_node_id":"0.0-13.0-2.0","match_key":"l","participant_id":"38","correct":true},{"rt":null,"stimulus":"Sounds/correct.wav","key_press":null,"block":1,"trial_type":"audio-keyboard-response","trial_index":55,"time_elapsed":2302529,"internal_node_id":"0.0-13.0-3.0","match_key":"l","participant_id":"38"},{"rt":null,"stimulus":"Sounds/cow_sound.wav","key_press":null,"block":1,"trial_type":"audio-keyboard-response","trial_index":56,"time_elapsed":2303543,"internal_node_id":"0.0-13.0-0.1","match_key":"l","participant_id":"38"},{"rt":null,"stimulus":"<p style=\"font-size: 48px;\">+</p>","key_press":null,"block":1,"trial_type":"html-keyboard-response","trial_index":57,"time_elapsed":2304538,"internal_node_id":"0.0-13.0-1.1","match_key":"l","participant_id":"38"},{"rt":555.0449999989942,"stimulus":"Images/cow_3.png","key_press":76,"stim_onset":1583117005831,"block":1,"match_type":"match","image_category":"cow","sound_category":"cow","audio_type":"sound","phase":"test","trial_type":"image-keyboard-response","trial_index":58,"time_elapsed":2305095,"internal_node_id":"0.0-13.0-2.1","match_key":"l","participant_id":"38","correct":true},{"rt":null,"stimulus":"Sounds/correct.wav","key_press":null,"block":1,"trial_type":"audio-keyboard-response","trial_index":59,"time_elapsed":2307098,"internal_node_id":"0.0-13.0-3.1","match_key":"l","participant_id":"38"},{"rt":null,"stimulus":"Sounds/cow_label.wav","key_press":null,"block":1,"trial_type":"audio-keyboard-response","trial_index":60,"time_elapsed":2308121,"internal_node_id":"0.0-13.0-0.2","match_key":"l","participant_id":"38"},{"rt":null,"stimulus":"<p style=\"font-size: 48px;\">+</p>","key_press":null,"block":1,"trial_type":"html-keyboard-response","trial_index":61,"time_elapsed":2309139,"internal_node_id":"0.0-13.0-1.2","match_key":"l","participant_id":"38"},{"rt":610.7399999997579,"stimulus":"Images/cow_orig.png","key_press":76,"stim_onset":1583117010431,"block":1,"match_type":"match","image_category":"cow","sound_category":"cow","audio_type":"label","phase":"test","trial_type":"image-keyboard-response","trial_index":62,"time_elapsed":2309751,"internal_node_id":"0.0-13.0-2.2","match_key":"l","participant_id":"38","correct":true},{"rt":null,"stimulus":"Sounds/correct.wav","key_press":null,"block":1,"trial_type":"audio-keyboard-response","trial_index":63,"time_elapsed":2311760,"internal_node_id":"0.0-13.0-3.2","match_key":"l","participant_id":"38"},{"rt":null,"stimulus":"Sounds/motorcycle_sound.wav","key_press":null,"block":1,"trial_type":"audio-keyboard-response","trial_index":64,"time_elapsed":2312881,"internal_node_id":"0.0-13.0-0.3","match_key":"l","participant_id":"38"},{"rt":null,"stimulus":"<p style=\"font-size: 48px;\">+</p>","key_press":null,"block":1,"trial_type":"html-keyboard-response","trial_index":65,"time_elapsed":2313872,"internal_node_id":"0.0-13.0-1.3","match_key":"l","participant_id":"38"},{"rt":597.2899999995716,"stimulus":"Images/motorcycle_cartoon.png","key_press":76,"stim_onset":1583117015164,"block":1,"match_type":"match","image_category":"motorcycle","sound_category":"motorcycle","audio_type":"sound","phase":"test","trial_type":"image-keyboard-response","trial_index":66,"time_elapsed":2314470,"internal_node_id":"0.0-13.0-2.3","match_key":"l","participant_id":"38","correct":true},{"rt":null,"stimulus":"Sounds/correct.wav","key_press":null,"block":1,"trial_type":"audio-keyboard-response","trial_index":67,"time_elapsed":2316474,"internal_node_id":"0.0-13.0-3.3","match_key":"l","participant_id":"38"},{"rt":null,"stimulus":"Sounds/whistle_sound.wav","key_press":null,"block":1,"trial_type":"audio-keyboard-response","trial_index":68,"time_elapsed":2317181,"internal_node_id":"0.0-13.0-0.4","match_key":"l","participant_id":"38"},{"rt":null,"stimulus":"<p style=\"font-size: 48px;\">+</p>","key_press":null,"block":1,"trial_type":"html-keyboard-response","trial_index":69,"time_elapsed":2318189,"internal_node_id":"0.0-13.0-1.4","match_key":"l","participant_id":"38"},{"rt":632.8549999999814,"stimulus":"Images/whistle_cartoon.png","key_press":76,"stim_onset":1583117019481,"block":1,"match_type":"match","image_category":"whistle","sound_category":"whistle","audio_type":"sound","phase":"test","trial_type":"image-keyboard-response","trial_index":70,"time_elapsed":2318823,"internal_node_id":"0.0-13.0-2.4","match_key":"l","participant_id":"38","correct":true},{"rt":null,"stimulus":"Sounds/correct.wav","key_press":null,"block":1,"trial_type":"audio-keyboard-response","trial_index":71,"time_elapsed":2320826,"internal_node_id":"0.0-13.0-3.4","match_key":"l","participant_id":"38"},{"rt":null,"stimulus":"Sounds/car_label.wav","key_press":null,"block":1,"trial_type":"audio-keyboard-response","trial_index":72,"time_elapsed":2321901,"internal_node_id":"0.0-13.0-0.5","match_key":"l","participant_id":"38"},{"rt":null,"stimulus":"<p style=\"font-size: 48px;\">+</p>","key_press":null,"block":1,"trial_type":"html-keyboard-response","trial_index":73,"time_elapsed":2322905,"internal_node_id":"0.0-13.0-1.5","match_key":"l","participant_id":"38"},{"rt":572.1450000000186,"stimulus":"Images/car_orig.png","key_press":76,"stim_onset":1583117024198,"block":1,"match_type":"match","image_category":"car","sound_category":"car","audio_type":"label","phase":"test","trial_type":"image-keyboard-response","trial_index":74,"time_elapsed":2323479,"internal_node_id":"0.0-13.0-2.5","match_key":"l","participant_id":"38","correct":true},{"rt":null,"stimulus":"Sounds/correct.wav","key_press":null,"block":1,"trial_type":"audio-keyboard-response","trial_index":75,"time_elapsed":2325482,"internal_node_id":"0.0-13.0-3.5","match_key":"l","participant_id":"38"},{"rt":null,"stimulus":"Sounds/gun_sound.wav","key_press":null,"block":1,"trial_type":"audio-keyboard-response","trial_index":76,"time_elapsed":2326061,"internal_node_id":"0.0-13.0-0.6","match_key":"l","participant_id":"38"},{"rt":null,"stimulus":"<p style=\"font-size: 48px;\">+</p>","key_press":null,"block":1,"trial_type":"html-keyboard-response","trial_index":77,"time_elapsed":2327055,"internal_node_id":"0.0-13.0-1.6","match_key":"l","participant_id":"38"},{"rt":437.9350000000559,"stimulus":"Images/gun_orig.png","key_press":76,"stim_onset":1583117028348,"block":1,"match_type":"match","image_category":"gun","sound_category":"gun","audio_type":"sound","phase":"test","trial_type":"image-keyboard-response","trial_index":78,"time_elapsed":2327494,"internal_node_id":"0.0-13.0-2.6","match_key":"l","participant_id":"38","correct":true},{"rt":null,"stimulus":"Sounds/correct.wav","key_press":null,"block":1,"trial_type":"audio-keyboard-response","trial_index":79,"time_elapsed":2329504,"internal_node_id":"0.0-13.0-3.6","match_key":"l","participant_id":"38"},{"rt":null,"stimulus":"Sounds/whistle_sound.wav","key_press":null,"block":1,"trial_type":"audio-keyboard-response","trial_index":80,"time_elapsed":2330181,"internal_node_id":"0.0-13.0-0.7","match_key":"l","participant_id":"38"},{"rt":null,"stimulus":"<p style=\"font-size: 48px;\">+</p>","key_press":null,"block":1,"trial_type":"html-keyboard-response","trial_index":81,"time_elapsed":2331172,"internal_node_id":"0.0-13.0-1.7","match_key":"l","participant_id":"38"},{"rt":465.4250000002794,"stimulus":"Images/car_1.png","key_press":65,"stim_onset":1583117032464,"block":1,"match_type":"non-match","image_category":"car","sound_category":"whistle","audio_type":"sound","phase":"test","trial_type":"image-keyboard-response","trial_index":82,"time_elapsed":2331639,"internal_node_id":"0.0-13.0-2.7","match_key":"l","participant_id":"38","correct":true},{"rt":null,"stimulus":"Sounds/correct.wav","key_press":null,"block":1,"trial_type":"audio-keyboard-response","trial_index":83,"time_elapsed":2333652,"internal_node_id":"0.0-13.0-3.7","match_key":"l","participant_id":"38"},{"rt":null,"stimulus":"Sounds/cow_label.wav","key_press":null,"block":1,"trial_type":"audio-keyboard-response","trial_index":84,"time_elapsed":2334661,"internal_node_id":"0.0-13.0-0.8","match_key":"l","participant_id":"38"},{"rt":null,"stimulus":"<p style=\"font-size: 48px;\">+</p>","key_press":null,"block":1,"trial_type":"html-keyboard-response","trial_index":85,"time_elapsed":2335655,"internal_node_id":"0.0-13.0-1.8","match_key":"l","participant_id":"38"},{"rt":685.9849999998696,"stimulus":"Images/frog_cartoon.png","key_press":65,"stim_onset":1583117036948,"block":1,"match_type":"non-match","image_category":"frog","sound_category":"cow","audio_type":"label","phase":"test","trial_type":"image-keyboard-response","trial_index":86,"time_elapsed":2336343,"internal_node_id":"0.0-13.0-2.8","match_key":"l","participant_id":"38","correct":true},{"rt":null,"stimulus":"Sounds/correct.wav","key_press":null,"block":1,"trial_type":"audio-keyboard-response","trial_index":87,"time_elapsed":2338357,"internal_node_id":"0.0-13.0-3.8","match_key":"l","participant_id":"38"},{"rt":null,"stimulus":"Sounds/rooster_sound.wav","key_press":null,"block":1,"trial_type":"audio-keyboard-response","trial_index":88,"time_elapsed":2339061,"internal_node_id":"0.0-13.0-0.9","match_key":"l","participant_id":"38"},{"rt":null,"stimulus":"<p style=\"font-size: 48px;\">+</p>","key_press":null,"block":1,"trial_type":"html-keyboard-response","trial_index":89,"time_elapsed":2340056,"internal_node_id":"0.0-13.0-1.9","match_key":"l","participant_id":"38"},{"rt":653.7349999998696,"stimulus":"Images/whistle_orig.png","key_press":65,"stim_onset":1583117041348,"block":1,"match_type":"non-match","image_category":"whistle","sound_category":"rooster","audio_type":"sound","phase":"test","trial_type":"image-keyboard-response","trial_index":90,"time_elapsed":2340710,"internal_node_id":"0.0-13.0-2.9","match_key":"l","participant_id":"38","correct":true},{"rt":null,"stimulus":"Sounds/correct.wav","key_press":null,"block":1,"trial_type":"audio-keyboard-response","trial_index":91,"time_elapsed":2342722,"internal_node_id":"0.0-13.0-3.9","match_key":"l","participant_id":"38"},{"rt":null,"stimulus":"Sounds/train_sound.wav","key_press":null,"block":1,"trial_type":"audio-keyboard-response","trial_index":92,"time_elapsed":2344021,"internal_node_id":"0.0-13.0-0.10","match_key":"l","participant_id":"38"},{"rt":null,"stimulus":"<p style=\"font-size: 48px;\">+</p>","key_press":null,"block":1,"trial_type":"html-keyboard-response","trial_index":93,"time_elapsed":2345056,"internal_node_id":"0.0-13.0-1.10","match_key":"l","participant_id":"38"},{"rt":486.00000000046566,"stimulus":"Images/cat_2.png","key_press":65,"stim_onset":1583117046348,"block":1,"match_type":"non-match","image_category":"cat","sound_category":"train","audio_type":"sound","phase":"test","trial_type":"image-keyboard-response","trial_index":94,"time_elapsed":2345543,"internal_node_id":"0.0-13.0-2.10","match_key":"l","participant_id":"38","correct":true},{"rt":null,"stimulus":"Sounds/correct.wav","key_press":null,"block":1,"trial_type":"audio-keyboard-response","trial_index":95,"time_elapsed":2347548,"internal_node_id":"0.0-13.0-3.10","match_key":"l","participant_id":"38"},{"rt":null,"stimulus":"Sounds/rooster_label.wav","key_press":null,"block":1,"trial_type":"audio-keyboard-response","trial_index":96,"time_elapsed":2348241,"internal_node_id":"0.0-13.0-0.11","match_key":"l","participant_id":"38"},{"rt":null,"stimulus":"<p style=\"font-size: 48px;\">+</p>","key_press":null,"block":1,"trial_type":"html-keyboard-response","trial_index":97,"time_elapsed":2349239,"internal_node_id":"0.0-13.0-1.11","match_key":"l","participant_id":"38"},{"rt":430.4800000009127,"stimulus":"Images/rooster_cartoon.png","key_press":76,"stim_onset":1583117050531,"block":1,"match_type":"match","image_category":"rooster","sound_category":"rooster","audio_type":"label","phase":"test","trial_type":"image-keyboard-response","trial_index":98,"time_elapsed":2349671,"internal_node_id":"0.0-13.0-2.11","match_key":"l","participant_id":"38","correct":true},{"rt":null,"stimulus":"Sounds/correct.wav","key_press":null,"block":1,"trial_type":"audio-keyboard-response","trial_index":99,"time_elapsed":2351684,"internal_node_id":"0.0-13.0-3.11","match_key":"l","participant_id":"38"},{"rt":null,"stimulus":"Sounds/cow_label.wav","key_press":null,"block":1,"trial_type":"audio-keyboard-response","trial_index":100,"time_elapsed":2352701,"internal_node_id":"0.0-13.0-0.12","match_key":"l","participant_id":"38"},{"rt":null,"stimulus":"<p style=\"font-size: 48px;\">+</p>","key_press":null,"block":1,"trial_type":"html-keyboard-response","trial_index":101,"time_elapsed":2353721,"internal_node_id":"0.0-13.0-1.12","match_key":"l","participant_id":"38"},{"rt":539.8700000005774,"stimulus":"Images/dog_2.png","key_press":65,"stim_onset":1583117055013,"block":1,"match_type":"non-match","image_category":"dog","sound_category":"cow","audio_type":"label","phase":"test","trial_type":"image-keyboard-response","trial_index":102,"time_elapsed":2354262,"internal_node_id":"0.0-13.0-2.12","match_key":"l","participant_id":"38","correct":true},{"rt":null,"stimulus":"Sounds/correct.wav","key_press":null,"block":1,"trial_type":"audio-keyboard-response","trial_index":103,"time_elapsed":2356275,"internal_node_id":"0.0-13.0-3.12","match_key":"l","participant_id":"38"},{"rt":null,"stimulus":"Sounds/car_label.wav","key_press":null,"block":1,"trial_type":"audio-keyboard-response","trial_index":104,"time_elapsed":2357357,"internal_node_id":"0.0-13.0-0.13","match_key":"l","participant_id":"38"},{"rt":null,"stimulus":"<p style=\"font-size: 48px;\">+</p>","key_press":null,"block":1,"trial_type":"html-keyboard-response","trial_index":105,"time_elapsed":2358354,"internal_node_id":"0.0-13.0-1.13","match_key":"l","participant_id":"38"},{"rt":466.4599999994971,"stimulus":"Images/rooster_orig.png","key_press":65,"stim_onset":1583117059647,"block":1,"match_type":"non-match","image_category":"rooster","sound_category":"car","audio_type":"label","phase":"test","trial_type":"image-keyboard-response","trial_index":106,"time_elapsed":2358822,"internal_node_id":"0.0-13.0-2.13","match_key":"l","participant_id":"38","correct":true},{"rt":null,"stimulus":"Sounds/correct.wav","key_press":null,"block":1,"trial_type":"audio-keyboard-response","trial_index":107,"time_elapsed":2360826,"internal_node_id":"0.0-13.0-3.13","match_key":"l","participant_id":"38"},{"rt":null,"stimulus":"Sounds/cow_sound.wav","key_press":null,"block":1,"trial_type":"audio-keyboard-response","trial_index":108,"time_elapsed":2361837,"internal_node_id":"0.0-13.0-0.14","match_key":"l","participant_id":"38"},{"rt":null,"stimulus":"<p style=\"font-size: 48px;\">+</p>","key_press":null,"block":1,"trial_type":"html-keyboard-response","trial_index":109,"time_elapsed":2362854,"internal_node_id":"0.0-13.0-1.14","match_key":"l","participant_id":"38"},{"rt":587.2649999996647,"stimulus":"Images/rooster_cartoon.png","key_press":65,"stim_onset":1583117064147,"block":1,"match_type":"non-match","image_category":"rooster","sound_category":"cow","audio_type":"sound","phase":"test","trial_type":"image-keyboard-response","trial_index":110,"time_elapsed":2363446,"internal_node_id":"0.0-13.0-2.14","match_key":"l","participant_id":"38","correct":true},{"rt":null,"stimulus":"Sounds/correct.wav","key_press":null,"block":1,"trial_type":"audio-keyboard-response","trial_index":111,"time_elapsed":2365457,"internal_node_id":"0.0-13.0-3.14","match_key":"l","participant_id":"38"},{"rt":null,"stimulus":"Sounds/rooster_sound.wav","key_press":null,"block":1,"trial_type":"audio-keyboard-response","trial_index":112,"time_elapsed":2366157,"internal_node_id":"0.0-13.0-0.15","match_key":"l","participant_id":"38"},{"rt":null,"stimulus":"<p style=\"font-size: 48px;\">+</p>","key_press":null,"block":1,"trial_type":"html-keyboard-response","trial_index":113,"time_elapsed":2367155,"internal_node_id":"0.0-13.0-1.15","match_key":"l","participant_id":"38"},{"rt":690.3349999990314,"stimulus":"Images/rooster_1.png","key_press":76,"stim_onset":1583117068447,"block":1,"match_type":"match","image_category":"rooster","sound_category":"rooster","audio_type":"sound","phase":"test","trial_type":"image-keyboard-response","trial_index":114,"time_elapsed":2367846,"internal_node_id":"0.0-13.0-2.15","match_key":"l","participant_id":"38","correct":true},{"rt":null,"stimulus":"Sounds/correct.wav","key_press":null,"block":1,"trial_type":"audio-keyboard-response","trial_index":115,"time_elapsed":2369852,"internal_node_id":"0.0-13.0-3.15","match_key":"l","participant_id":"38"},{"rt":null,"stimulus":"Sounds/motorcycle_sound.wav","key_press":null,"block":1,"trial_type":"audio-keyboard-response","trial_index":116,"time_elapsed":2370977,"internal_node_id":"0.0-13.0-0.16","match_key":"l","participant_id":"38"},{"rt":null,"stimulus":"<p style=\"font-size: 48px;\">+</p>","key_press":null,"block":1,"trial_type":"html-keyboard-response","trial_index":117,"time_elapsed":2371971,"internal_node_id":"0.0-13.0-1.16","match_key":"l","participant_id":"38"},{"rt":641.785000001546,"stimulus":"Images/motorcycle_2.png","key_press":76,"stim_onset":1583117073264,"block":1,"match_type":"match","image_category":"motorcycle","sound_category":"motorcycle","audio_type":"sound","phase":"test","trial_type":"image-keyboard-response","trial_index":118,"time_elapsed":2372614,"internal_node_id":"0.0-13.0-2.16","match_key":"l","participant_id":"38","correct":true},{"rt":null,"stimulus":"Sounds/correct.wav","key_press":null,"block":1,"trial_type":"audio-keyboard-response","trial_index":119,"time_elapsed":2374622,"internal_node_id":"0.0-13.0-3.16","match_key":"l","participant_id":"38"},{"rt":null,"stimulus":"Sounds/dog_label.wav","key_press":null,"block":1,"trial_type":"audio-keyboard-response","trial_index":120,"time_elapsed":2375277,"internal_node_id":"0.0-13.0-0.17","match_key":"l","participant_id":"38"},{"rt":null,"stimulus":"<p style=\"font-size: 48px;\">+</p>","key_press":null,"block":1,"trial_type":"html-keyboard-response","trial_index":121,"time_elapsed":2376271,"internal_node_id":"0.0-13.0-1.17","match_key":"l","participant_id":"38"},{"rt":437.31999999890104,"stimulus":"Images/dog_2.png","key_press":76,"stim_onset":1583117077564,"block":1,"match_type":"match","image_category":"dog","sound_category":"dog","audio_type":"label","phase":"test","trial_type":"image-keyboard-response","trial_index":122,"time_elapsed":2376710,"internal_node_id":"0.0-13.0-2.17","match_key":"l","participant_id":"38","correct":true},{"rt":null,"stimulus":"Sounds/correct.wav","key_press":null,"block":1,"trial_type":"audio-keyboard-response","trial_index":123,"time_elapsed":2378720,"internal_node_id":"0.0-13.0-3.17","match_key":"l","participant_id":"38"},{"rt":null,"stimulus":"Sounds/frog_sound.wav","key_press":null,"block":1,"trial_type":"audio-keyboard-response","trial_index":124,"time_elapsed":2379617,"internal_node_id":"0.0-13.0-0.18","match_key":"l","participant_id":"38"},{"rt":null,"stimulus":"<p style=\"font-size: 48px;\">+</p>","key_press":null,"block":1,"trial_type":"html-keyboard-response","trial_index":125,"time_elapsed":2380622,"internal_node_id":"0.0-13.0-1.18","match_key":"l","participant_id":"38"},{"rt":503.15500000026077,"stimulus":"Images/train_1.png","key_press":65,"stim_onset":1583117081914,"block":1,"match_type":"non-match","image_category":"train","sound_category":"frog","audio_type":"sound","phase":"test","trial_type":"image-keyboard-response","trial_index":126,"time_elapsed":2381126,"internal_node_id":"0.0-13.0-2.18","match_key":"l","participant_id":"38","correct":true},{"rt":null,"stimulus":"Sounds/correct.wav","key_press":null,"block":1,"trial_type":"audio-keyboard-response","trial_index":127,"time_elapsed":2383130,"internal_node_id":"0.0-13.0-3.18","match_key":"l","participant_id":"38"},{"rt":null,"stimulus":"Sounds/dog_sound.wav","key_press":null,"block":1,"trial_type":"audio-keyboard-response","trial_index":128,"time_elapsed":2383837,"internal_node_id":"0.0-13.0-0.19","match_key":"l","participant_id":"38"},{"rt":null,"stimulus":"<p style=\"font-size: 48px;\">+</p>","key_press":null,"block":1,"trial_type":"html-keyboard-response","trial_index":129,"time_elapsed":2384855,"internal_node_id":"0.0-13.0-1.19","match_key":"l","participant_id":"38"},{"rt":574.2250000000931,"stimulus":"Images/cow_orig.png","key_press":65,"stim_onset":1583117086147,"block":1,"match_type":"non-match","image_category":"cow","sound_category":"dog","audio_type":"sound","phase":"test","trial_type":"image-keyboard-response","trial_index":130,"time_elapsed":2385430,"internal_node_id":"0.0-13.0-2.19","match_key":"l","participant_id":"38","correct":true},{"rt":null,"stimulus":"Sounds/correct.wav","key_press":null,"block":1,"trial_type":"audio-keyboard-response","trial_index":131,"time_elapsed":2387441,"internal_node_id":"0.0-13.0-3.19","match_key":"l","participant_id":"38"},{"rt":null,"stimulus":"Sounds/whistle_label.wav","key_press":null,"block":1,"trial_type":"audio-keyboard-response","trial_index":132,"time_elapsed":2388137,"internal_node_id":"0.0-13.0-0.20","match_key":"l","participant_id":"38"},{"rt":null,"stimulus":"<p style=\"font-size: 48px;\">+</p>","key_press":null,"block":1,"trial_type":"html-keyboard-response","trial_index":133,"time_elapsed":2389155,"internal_node_id":"0.0-13.0-1.20","match_key":"l","participant_id":"38"},{"rt":610.2799999988638,"stimulus":"Images/gun_3.png","key_press":65,"stim_onset":1583117090447,"block":1,"match_type":"non-match","image_category":"gun","sound_category":"whistle","audio_type":"label","phase":"test","trial_type":"image-keyboard-response","trial_index":134,"time_elapsed":2389766,"internal_node_id":"0.0-13.0-2.20","match_key":"l","participant_id":"38","correct":true},{"rt":null,"stimulus":"Sounds/correct.wav","key_press":null,"block":1,"trial_type":"audio-keyboard-response","trial_index":135,"time_elapsed":2391773,"internal_node_id":"0.0-13.0-3.20","match_key":"l","participant_id":"38"},{"rt":null,"stimulus":"Sounds/cow_label.wav","key_press":null,"block":1,"trial_type":"audio-keyboard-response","trial_index":136,"time_elapsed":2392797,"internal_node_id":"0.0-13.0-0.21","match_key":"l","participant_id":"38"},{"rt":null,"stimulus":"<p style=\"font-size: 48px;\">+</p>","key_press":null,"block":1,"trial_type":"html-keyboard-response","trial_index":137,"time_elapsed":2393788,"internal_node_id":"0.0-13.0-1.21","match_key":"l","participant_id":"38"},{"rt":392.4199999999255,"stimulus":"Images/train_cartoon.png","key_press":65,"stim_onset":1583117095081,"block":1,"match_type":"non-match","image_category":"train","sound_category":"cow","audio_type":"label","phase":"test","trial_type":"image-keyboard-response","trial_index":138,"time_elapsed":2394182,"internal_node_id":"0.0-13.0-2.21","match_key":"l","participant_id":"38","correct":true},{"rt":null,"stimulus":"Sounds/correct.wav","key_press":null,"block":1,"trial_type":"audio-keyboard-response","trial_index":139,"time_elapsed":2396191,"internal_node_id":"0.0-13.0-3.21","match_key":"l","participant_id":"38"},{"rt":null,"stimulus":"Sounds/train_sound.wav","key_press":null,"block":1,"trial_type":"audio-keyboard-response","trial_index":140,"time_elapsed":2397497,"internal_node_id":"0.0-13.0-0.22","match_key":"l","participant_id":"38"},{"rt":null,"stimulus":"<p style=\"font-size: 48px;\">+</p>","key_press":null,"block":1,"trial_type":"html-keyboard-response","trial_index":141,"time_elapsed":2398488,"internal_node_id":"0.0-13.0-1.22","match_key":"l","participant_id":"38"},{"rt":428.83500000089407,"stimulus":"Images/frog_3.png","key_press":65,"stim_onset":1583117099781,"block":1,"match_type":"non-match","image_category":"frog","sound_category":"train","audio_type":"sound","phase":"test","trial_type":"image-keyboard-response","trial_index":142,"time_elapsed":2398918,"internal_node_id":"0.0-13.0-2.22","match_key":"l","participant_id":"38","correct":true},{"rt":null,"stimulus":"Sounds/correct.wav","key_press":null,"block":1,"trial_type":"audio-keyboard-response","trial_index":143,"time_elapsed":2400922,"internal_node_id":"0.0-13.0-3.22","match_key":"l","participant_id":"38"},{"rt":null,"stimulus":"Sounds/cat_sound.wav","key_press":null,"block":1,"trial_type":"audio-keyboard-response","trial_index":144,"time_elapsed":2401757,"internal_node_id":"0.0-13.0-0.23","match_key":"l","participant_id":"38"},{"rt":null,"stimulus":"<p style=\"font-size: 48px;\">+</p>","key_press":null,"block":1,"trial_type":"html-keyboard-response","trial_index":145,"time_elapsed":2402755,"internal_node_id":"0.0-13.0-1.23","match_key":"l","participant_id":"38"},{"rt":449.9099999992177,"stimulus":"Images/gun_cartoon.png","key_press":65,"stim_onset":1583117104047,"block":1,"match_type":"non-match","image_category":"gun","sound_category":"cat","audio_type":"sound","phase":"test","trial_type":"image-keyboard-response","trial_index":146,"time_elapsed":2403206,"internal_node_id":"0.0-13.0-2.23","match_key":"l","participant_id":"38","correct":true},{"rt":null,"stimulus":"Sounds/correct.wav","key_press":null,"block":1,"trial_type":"audio-keyboard-response","trial_index":147,"time_elapsed":2405219,"internal_node_id":"0.0-13.0-3.23","match_key":"l","participant_id":"38"},{"rt":null,"stimulus":"Sounds/whistle_label.wav","key_press":null,"block":1,"trial_type":"audio-keyboard-response","trial_index":148,"time_elapsed":2405897,"internal_node_id":"0.0-13.0-0.24","match_key":"l","participant_id":"38"},{"rt":null,"stimulus":"<p style=\"font-size: 48px;\">+</p>","key_press":null,"block":1,"trial_type":"html-keyboard-response","trial_index":149,"time_elapsed":2406888,"internal_node_id":"0.0-13.0-1.24","match_key":"l","participant_id":"38"},{"rt":684.4549999986775,"stimulus":"Images/whistle_1.png","key_press":76,"stim_onset":1583117108181,"block":1,"match_type":"match","image_category":"whistle","sound_category":"whistle","audio_type":"label","phase":"test","trial_type":"image-keyboard-response","trial_index":150,"time_elapsed":2407574,"internal_node_id":"0.0-13.0-2.24","match_key":"l","participant_id":"38","correct":true},{"rt":null,"stimulus":"Sounds/correct.wav","key_press":null,"block":1,"trial_type":"audio-keyboard-response","trial_index":151,"time_elapsed":2409585,"internal_node_id":"0.0-13.0-3.24","match_key":"l","participant_id":"38"},{"rt":null,"stimulus":"Sounds/cat_label.wav","key_press":null,"block":1,"trial_type":"audio-keyboard-response","trial_index":152,"time_elapsed":2410417,"internal_node_id":"0.0-13.0-0.25","match_key":"l","participant_id":"38"},{"rt":null,"stimulus":"<p style=\"font-size: 48px;\">+</p>","key_press":null,"block":1,"trial_type":"html-keyboard-response","trial_index":153,"time_elapsed":2411405,"internal_node_id":"0.0-13.0-1.25","match_key":"l","participant_id":"38"},{"rt":439.8849999997765,"stimulus":"Images/cat_1.png","key_press":76,"stim_onset":1583117112697,"block":1,"match_type":"match","image_category":"cat","sound_category":"cat","audio_type":"label","phase":"test","trial_type":"image-keyboard-response","trial_index":154,"time_elapsed":2411846,"internal_node_id":"0.0-13.0-2.25","match_key":"l","participant_id":"38","correct":true},{"rt":null,"stimulus":"Sounds/correct.wav","key_press":null,"block":1,"trial_type":"audio-keyboard-response","trial_index":155,"time_elapsed":2413855,"internal_node_id":"0.0-13.0-3.25","match_key":"l","participant_id":"38"},{"rt":null,"stimulus":"Sounds/train_sound.wav","key_press":null,"block":1,"trial_type":"audio-keyboard-response","trial_index":156,"time_elapsed":2415117,"internal_node_id":"0.0-13.0-0.26","match_key":"l","participant_id":"38"},{"rt":null,"stimulus":"<p style=\"font-size: 48px;\">+</p>","key_press":null,"block":1,"trial_type":"html-keyboard-response","trial_index":157,"time_elapsed":2416123,"internal_node_id":"0.0-13.0-1.26","match_key":"l","participant_id":"38"},{"rt":457.96999999927357,"stimulus":"Images/train_1.png","key_press":76,"stim_onset":1583117117415,"block":1,"match_type":"match","image_category":"train","sound_category":"train","audio_type":"sound","phase":"test","trial_type":"image-keyboard-response","trial_index":158,"time_elapsed":2416583,"internal_node_id":"0.0-13.0-2.26","match_key":"l","participant_id":"38","correct":true},{"rt":null,"stimulus":"Sounds/correct.wav","key_press":null,"block":1,"trial_type":"audio-keyboard-response","trial_index":159,"time_elapsed":2418587,"internal_node_id":"0.0-13.0-3.26","match_key":"l","participant_id":"38"},{"rt":null,"stimulus":"Sounds/cat_label.wav","key_press":null,"block":1,"trial_type":"audio-keyboard-response","trial_index":160,"time_elapsed":2419397,"internal_node_id":"0.0-13.0-0.27","match_key":"l","participant_id":"38"},{"rt":null,"stimulus":"<p style=\"font-size: 48px;\">+</p>","key_press":null,"block":1,"trial_type":"html-keyboard-response","trial_index":161,"time_elapsed":2420389,"internal_node_id":"0.0-13.0-1.27","match_key":"l","participant_id":"38"},{"rt":592.2799999988638,"stimulus":"Images/motorcycle_cartoon.png","key_press":65,"stim_onset":1583117121681,"block":1,"match_type":"non-match","image_category":"motorcycle","sound_category":"cat","audio_type":"label","phase":"test","trial_type":"image-keyboard-response","trial_index":162,"time_elapsed":2420983,"internal_node_id":"0.0-13.0-2.27","match_key":"l","participant_id":"38","correct":true},{"rt":null,"stimulus":"Sounds/correct.wav","key_press":null,"block":1,"trial_type":"audio-keyboard-response","trial_index":163,"time_elapsed":2422994,"internal_node_id":"0.0-13.0-3.27","match_key":"l","participant_id":"38"},{"rt":null,"stimulus":"Sounds/frog_sound.wav","key_press":null,"block":1,"trial_type":"audio-keyboard-response","trial_index":164,"time_elapsed":2423897,"internal_node_id":"0.0-13.0-0.28","match_key":"l","participant_id":"38"},{"rt":null,"stimulus":"<p style=\"font-size: 48px;\">+</p>","key_press":null,"block":1,"trial_type":"html-keyboard-response","trial_index":165,"time_elapsed":2424889,"internal_node_id":"0.0-13.0-1.28","match_key":"l","participant_id":"38"},{"rt":460.4850000012666,"stimulus":"Images/frog_orig.png","key_press":76,"stim_onset":1583117126181,"block":1,"match_type":"match","image_category":"frog","sound_category":"frog","audio_type":"sound","phase":"test","trial_type":"image-keyboard-response","trial_index":166,"time_elapsed":2425351,"internal_node_id":"0.0-13.0-2.28","match_key":"l","participant_id":"38","correct":true},{"rt":null,"stimulus":"Sounds/correct.wav","key_press":null,"block":1,"trial_type":"audio-keyboard-response","trial_index":167,"time_elapsed":2427354,"internal_node_id":"0.0-13.0-3.28","match_key":"l","participant_id":"38"},{"rt":null,"stimulus":"Sounds/motorcycle_label.wav","key_press":null,"block":1,"trial_type":"audio-keyboard-response","trial_index":168,"time_elapsed":2428477,"internal_node_id":"0.0-13.0-0.29","match_key":"l","participant_id":"38"},{"rt":null,"stimulus":"<p style=\"font-size: 48px;\">+</p>","key_press":null,"block":1,"trial_type":"html-keyboard-response","trial_index":169,"time_elapsed":2429473,"internal_node_id":"0.0-13.0-1.29","match_key":"l","participant_id":"38"},{"rt":468.76999999955297,"stimulus":"Images/whistle_2.png","key_press":65,"stim_onset":1583117130765,"block":1,"match_type":"non-match","image_category":"whistle","sound_category":"motorcycle","audio_type":"label","phase":"test","trial_type":"image-keyboard-response","trial_index":170,"time_elapsed":2429943,"internal_node_id":"0.0-13.0-2.29","match_key":"l","participant_id":"38","correct":true},{"rt":null,"stimulus":"Sounds/correct.wav","key_press":null,"block":1,"trial_type":"audio-keyboard-response","trial_index":171,"time_elapsed":2431952,"internal_node_id":"0.0-13.0-3.29","match_key":"l","participant_id":"38"},{"rt":null,"stimulus":"Sounds/motorcycle_label.wav","key_press":null,"block":1,"trial_type":"audio-keyboard-response","trial_index":172,"time_elapsed":2433057,"internal_node_id":"0.0-13.0-0.30","match_key":"l","participant_id":"38"},{"rt":null,"stimulus":"<p style=\"font-size: 48px;\">+</p>","key_press":null,"block":1,"trial_type":"html-keyboard-response","trial_index":173,"time_elapsed":2434056,"internal_node_id":"0.0-13.0-1.30","match_key":"l","participant_id":"38"},{"rt":637.589999998454,"stimulus":"Images/cat_3.png","key_press":65,"stim_onset":1583117135348,"block":1,"match_type":"non-match","image_category":"cat","sound_category":"motorcycle","audio_type":"label","phase":"test","trial_type":"image-keyboard-response","trial_index":174,"time_elapsed":2434695,"internal_node_id":"0.0-13.0-2.30","match_key":"l","participant_id":"38","correct":true},{"rt":null,"stimulus":"Sounds/correct.wav","key_press":null,"block":1,"trial_type":"audio-keyboard-response","trial_index":175,"time_elapsed":2436706,"internal_node_id":"0.0-13.0-3.30","match_key":"l","participant_id":"38"},{"rt":null,"stimulus":"Sounds/gun_sound.wav","key_press":null,"block":1,"trial_type":"audio-keyboard-response","trial_index":176,"time_elapsed":2437277,"internal_node_id":"0.0-13.0-0.31","match_key":"l","participant_id":"38"},{"rt":null,"stimulus":"<p style=\"font-size: 48px;\">+</p>","key_press":null,"block":1,"trial_type":"html-keyboard-response","trial_index":177,"time_elapsed":2438273,"internal_node_id":"0.0-13.0-1.31","match_key":"l","participant_id":"38"},{"rt":788.9699999997392,"stimulus":"Images/car_3.png","key_press":65,"stim_onset":1583117139565,"block":1,"match_type":"non-match","image_category":"car","sound_category":"gun","audio_type":"sound","phase":"test","trial_type":"image-keyboard-response","trial_index":178,"time_elapsed":2439063,"internal_node_id":"0.0-13.0-2.31","match_key":"l","participant_id":"38","correct":true},{"rt":null,"stimulus":"Sounds/correct.wav","key_press":null,"block":1,"trial_type":"audio-keyboard-response","trial_index":179,"time_elapsed":2441079,"internal_node_id":"0.0-13.0-3.31","match_key":"l","participant_id":"38"},{"rt":null,"stimulus":"Sounds/gun_label.wav","key_press":null,"block":1,"trial_type":"audio-keyboard-response","trial_index":180,"time_elapsed":2441657,"internal_node_id":"0.0-13.0-0.32","match_key":"l","participant_id":"38"},{"rt":null,"stimulus":"<p style=\"font-size: 48px;\">+</p>","key_press":null,"block":1,"trial_type":"html-keyboard-response","trial_index":181,"time_elapsed":2442656,"internal_node_id":"0.0-13.0-1.32","match_key":"l","participant_id":"38"},{"rt":517.3249999987893,"stimulus":"Images/gun_3.png","key_press":76,"stim_onset":1583117143948,"block":1,"match_type":"match","image_category":"gun","sound_category":"gun","audio_type":"label","phase":"test","trial_type":"image-keyboard-response","trial_index":182,"time_elapsed":2443175,"internal_node_id":"0.0-13.0-2.32","match_key":"l","participant_id":"38","correct":true},{"rt":null,"stimulus":"Sounds/correct.wav","key_press":null,"block":1,"trial_type":"audio-keyboard-response","trial_index":183,"time_elapsed":2445184,"internal_node_id":"0.0-13.0-3.32","match_key":"l","participant_id":"38"},{"rt":null,"stimulus":"Sounds/cow_label.wav","key_press":null,"block":1,"trial_type":"audio-keyboard-response","trial_index":184,"time_elapsed":2446198,"internal_node_id":"0.0-13.0-0.33","match_key":"l","participant_id":"38"},{"rt":null,"stimulus":"<p style=\"font-size: 48px;\">+</p>","key_press":null,"block":1,"trial_type":"html-keyboard-response","trial_index":185,"time_elapsed":2447189,"internal_node_id":"0.0-13.0-1.33","match_key":"l","participant_id":"38"},{"rt":544.1300000003539,"stimulus":"Images/car_orig.png","key_press":65,"stim_onset":1583117148482,"block":1,"match_type":"non-match","image_category":"car","sound_category":"cow","audio_type":"label","phase":"test","trial_type":"image-keyboard-response","trial_index":186,"time_elapsed":2447735,"internal_node_id":"0.0-13.0-2.33","match_key":"l","participant_id":"38","correct":true},{"rt":null,"stimulus":"Sounds/correct.wav","key_press":null,"block":1,"trial_type":"audio-keyboard-response","trial_index":187,"time_elapsed":2449748,"internal_node_id":"0.0-13.0-3.33","match_key":"l","participant_id":"38"},{"rt":null,"stimulus":"Sounds/dog_label.wav","key_press":null,"block":1,"trial_type":"audio-keyboard-response","trial_index":188,"time_elapsed":2450397,"internal_node_id":"0.0-13.0-0.34","match_key":"l","participant_id":"38"},{"rt":null,"stimulus":"<p style=\"font-size: 48px;\">+</p>","key_press":null,"block":1,"trial_type":"html-keyboard-response","trial_index":189,"time_elapsed":2451390,"internal_node_id":"0.0-13.0-1.34","match_key":"l","participant_id":"38"},{"rt":616.234999999404,"stimulus":"Images/cat_1.png","key_press":76,"stim_onset":1583117152682,"block":1,"match_type":"non-match","image_category":"cat","sound_category":"dog","audio_type":"label","phase":"test","trial_type":"image-keyboard-response","trial_index":190,"time_elapsed":2452007,"internal_node_id":"0.0-13.0-2.34","match_key":"l","participant_id":"38","correct":false},{"rt":null,"stimulus":"Sounds/incorrect.wav","key_press":null,"block":1,"trial_type":"audio-keyboard-response","trial_index":191,"time_elapsed":2454010,"internal_node_id":"0.0-13.0-3.34","match_key":"l","participant_id":"38"},{"rt":null,"stimulus":"Sounds/frog_sound.wav","key_press":null,"block":1,"trial_type":"audio-keyboard-response","trial_index":192,"time_elapsed":2454917,"internal_node_id":"0.0-13.0-0.35","match_key":"l","participant_id":"38"},{"rt":null,"stimulus":"<p style=\"font-size: 48px;\">+</p>","key_press":null,"block":1,"trial_type":"html-keyboard-response","trial_index":193,"time_elapsed":2455906,"internal_node_id":"0.0-13.0-1.35","match_key":"l","participant_id":"38"},{"rt":643.4700000011362,"stimulus":"Images/gun_2.png","key_press":65,"stim_onset":1583117157199,"block":1,"match_type":"non-match","image_category":"gun","sound_category":"frog","audio_type":"sound","phase":"test","trial_type":"image-keyboard-response","trial_index":194,"time_elapsed":2456551,"internal_node_id":"0.0-13.0-2.35","match_key":"l","participant_id":"38","correct":true},{"rt":null,"stimulus":"Sounds/correct.wav","key_press":null,"block":1,"trial_type":"audio-keyboard-response","trial_index":195,"time_elapsed":2458559,"internal_node_id":"0.0-13.0-3.35","match_key":"l","participant_id":"38"},{"rt":null,"stimulus":"Sounds/cat_label.wav","key_press":null,"block":1,"trial_type":"audio-keyboard-response","trial_index":196,"time_elapsed":2459397,"internal_node_id":"0.0-13.0-0.36","match_key":"l","participant_id":"38"},{"rt":null,"stimulus":"<p style=\"font-size: 48px;\">+</p>","key_press":null,"block":1,"trial_type":"html-keyboard-response","trial_index":197,"time_elapsed":2460390,"internal_node_id":"0.0-13.0-1.36","match_key":"l","participant_id":"38"},{"rt":960.1899999999441,"stimulus":"Images/cat_3.png","key_press":76,"stim_onset":1583117161682,"block":1,"match_type":"match","image_category":"cat","sound_category":"cat","audio_type":"label","phase":"test","trial_type":"image-keyboard-response","trial_index":198,"time_elapsed":2461351,"internal_node_id":"0.0-13.0-2.36","match_key":"l","participant_id":"38","correct":true},{"rt":null,"stimulus":"Sounds/correct.wav","key_press":null,"block":1,"trial_type":"audio-keyboard-response","trial_index":199,"time_elapsed":2463367,"internal_node_id":"0.0-13.0-3.36","match_key":"l","participant_id":"38"},{"rt":null,"stimulus":"Sounds/cat_sound.wav","key_press":null,"block":1,"trial_type":"audio-keyboard-response","trial_index":200,"time_elapsed":2464197,"internal_node_id":"0.0-13.0-0.37","match_key":"l","participant_id":"38"},{"rt":null,"stimulus":"<p style=\"font-size: 48px;\">+</p>","key_press":null,"block":1,"trial_type":"html-keyboard-response","trial_index":201,"time_elapsed":2465190,"internal_node_id":"0.0-13.0-1.37","match_key":"l","participant_id":"38"},{"rt":528.0150000001304,"stimulus":"Images/cat_orig.png","key_press":76,"stim_onset":1583117166482,"block":1,"match_type":"match","image_category":"cat","sound_category":"cat","audio_type":"sound","phase":"test","trial_type":"image-keyboard-response","trial_index":202,"time_elapsed":2465719,"internal_node_id":"0.0-13.0-2.37","match_key":"l","participant_id":"38","correct":true},{"rt":null,"stimulus":"Sounds/correct.wav","key_press":null,"block":1,"trial_type":"audio-keyboard-response","trial_index":203,"time_elapsed":2467731,"internal_node_id":"0.0-13.0-3.37","match_key":"l","participant_id":"38"},{"rt":null,"stimulus":"Sounds/cat_sound.wav","key_press":null,"block":1,"trial_type":"audio-keyboard-response","trial_index":204,"time_elapsed":2468537,"internal_node_id":"0.0-13.0-0.38","match_key":"l","participant_id":"38"},{"rt":null,"stimulus":"<p style=\"font-size: 48px;\">+</p>","key_press":null,"block":1,"trial_type":"html-keyboard-response","trial_index":205,"time_elapsed":2469540,"internal_node_id":"0.0-13.0-1.38","match_key":"l","participant_id":"38"},{"rt":625.9599999994971,"stimulus":"Images/train_3.png","key_press":65,"stim_onset":1583117170832,"block":1,"match_type":"non-match","image_category":"train","sound_category":"cat","audio_type":"sound","phase":"test","trial_type":"image-keyboard-response","trial_index":206,"time_elapsed":2470167,"internal_node_id":"0.0-13.0-2.38","match_key":"l","participant_id":"38","correct":true},{"rt":null,"stimulus":"Sounds/correct.wav","key_press":null,"block":1,"trial_type":"audio-keyboard-response","trial_index":207,"time_elapsed":2472177,"internal_node_id":"0.0-13.0-3.38","match_key":"l","participant_id":"38"},{"rt":null,"stimulus":"Sounds/whistle_sound.wav","key_press":null,"block":1,"trial_type":"audio-keyboard-response","trial_index":208,"time_elapsed":2472877,"internal_node_id":"0.0-13.0-0.39","match_key":"l","participant_id":"38"},{"rt":null,"stimulus":"<p style=\"font-size: 48px;\">+</p>","key_press":null,"block":1,"trial_type":"html-keyboard-response","trial_index":209,"time_elapsed":2473874,"internal_node_id":"0.0-13.0-1.39","match_key":"l","participant_id":"38"},{"rt":788.4999999990687,"stimulus":"Images/whistle_2.png","key_press":76,"stim_onset":1583117175166,"block":1,"match_type":"match","image_category":"whistle","sound_category":"whistle","audio_type":"sound","phase":"test","trial_type":"image-keyboard-response","trial_index":210,"time_elapsed":2474664,"internal_node_id":"0.0-13.0-2.39","match_key":"l","participant_id":"38","correct":true},{"rt":null,"stimulus":"Sounds/correct.wav","key_press":null,"block":1,"trial_type":"audio-keyboard-response","trial_index":211,"time_elapsed":2476680,"internal_node_id":"0.0-13.0-3.39","match_key":"l","participant_id":"38"},{"rt":null,"stimulus":"Sounds/whistle_label.wav","key_press":null,"block":1,"trial_type":"audio-keyboard-response","trial_index":212,"time_elapsed":2477378,"internal_node_id":"0.0-13.0-0.40","match_key":"l","participant_id":"38"},{"rt":null,"stimulus":"<p style=\"font-size: 48px;\">+</p>","key_press":null,"block":1,"trial_type":"html-keyboard-response","trial_index":213,"time_elapsed":2478374,"internal_node_id":"0.0-13.0-1.40","match_key":"l","participant_id":"38"},{"rt":528.4899999988265,"stimulus":"Images/motorcycle_1.png","key_press":65,"stim_onset":1583117179666,"block":1,"match_type":"non-match","image_category":"motorcycle","sound_category":"whistle","audio_type":"label","phase":"test","trial_type":"image-keyboard-response","trial_index":214,"time_elapsed":2478904,"internal_node_id":"0.0-13.0-2.40","match_key":"l","participant_id":"38","correct":true},{"rt":null,"stimulus":"Sounds/correct.wav","key_press":null,"block":1,"trial_type":"audio-keyboard-response","trial_index":215,"time_elapsed":2480918,"internal_node_id":"0.0-13.0-3.40","match_key":"l","participant_id":"38"},{"rt":null,"stimulus":"Sounds/rooster_label.wav","key_press":null,"block":1,"trial_type":"audio-keyboard-response","trial_index":216,"time_elapsed":2481618,"internal_node_id":"0.0-13.0-0.41","match_key":"l","participant_id":"38"},{"rt":null,"stimulus":"<p style=\"font-size: 48px;\">+</p>","key_press":null,"block":1,"trial_type":"html-keyboard-response","trial_index":217,"time_elapsed":2482608,"internal_node_id":"0.0-13.0-1.41","match_key":"l","participant_id":"38"},{"rt":615.0149999996647,"stimulus":"Images/rooster_2.png","key_press":76,"stim_onset":1583117183900,"block":1,"match_type":"match","image_category":"rooster","sound_category":"rooster","audio_type":"label","phase":"test","trial_type":"image-keyboard-response","trial_index":218,"time_elapsed":2483224,"internal_node_id":"0.0-13.0-2.41","match_key":"l","participant_id":"38","correct":true},{"rt":null,"stimulus":"Sounds/correct.wav","key_press":null,"block":1,"trial_type":"audio-keyboard-response","trial_index":219,"time_elapsed":2485231,"internal_node_id":"0.0-13.0-3.41","match_key":"l","participant_id":"38"},{"rt":null,"stimulus":"Sounds/car_sound.wav","key_press":null,"block":1,"trial_type":"audio-keyboard-response","trial_index":220,"time_elapsed":2486318,"internal_node_id":"0.0-13.0-0.42","match_key":"l","participant_id":"38"},{"rt":null,"stimulus":"<p style=\"font-size: 48px;\">+</p>","key_press":null,"block":1,"trial_type":"html-keyboard-response","trial_index":221,"time_elapsed":2487324,"internal_node_id":"0.0-13.0-1.42","match_key":"l","participant_id":"38"},{"rt":618.0949999997392,"stimulus":"Images/whistle_cartoon.png","key_press":65,"stim_onset":1583117188616,"block":1,"match_type":"non-match","image_category":"whistle","sound_category":"car","audio_type":"sound","phase":"test","trial_type":"image-keyboard-response","trial_index":222,"time_elapsed":2487944,"internal_node_id":"0.0-13.0-2.42","match_key":"l","participant_id":"38","correct":true},{"rt":null,"stimulus":"Sounds/correct.wav","key_press":null,"block":1,"trial_type":"audio-keyboard-response","trial_index":223,"time_elapsed":2489959,"internal_node_id":"0.0-13.0-3.42","match_key":"l","participant_id":"38"},{"rt":null,"stimulus":"Sounds/motorcycle_sound.wav","key_press":null,"block":1,"trial_type":"audio-keyboard-response","trial_index":224,"time_elapsed":2491078,"internal_node_id":"0.0-13.0-0.43","match_key":"l","participant_id":"38"},{"rt":null,"stimulus":"<p style=\"font-size: 48px;\">+</p>","key_press":null,"block":1,"trial_type":"html-keyboard-response","trial_index":225,"time_elapsed":2492074,"internal_node_id":"0.0-13.0-1.43","match_key":"l","participant_id":"38"},{"rt":540.4099999996834,"stimulus":"Images/motorcycle_3.png","key_press":76,"stim_onset":1583117193367,"block":1,"match_type":"match","image_category":"motorcycle","sound_category":"motorcycle","audio_type":"sound","phase":"test","trial_type":"image-keyboard-response","trial_index":226,"time_elapsed":2492616,"internal_node_id":"0.0-13.0-2.43","match_key":"l","participant_id":"38","correct":true},{"rt":null,"stimulus":"Sounds/correct.wav","key_press":null,"block":1,"trial_type":"audio-keyboard-response","trial_index":227,"time_elapsed":2494632,"internal_node_id":"0.0-13.0-3.43","match_key":"l","participant_id":"38"},{"rt":null,"stimulus":"Sounds/gun_label.wav","key_press":null,"block":1,"trial_type":"audio-keyboard-response","trial_index":228,"time_elapsed":2495218,"internal_node_id":"0.0-13.0-0.44","match_key":"l","participant_id":"38"},{"rt":null,"stimulus":"<p style=\"font-size: 48px;\">+</p>","key_press":null,"block":1,"trial_type":"html-keyboard-response","trial_index":229,"time_elapsed":2496208,"internal_node_id":"0.0-13.0-1.44","match_key":"l","participant_id":"38"},{"rt":662.8199999993667,"stimulus":"Images/gun_1.png","key_press":76,"stim_onset":1583117197500,"block":1,"match_type":"match","image_category":"gun","sound_category":"gun","audio_type":"label","phase":"test","trial_type":"image-keyboard-response","trial_index":230,"time_elapsed":2496872,"internal_node_id":"0.0-13.0-2.44","match_key":"l","participant_id":"38","correct":true},{"rt":null,"stimulus":"Sounds/correct.wav","key_press":null,"block":1,"trial_type":"audio-keyboard-response","trial_index":231,"time_elapsed":2498889,"internal_node_id":"0.0-13.0-3.44","match_key":"l","participant_id":"38"},{"rt":null,"stimulus":"Sounds/car_label.wav","key_press":null,"block":1,"trial_type":"audio-keyboard-response","trial_index":232,"time_elapsed":2499958,"internal_node_id":"0.0-13.0-0.45","match_key":"l","participant_id":"38"},{"rt":null,"stimulus":"<p style=\"font-size: 48px;\">+</p>","key_press":null,"block":1,"trial_type":"html-keyboard-response","trial_index":233,"time_elapsed":2500958,"internal_node_id":"0.0-13.0-1.45","match_key":"l","participant_id":"38"},{"rt":664.8349999999627,"stimulus":"Images/cat_orig.png","key_press":65,"stim_onset":1583117202250,"block":1,"match_type":"non-match","image_category":"cat","sound_category":"car","audio_type":"label","phase":"test","trial_type":"image-keyboard-response","trial_index":234,"time_elapsed":2501624,"internal_node_id":"0.0-13.0-2.45","match_key":"l","participant_id":"38","correct":true},{"rt":null,"stimulus":"Sounds/correct.wav","key_press":null,"block":1,"trial_type":"audio-keyboard-response","trial_index":235,"time_elapsed":2503630,"internal_node_id":"0.0-13.0-3.45","match_key":"l","participant_id":"38"},{"rt":null,"stimulus":"Sounds/dog_sound.wav","key_press":null,"block":1,"trial_type":"audio-keyboard-response","trial_index":236,"time_elapsed":2504338,"internal_node_id":"0.0-13.0-0.46","match_key":"l","participant_id":"38"},{"rt":null,"stimulus":"<p style=\"font-size: 48px;\">+</p>","key_press":null,"block":1,"trial_type":"html-keyboard-response","trial_index":237,"time_elapsed":2505341,"internal_node_id":"0.0-13.0-1.46","match_key":"l","participant_id":"38"},{"rt":489.6399999996647,"stimulus":"Images/gun_1.png","key_press":65,"stim_onset":1583117206633,"block":1,"match_type":"non-match","image_category":"gun","sound_category":"dog","audio_type":"sound","phase":"test","trial_type":"image-keyboard-response","trial_index":238,"time_elapsed":2505832,"internal_node_id":"0.0-13.0-2.46","match_key":"l","participant_id":"38","correct":true},{"rt":null,"stimulus":"Sounds/correct.wav","key_press":null,"block":1,"trial_type":"audio-keyboard-response","trial_index":239,"time_elapsed":2507838,"internal_node_id":"0.0-13.0-3.46","match_key":"l","participant_id":"38"},{"rt":null,"stimulus":"Sounds/train_sound.wav","key_press":null,"block":1,"trial_type":"audio-keyboard-response","trial_index":240,"time_elapsed":2509138,"internal_node_id":"0.0-13.0-0.47","match_key":"l","participant_id":"38"},{"rt":null,"stimulus":"<p style=\"font-size: 48px;\">+</p>","key_press":null,"block":1,"trial_type":"html-keyboard-response","trial_index":241,"time_elapsed":2510141,"internal_node_id":"0.0-13.0-1.47","match_key":"l","participant_id":"38"},{"rt":489.2050000000745,"stimulus":"Images/dog_cartoon.png","key_press":65,"stim_onset":1583117211433,"block":1,"match_type":"non-match","image_category":"dog","sound_category":"train","audio_type":"sound","phase":"test","trial_type":"image-keyboard-response","trial_index":242,"time_elapsed":2510632,"internal_node_id":"0.0-13.0-2.47","match_key":"l","participant_id":"38","correct":true},{"rt":null,"stimulus":"Sounds/correct.wav","key_press":null,"block":1,"trial_type":"audio-keyboard-response","trial_index":243,"time_elapsed":2512644,"internal_node_id":"0.0-13.0-3.47","match_key":"l","participant_id":"38"},{"rt":null,"stimulus":"Sounds/dog_sound.wav","key_press":null,"block":1,"trial_type":"audio-keyboard-response","trial_index":244,"time_elapsed":2513338,"internal_node_id":"0.0-13.0-0.48","match_key":"l","participant_id":"38"},{"rt":null,"stimulus":"<p style=\"font-size: 48px;\">+</p>","key_press":null,"block":1,"trial_type":"html-keyboard-response","trial_index":245,"time_elapsed":2514341,"internal_node_id":"0.0-13.0-1.48","match_key":"l","participant_id":"38"},{"rt":577.4049999997951,"stimulus":"Images/rooster_3.png","key_press":65,"stim_onset":1583117215633,"block":1,"match_type":"non-match","image_category":"rooster","sound_category":"dog","audio_type":"sound","phase":"test","trial_type":"image-keyboard-response","trial_index":246,"time_elapsed":2514920,"internal_node_id":"0.0-13.0-2.48","match_key":"l","participant_id":"38","correct":true},{"rt":null,"stimulus":"Sounds/correct.wav","key_press":null,"block":1,"trial_type":"audio-keyboard-response","trial_index":247,"time_elapsed":2516929,"internal_node_id":"0.0-13.0-3.48","match_key":"l","participant_id":"38"},{"rt":null,"stimulus":"Sounds/car_sound.wav","key_press":null,"block":1,"trial_type":"audio-keyboard-response","trial_index":248,"time_elapsed":2517998,"internal_node_id":"0.0-13.0-0.49","match_key":"l","participant_id":"38"},{"rt":null,"stimulus":"<p style=\"font-size: 48px;\">+</p>","key_press":null,"block":1,"trial_type":"html-keyboard-response","trial_index":249,"time_elapsed":2518991,"internal_node_id":"0.0-13.0-1.49","match_key":"l","participant_id":"38"},{"rt":999.4750000005588,"stimulus":"Images/car_cartoon.png","key_press":65,"stim_onset":1583117220283,"block":1,"match_type":"match","image_category":"car","sound_category":"car","audio_type":"sound","phase":"test","trial_type":"image-keyboard-response","trial_index":250,"time_elapsed":2519992,"internal_node_id":"0.0-13.0-2.49","match_key":"l","participant_id":"38","correct":false},{"rt":null,"stimulus":"Sounds/incorrect.wav","key_press":null,"block":1,"trial_type":"audio-keyboard-response","trial_index":251,"time_elapsed":2522000,"internal_node_id":"0.0-13.0-3.49","match_key":"l","participant_id":"38"},{"rt":null,"stimulus":"Sounds/gun_sound.wav","key_press":null,"block":1,"trial_type":"audio-keyboard-response","trial_index":252,"time_elapsed":2522578,"internal_node_id":"0.0-13.0-0.50","match_key":"l","participant_id":"38"},{"rt":null,"stimulus":"<p style=\"font-size: 48px;\">+</p>","key_press":null,"block":1,"trial_type":"html-keyboard-response","trial_index":253,"time_elapsed":2523575,"internal_node_id":"0.0-13.0-1.50","match_key":"l","participant_id":"38"},{"rt":671.9099999992177,"stimulus":"Images/gun_2.png","key_press":76,"stim_onset":1583117224867,"block":1,"match_type":"match","image_category":"gun","sound_category":"gun","audio_type":"sound","phase":"test","trial_type":"image-keyboard-response","trial_index":254,"time_elapsed":2524248,"internal_node_id":"0.0-13.0-2.50","match_key":"l","participant_id":"38","correct":true},{"rt":null,"stimulus":"Sounds/correct.wav","key_press":null,"block":1,"trial_type":"audio-keyboard-response","trial_index":255,"time_elapsed":2526255,"internal_node_id":"0.0-13.0-3.50","match_key":"l","participant_id":"38"},{"rt":null,"stimulus":"Sounds/frog_sound.wav","key_press":null,"block":1,"trial_type":"audio-keyboard-response","trial_index":256,"time_elapsed":2527159,"internal_node_id":"0.0-13.0-0.51","match_key":"l","participant_id":"38"},{"rt":null,"stimulus":"<p style=\"font-size: 48px;\">+</p>","key_press":null,"block":1,"trial_type":"html-keyboard-response","trial_index":257,"time_elapsed":2528158,"internal_node_id":"0.0-13.0-1.51","match_key":"l","participant_id":"38"},{"rt":520.7200000006706,"stimulus":"Images/frog_2.png","key_press":76,"stim_onset":1583117229450,"block":1,"match_type":"match","image_category":"frog","sound_category":"frog","audio_type":"sound","phase":"test","trial_type":"image-keyboard-response","trial_index":258,"time_elapsed":2528680,"internal_node_id":"0.0-13.0-2.51","match_key":"l","participant_id":"38","correct":true},{"rt":null,"stimulus":"Sounds/correct.wav","key_press":null,"block":1,"trial_type":"audio-keyboard-response","trial_index":259,"time_elapsed":2530684,"internal_node_id":"0.0-13.0-3.51","match_key":"l","participant_id":"38"},{"rt":null,"stimulus":"Sounds/rooster_label.wav","key_press":null,"block":1,"trial_type":"audio-keyboard-response","trial_index":260,"time_elapsed":2531378,"internal_node_id":"0.0-13.0-0.52","match_key":"l","participant_id":"38"},{"rt":null,"stimulus":"<p style=\"font-size: 48px;\">+</p>","key_press":null,"block":1,"trial_type":"html-keyboard-response","trial_index":261,"time_elapsed":2532375,"internal_node_id":"0.0-13.0-1.52","match_key":"l","participant_id":"38"},{"rt":527.999999998603,"stimulus":"Images/motorcycle_3.png","key_press":65,"stim_onset":1583117233667,"block":1,"match_type":"non-match","image_category":"motorcycle","sound_category":"rooster","audio_type":"label","phase":"test","trial_type":"image-keyboard-response","trial_index":262,"time_elapsed":2532904,"internal_node_id":"0.0-13.0-2.52","match_key":"l","participant_id":"38","correct":true},{"rt":null,"stimulus":"Sounds/correct.wav","key_press":null,"block":1,"trial_type":"audio-keyboard-response","trial_index":263,"time_elapsed":2534916,"internal_node_id":"0.0-13.0-3.52","match_key":"l","participant_id":"38"},{"rt":null,"stimulus":"Sounds/cow_sound.wav","key_press":null,"block":1,"trial_type":"audio-keyboard-response","trial_index":264,"time_elapsed":2535939,"internal_node_id":"0.0-13.0-0.53","match_key":"l","participant_id":"38"},{"rt":null,"stimulus":"<p style=\"font-size: 48px;\">+</p>","key_press":null,"block":1,"trial_type":"html-keyboard-response","trial_index":265,"time_elapsed":2536942,"internal_node_id":"0.0-13.0-1.53","match_key":"l","participant_id":"38"},{"rt":584.9249999988824,"stimulus":"Images/cow_2.png","key_press":76,"stim_onset":1583117238234,"block":1,"match_type":"match","image_category":"cow","sound_category":"cow","audio_type":"sound","phase":"test","trial_type":"image-keyboard-response","trial_index":266,"time_elapsed":2537528,"internal_node_id":"0.0-13.0-2.53","match_key":"l","participant_id":"38","correct":true},{"rt":null,"stimulus":"Sounds/correct.wav","key_press":null,"block":1,"trial_type":"audio-keyboard-response","trial_index":267,"time_elapsed":2539545,"internal_node_id":"0.0-13.0-3.53","match_key":"l","participant_id":"38"},{"rt":null,"stimulus":"Sounds/dog_label.wav","key_press":null,"block":1,"trial_type":"audio-keyboard-response","trial_index":268,"time_elapsed":2540199,"internal_node_id":"0.0-13.0-0.54","match_key":"l","participant_id":"38"},{"rt":null,"stimulus":"<p style=\"font-size: 48px;\">+</p>","key_press":null,"block":1,"trial_type":"html-keyboard-response","trial_index":269,"time_elapsed":2541192,"internal_node_id":"0.0-13.0-1.54","match_key":"l","participant_id":"38"},{"rt":542.9949999996461,"stimulus":"Images/dog_cartoon.png","key_press":76,"stim_onset":1583117242484,"block":1,"match_type":"match","image_category":"dog","sound_category":"dog","audio_type":"label","phase":"test","trial_type":"image-keyboard-response","trial_index":270,"time_elapsed":2541736,"internal_node_id":"0.0-13.0-2.54","match_key":"l","participant_id":"38","correct":true},{"rt":null,"stimulus":"Sounds/correct.wav","key_press":null,"block":1,"trial_type":"audio-keyboard-response","trial_index":271,"time_elapsed":2543749,"internal_node_id":"0.0-13.0-3.54","match_key":"l","participant_id":"38"},{"rt":null,"stimulus":"Sounds/car_sound.wav","key_press":null,"block":1,"trial_type":"audio-keyboard-response","trial_index":272,"time_elapsed":2544819,"internal_node_id":"0.0-13.0-0.55","match_key":"l","participant_id":"38"},{"rt":null,"stimulus":"<p style=\"font-size: 48px;\">+</p>","key_press":null,"block":1,"trial_type":"html-keyboard-response","trial_index":273,"time_elapsed":2545809,"internal_node_id":"0.0-13.0-1.55","match_key":"l","participant_id":"38"},{"rt":646.6000000000931,"stimulus":"Images/dog_3.png","key_press":65,"stim_onset":1583117247101,"block":1,"match_type":"non-match","image_category":"dog","sound_category":"car","audio_type":"sound","phase":"test","trial_type":"image-keyboard-response","trial_index":274,"time_elapsed":2546457,"internal_node_id":"0.0-13.0-2.55","match_key":"l","participant_id":"38","correct":true},{"rt":null,"stimulus":"Sounds/correct.wav","key_press":null,"block":1,"trial_type":"audio-keyboard-response","trial_index":275,"time_elapsed":2548460,"internal_node_id":"0.0-13.0-3.55","match_key":"l","participant_id":"38"},{"rt":null,"stimulus":"Sounds/frog_label.wav","key_press":null,"block":1,"trial_type":"audio-keyboard-response","trial_index":276,"time_elapsed":2549359,"internal_node_id":"0.0-13.0-0.56","match_key":"l","participant_id":"38"},{"rt":null,"stimulus":"<p style=\"font-size: 48px;\">+</p>","key_press":null,"block":1,"trial_type":"html-keyboard-response","trial_index":277,"time_elapsed":2550359,"internal_node_id":"0.0-13.0-1.56","match_key":"l","participant_id":"38"},{"rt":560.4399999994785,"stimulus":"Images/rooster_2.png","key_press":65,"stim_onset":1583117251651,"block":1,"match_type":"non-match","image_category":"rooster","sound_category":"frog","audio_type":"label","phase":"test","trial_type":"image-keyboard-response","trial_index":278,"time_elapsed":2550920,"internal_node_id":"0.0-13.0-2.56","match_key":"l","participant_id":"38","correct":true},{"rt":null,"stimulus":"Sounds/correct.wav","key_press":null,"block":1,"trial_type":"audio-keyboard-response","trial_index":279,"time_elapsed":2552933,"internal_node_id":"0.0-13.0-3.56","match_key":"l","participant_id":"38"},{"rt":null,"stimulus":"Sounds/train_label.wav","key_press":null,"block":1,"trial_type":"audio-keyboard-response","trial_index":280,"time_elapsed":2554219,"internal_node_id":"0.0-13.0-0.57","match_key":"l","participant_id":"38"},{"rt":null,"stimulus":"<p style=\"font-size: 48px;\">+</p>","key_press":null,"block":1,"trial_type":"html-keyboard-response","trial_index":281,"time_elapsed":2555209,"internal_node_id":"0.0-13.0-1.57","match_key":"l","participant_id":"38"},{"rt":862.4600000004284,"stimulus":"Images/train_cartoon.png","key_press":76,"stim_onset":1583117256501,"block":1,"match_type":"match","image_category":"train","sound_category":"train","audio_type":"label","phase":"test","trial_type":"image-keyboard-response","trial_index":282,"time_elapsed":2556072,"internal_node_id":"0.0-13.0-2.57","match_key":"l","participant_id":"38","correct":true},{"rt":null,"stimulus":"Sounds/correct.wav","key_press":null,"block":1,"trial_type":"audio-keyboard-response","trial_index":283,"time_elapsed":2558078,"internal_node_id":"0.0-13.0-3.57","match_key":"l","participant_id":"38"},{"rt":null,"stimulus":"Sounds/train_label.wav","key_press":null,"block":1,"trial_type":"audio-keyboard-response","trial_index":284,"time_elapsed":2559339,"internal_node_id":"0.0-13.0-0.58","match_key":"l","participant_id":"38"},{"rt":null,"stimulus":"<p style=\"font-size: 48px;\">+</p>","key_press":null,"block":1,"trial_type":"html-keyboard-response","trial_index":285,"time_elapsed":2560342,"internal_node_id":"0.0-13.0-1.58","match_key":"l","participant_id":"38"},{"rt":449.03499999968335,"stimulus":"Images/rooster_1.png","key_press":65,"stim_onset":1583117261635,"block":1,"match_type":"non-match","image_category":"rooster","sound_category":"train","audio_type":"label","phase":"test","trial_type":"image-keyboard-response","trial_index":286,"time_elapsed":2560793,"internal_node_id":"0.0-13.0-2.58","match_key":"l","participant_id":"38","correct":true},{"rt":null,"stimulus":"Sounds/correct.wav","key_press":null,"block":1,"trial_type":"audio-keyboard-response","trial_index":287,"time_elapsed":2562807,"internal_node_id":"0.0-13.0-3.58","match_key":"l","participant_id":"38"},{"rt":null,"stimulus":"Sounds/rooster_label.wav","key_press":null,"block":1,"trial_type":"audio-keyboard-response","trial_index":288,"time_elapsed":2563499,"internal_node_id":"0.0-13.0-0.59","match_key":"l","participant_id":"38"},{"rt":null,"stimulus":"<p style=\"font-size: 48px;\">+</p>","key_press":null,"block":1,"trial_type":"html-keyboard-response","trial_index":289,"time_elapsed":2564492,"internal_node_id":"0.0-13.0-1.59","match_key":"l","participant_id":"38"},{"rt":506.9249999993481,"stimulus":"Images/rooster_orig.png","key_press":76,"stim_onset":1583117265785,"block":1,"match_type":"match","image_category":"rooster","sound_category":"rooster","audio_type":"label","phase":"test","trial_type":"image-keyboard-response","trial_index":290,"time_elapsed":2565000,"internal_node_id":"0.0-13.0-2.59","match_key":"l","participant_id":"38","correct":true},{"rt":null,"stimulus":"Sounds/correct.wav","key_press":null,"block":1,"trial_type":"audio-keyboard-response","trial_index":291,"time_elapsed":2567004,"internal_node_id":"0.0-13.0-3.59","match_key":"l","participant_id":"38"},{"rt":null,"stimulus":"Sounds/frog_sound.wav","key_press":null,"block":1,"trial_type":"audio-keyboard-response","trial_index":292,"time_elapsed":2567919,"internal_node_id":"0.0-13.0-0.60","match_key":"l","participant_id":"38"},{"rt":null,"stimulus":"<p style=\"font-size: 48px;\">+</p>","key_press":null,"block":1,"trial_type":"html-keyboard-response","trial_index":293,"time_elapsed":2568909,"internal_node_id":"0.0-13.0-1.60","match_key":"l","participant_id":"38"},{"rt":698.0400000009686,"stimulus":"Images/cow_2.png","key_press":65,"stim_onset":1583117270201,"block":1,"match_type":"non-match","image_category":"cow","sound_category":"frog","audio_type":"sound","phase":"test","trial_type":"image-keyboard-response","trial_index":294,"time_elapsed":2569608,"internal_node_id":"0.0-13.0-2.60","match_key":"l","participant_id":"38","correct":true},{"rt":null,"stimulus":"Sounds/correct.wav","key_press":null,"block":1,"trial_type":"audio-keyboard-response","trial_index":295,"time_elapsed":2571621,"internal_node_id":"0.0-13.0-3.60","match_key":"l","participant_id":"38"},{"rt":null,"stimulus":"Sounds/gun_sound.wav","key_press":null,"block":1,"trial_type":"audio-keyboard-response","trial_index":296,"time_elapsed":2572199,"internal_node_id":"0.0-13.0-0.61","match_key":"l","participant_id":"38"},{"rt":null,"stimulus":"<p style=\"font-size: 48px;\">+</p>","key_press":null,"block":1,"trial_type":"html-keyboard-response","trial_index":297,"time_elapsed":2573193,"internal_node_id":"0.0-13.0-1.61","match_key":"l","participant_id":"38"},{"rt":702.7899999991059,"stimulus":"Images/gun_cartoon.png","key_press":76,"stim_onset":1583117274485,"block":1,"match_type":"match","image_category":"gun","sound_category":"gun","audio_type":"sound","phase":"test","trial_type":"image-keyboard-response","trial_index":298,"time_elapsed":2573897,"internal_node_id":"0.0-13.0-2.61","match_key":"l","participant_id":"38","correct":true},{"rt":null,"stimulus":"Sounds/correct.wav","key_press":null,"block":1,"trial_type":"audio-keyboard-response","trial_index":299,"time_elapsed":2575906,"internal_node_id":"0.0-13.0-3.61","match_key":"l","participant_id":"38"},{"rt":null,"stimulus":"Sounds/train_label.wav","key_press":null,"block":1,"trial_type":"audio-keyboard-response","trial_index":300,"time_elapsed":2577159,"internal_node_id":"0.0-13.0-0.62","match_key":"l","participant_id":"38"},{"rt":null,"stimulus":"<p style=\"font-size: 48px;\">+</p>","key_press":null,"block":1,"trial_type":"html-keyboard-response","trial_index":301,"time_elapsed":2578159,"internal_node_id":"0.0-13.0-1.62","match_key":"l","participant_id":"38"},{"rt":648.3249999997206,"stimulus":"Images/train_orig.png","key_press":76,"stim_onset":1583117279452,"block":1,"match_type":"match","image_category":"train","sound_category":"train","audio_type":"label","phase":"test","trial_type":"image-keyboard-response","trial_index":302,"time_elapsed":2578810,"internal_node_id":"0.0-13.0-2.62","match_key":"l","participant_id":"38","correct":true},{"rt":null,"stimulus":"Sounds/correct.wav","key_press":null,"block":1,"trial_type":"audio-keyboard-response","trial_index":303,"time_elapsed":2580815,"internal_node_id":"0.0-13.0-3.62","match_key":"l","participant_id":"38"},{"rt":null,"stimulus":"Sounds/cat_label.wav","key_press":null,"block":1,"trial_type":"audio-keyboard-response","trial_index":304,"time_elapsed":2581659,"internal_node_id":"0.0-13.0-0.63","match_key":"l","participant_id":"38"},{"rt":null,"stimulus":"<p style=\"font-size: 48px;\">+</p>","key_press":null,"block":1,"trial_type":"html-keyboard-response","trial_index":305,"time_elapsed":2582659,"internal_node_id":"0.0-13.0-1.63","match_key":"l","participant_id":"38"},{"rt":516.3750000009313,"stimulus":"Images/car_cartoon.png","key_press":65,"stim_onset":1583117283951,"block":1,"match_type":"non-match","image_category":"car","sound_category":"cat","audio_type":"label","phase":"test","trial_type":"image-keyboard-response","trial_index":306,"time_elapsed":2583177,"internal_node_id":"0.0-13.0-2.63","match_key":"l","participant_id":"38","correct":true},{"rt":null,"stimulus":"Sounds/correct.wav","key_press":null,"block":1,"trial_type":"audio-keyboard-response","trial_index":307,"time_elapsed":2585186,"internal_node_id":"0.0-13.0-3.63","match_key":"l","participant_id":"38"},{"rt":null,"stimulus":"Sounds/whistle_label.wav","key_press":null,"block":1,"trial_type":"audio-keyboard-response","trial_index":308,"time_elapsed":2585879,"internal_node_id":"0.0-13.0-0.64","match_key":"l","participant_id":"38"},{"rt":null,"stimulus":"<p style=\"font-size: 48px;\">+</p>","key_press":null,"block":1,"trial_type":"html-keyboard-response","trial_index":309,"time_elapsed":2586876,"internal_node_id":"0.0-13.0-1.64","match_key":"l","participant_id":"38"},{"rt":1051.2050000000745,"stimulus":"Images/whistle_3.png","key_press":76,"stim_onset":1583117288169,"block":1,"match_type":"match","image_category":"whistle","sound_category":"whistle","audio_type":"label","phase":"test","trial_type":"image-keyboard-response","trial_index":310,"time_elapsed":2587929,"internal_node_id":"0.0-13.0-2.64","match_key":"l","participant_id":"38","correct":true},{"rt":null,"stimulus":"Sounds/correct.wav","key_press":null,"block":1,"trial_type":"audio-keyboard-response","trial_index":311,"time_elapsed":2589937,"internal_node_id":"0.0-13.0-3.64","match_key":"l","participant_id":"38"},{"rt":null,"stimulus":"Sounds/cow_label.wav","key_press":null,"block":1,"trial_type":"audio-keyboard-response","trial_index":312,"time_elapsed":2590959,"internal_node_id":"0.0-13.0-0.65","match_key":"l","participant_id":"38"},{"rt":null,"stimulus":"<p style=\"font-size: 48px;\">+</p>","key_press":null,"block":1,"trial_type":"html-keyboard-response","trial_index":313,"time_elapsed":2591960,"internal_node_id":"0.0-13.0-1.65","match_key":"l","participant_id":"38"},{"rt":591.6900000008754,"stimulus":"Images/cow_cartoon.png","key_press":76,"stim_onset":1583117293252,"block":1,"match_type":"match","image_category":"cow","sound_category":"cow","audio_type":"label","phase":"test","trial_type":"image-keyboard-response","trial_index":314,"time_elapsed":2592552,"internal_node_id":"0.0-13.0-2.65","match_key":"l","participant_id":"38","correct":true},{"rt":null,"stimulus":"Sounds/correct.wav","key_press":null,"block":1,"trial_type":"audio-keyboard-response","trial_index":315,"time_elapsed":2594564,"internal_node_id":"0.0-13.0-3.65","match_key":"l","participant_id":"38"},{"rt":null,"stimulus":"Sounds/dog_sound.wav","key_press":null,"block":1,"trial_type":"audio-keyboard-response","trial_index":316,"time_elapsed":2595280,"internal_node_id":"0.0-13.0-0.66","match_key":"l","participant_id":"38"},{"rt":null,"stimulus":"<p style=\"font-size: 48px;\">+</p>","key_press":null,"block":1,"trial_type":"html-keyboard-response","trial_index":317,"time_elapsed":2596277,"internal_node_id":"0.0-13.0-1.66","match_key":"l","participant_id":"38"},{"rt":515.1649999986403,"stimulus":"Images/dog_orig.png","key_press":76,"stim_onset":1583117297569,"block":1,"match_type":"match","image_category":"dog","sound_category":"dog","audio_type":"sound","phase":"test","trial_type":"image-keyboard-response","trial_index":318,"time_elapsed":2596793,"internal_node_id":"0.0-13.0-2.66","match_key":"l","participant_id":"38","correct":true},{"rt":null,"stimulus":"Sounds/correct.wav","key_press":null,"block":1,"trial_type":"audio-keyboard-response","trial_index":319,"time_elapsed":2598803,"internal_node_id":"0.0-13.0-3.66","match_key":"l","participant_id":"38"},{"rt":null,"stimulus":"Sounds/rooster_sound.wav","key_press":null,"block":1,"trial_type":"audio-keyboard-response","trial_index":320,"time_elapsed":2599500,"internal_node_id":"0.0-13.0-0.67","match_key":"l","participant_id":"38"},{"rt":null,"stimulus":"<p style=\"font-size: 48px;\">+</p>","key_press":null,"block":1,"trial_type":"html-keyboard-response","trial_index":321,"time_elapsed":2600494,"internal_node_id":"0.0-13.0-1.67","match_key":"l","participant_id":"38"},{"rt":634.7499999990687,"stimulus":"Images/gun_orig.png","key_press":65,"stim_onset":1583117301786,"block":1,"match_type":"non-match","image_category":"gun","sound_category":"rooster","audio_type":"sound","phase":"test","trial_type":"image-keyboard-response","trial_index":322,"time_elapsed":2601129,"internal_node_id":"0.0-13.0-2.67","match_key":"l","participant_id":"38","correct":true},{"rt":null,"stimulus":"Sounds/correct.wav","key_press":null,"block":1,"trial_type":"audio-keyboard-response","trial_index":323,"time_elapsed":2603143,"internal_node_id":"0.0-13.0-3.67","match_key":"l","participant_id":"38"},{"rt":null,"stimulus":"Sounds/gun_sound.wav","key_press":null,"block":1,"trial_type":"audio-keyboard-response","trial_index":324,"time_elapsed":2603720,"internal_node_id":"0.0-13.0-0.68","match_key":"l","participant_id":"38"},{"rt":null,"stimulus":"<p style=\"font-size: 48px;\">+</p>","key_press":null,"block":1,"trial_type":"html-keyboard-response","trial_index":325,"time_elapsed":2604710,"internal_node_id":"0.0-13.0-1.68","match_key":"l","participant_id":"38"},{"rt":561.2250000010245,"stimulus":"Images/frog_2.png","key_press":65,"stim_onset":1583117306002,"block":1,"match_type":"non-match","image_category":"frog","sound_category":"gun","audio_type":"sound","phase":"test","trial_type":"image-keyboard-response","trial_index":326,"time_elapsed":2605273,"internal_node_id":"0.0-13.0-2.68","match_key":"l","participant_id":"38","correct":true},{"rt":null,"stimulus":"Sounds/correct.wav","key_press":null,"block":1,"trial_type":"audio-keyboard-response","trial_index":327,"time_elapsed":2607286,"internal_node_id":"0.0-13.0-3.68","match_key":"l","participant_id":"38"},{"rt":null,"stimulus":"Sounds/motorcycle_label.wav","key_press":null,"block":1,"trial_type":"audio-keyboard-response","trial_index":328,"time_elapsed":2608420,"internal_node_id":"0.0-13.0-0.69","match_key":"l","participant_id":"38"},{"rt":null,"stimulus":"<p style=\"font-size: 48px;\">+</p>","key_press":null,"block":1,"trial_type":"html-keyboard-response","trial_index":329,"time_elapsed":2609410,"internal_node_id":"0.0-13.0-1.69","match_key":"l","participant_id":"38"},{"rt":533.3350000004284,"stimulus":"Images/frog_orig.png","key_press":65,"stim_onset":1583117310703,"block":1,"match_type":"non-match","image_category":"frog","sound_category":"motorcycle","audio_type":"label","phase":"test","trial_type":"image-keyboard-response","trial_index":330,"time_elapsed":2609945,"internal_node_id":"0.0-13.0-2.69","match_key":"l","participant_id":"38","correct":true},{"rt":null,"stimulus":"Sounds/correct.wav","key_press":null,"block":1,"trial_type":"audio-keyboard-response","trial_index":331,"time_elapsed":2611954,"internal_node_id":"0.0-13.0-3.69","match_key":"l","participant_id":"38"},{"rt":null,"stimulus":"Sounds/frog_label.wav","key_press":null,"block":1,"trial_type":"audio-keyboard-response","trial_index":332,"time_elapsed":2612860,"internal_node_id":"0.0-13.0-0.70","match_key":"l","participant_id":"38"},{"rt":null,"stimulus":"<p style=\"font-size: 48px;\">+</p>","key_press":null,"block":1,"trial_type":"html-keyboard-response","trial_index":333,"time_elapsed":2613860,"internal_node_id":"0.0-13.0-1.70","match_key":"l","participant_id":"38"},{"rt":531.7749999994412,"stimulus":"Images/frog_1.png","key_press":76,"stim_onset":1583117315153,"block":1,"match_type":"match","image_category":"frog","sound_category":"frog","audio_type":"label","phase":"test","trial_type":"image-keyboard-response","trial_index":334,"time_elapsed":2614393,"internal_node_id":"0.0-13.0-2.70","match_key":"l","participant_id":"38","correct":true},{"rt":null,"stimulus":"Sounds/correct.wav","key_press":null,"block":1,"trial_type":"audio-keyboard-response","trial_index":335,"time_elapsed":2616402,"internal_node_id":"0.0-13.0-3.70","match_key":"l","participant_id":"38"},{"rt":null,"stimulus":"Sounds/motorcycle_sound.wav","key_press":null,"block":1,"trial_type":"audio-keyboard-response","trial_index":336,"time_elapsed":2617520,"internal_node_id":"0.0-13.0-0.71","match_key":"l","participant_id":"38"},{"rt":null,"stimulus":"<p style=\"font-size: 48px;\">+</p>","key_press":null,"block":1,"trial_type":"html-keyboard-response","trial_index":337,"time_elapsed":2618510,"internal_node_id":"0.0-13.0-1.71","match_key":"l","participant_id":"38"},{"rt":505.6750000002794,"stimulus":"Images/motorcycle_1.png","key_press":76,"stim_onset":1583117319803,"block":1,"match_type":"match","image_category":"motorcycle","sound_category":"motorcycle","audio_type":"sound","phase":"test","trial_type":"image-keyboard-response","trial_index":338,"time_elapsed":2619017,"internal_node_id":"0.0-13.0-2.71","match_key":"l","participant_id":"38","correct":true},{"rt":null,"stimulus":"Sounds/correct.wav","key_press":null,"block":1,"trial_type":"audio-keyboard-response","trial_index":339,"time_elapsed":2621021,"internal_node_id":"0.0-13.0-3.71","match_key":"l","participant_id":"38"},{"rt":null,"stimulus":"Sounds/motorcycle_sound.wav","key_press":null,"block":1,"trial_type":"audio-keyboard-response","trial_index":340,"time_elapsed":2622120,"internal_node_id":"0.0-13.0-0.72","match_key":"l","participant_id":"38"},{"rt":null,"stimulus":"<p style=\"font-size: 48px;\">+</p>","key_press":null,"block":1,"trial_type":"html-keyboard-response","trial_index":341,"time_elapsed":2623111,"internal_node_id":"0.0-13.0-1.72","match_key":"l","participant_id":"38"},{"rt":545.409999998752,"stimulus":"Images/cow_1.png","key_press":65,"stim_onset":1583117324403,"block":1,"match_type":"non-match","image_category":"cow","sound_category":"motorcycle","audio_type":"sound","phase":"test","trial_type":"image-keyboard-response","trial_index":342,"time_elapsed":2623657,"internal_node_id":"0.0-13.0-2.72","match_key":"l","participant_id":"38","correct":true},{"rt":null,"stimulus":"Sounds/correct.wav","key_press":null,"block":1,"trial_type":"audio-keyboard-response","trial_index":343,"time_elapsed":2625674,"internal_node_id":"0.0-13.0-3.72","match_key":"l","participant_id":"38"},{"rt":null,"stimulus":"Sounds/car_sound.wav","key_press":null,"block":1,"trial_type":"audio-keyboard-response","trial_index":344,"time_elapsed":2626760,"internal_node_id":"0.0-13.0-0.73","match_key":"l","participant_id":"38"},{"rt":null,"stimulus":"<p style=\"font-size: 48px;\">+</p>","key_press":null,"block":1,"trial_type":"html-keyboard-response","trial_index":345,"time_elapsed":2627761,"internal_node_id":"0.0-13.0-1.73","match_key":"l","participant_id":"38"},{"rt":679.804999999702,"stimulus":"Images/frog_1.png","key_press":65,"stim_onset":1583117329053,"block":1,"match_type":"non-match","image_category":"frog","sound_category":"car","audio_type":"sound","phase":"test","trial_type":"image-keyboard-response","trial_index":346,"time_elapsed":2628442,"internal_node_id":"0.0-13.0-2.73","match_key":"l","participant_id":"38","correct":true},{"rt":null,"stimulus":"Sounds/correct.wav","key_press":null,"block":1,"trial_type":"audio-keyboard-response","trial_index":347,"time_elapsed":2630457,"internal_node_id":"0.0-13.0-3.73","match_key":"l","participant_id":"38"},{"rt":null,"stimulus":"Sounds/frog_sound.wav","key_press":null,"block":1,"trial_type":"audio-keyboard-response","trial_index":348,"time_elapsed":2631360,"internal_node_id":"0.0-13.0-0.74","match_key":"l","participant_id":"38"},{"rt":null,"stimulus":"<p style=\"font-size: 48px;\">+</p>","key_press":null,"block":1,"trial_type":"html-keyboard-response","trial_index":349,"time_elapsed":2632361,"internal_node_id":"0.0-13.0-1.74","match_key":"l","participant_id":"38"},{"rt":767.6900000004098,"stimulus":"Images/frog_3.png","key_press":76,"stim_onset":1583117333653,"block":1,"match_type":"match","image_category":"frog","sound_category":"frog","audio_type":"sound","phase":"test","trial_type":"image-keyboard-response","trial_index":350,"time_elapsed":2633129,"internal_node_id":"0.0-13.0-2.74","match_key":"l","participant_id":"38","correct":true},{"rt":null,"stimulus":"Sounds/correct.wav","key_press":null,"block":1,"trial_type":"audio-keyboard-response","trial_index":351,"time_elapsed":2635135,"internal_node_id":"0.0-13.0-3.74","match_key":"l","participant_id":"38"},{"rt":null,"stimulus":"Sounds/cow_sound.wav","key_press":null,"block":1,"trial_type":"audio-keyboard-response","trial_index":352,"time_elapsed":2636160,"internal_node_id":"0.0-13.0-0.75","match_key":"l","participant_id":"38"},{"rt":null,"stimulus":"<p style=\"font-size: 48px;\">+</p>","key_press":null,"block":1,"trial_type":"html-keyboard-response","trial_index":353,"time_elapsed":2637161,"internal_node_id":"0.0-13.0-1.75","match_key":"l","participant_id":"38"},{"rt":447.3400000007823,"stimulus":"Images/cow_1.png","key_press":76,"stim_onset":1583117338453,"block":1,"match_type":"match","image_category":"cow","sound_category":"cow","audio_type":"sound","phase":"test","trial_type":"image-keyboard-response","trial_index":354,"time_elapsed":2637609,"internal_node_id":"0.0-13.0-2.75","match_key":"l","participant_id":"38","correct":true},{"rt":null,"stimulus":"Sounds/correct.wav","key_press":null,"block":1,"trial_type":"audio-keyboard-response","trial_index":355,"time_elapsed":2639616,"internal_node_id":"0.0-13.0-3.75","match_key":"l","participant_id":"38"},{"rt":null,"stimulus":"Sounds/dog_label.wav","key_press":null,"block":1,"trial_type":"audio-keyboard-response","trial_index":356,"time_elapsed":2640280,"internal_node_id":"0.0-13.0-0.76","match_key":"l","participant_id":"38"},{"rt":null,"stimulus":"<p style=\"font-size: 48px;\">+</p>","key_press":null,"block":1,"trial_type":"html-keyboard-response","trial_index":357,"time_elapsed":2641277,"internal_node_id":"0.0-13.0-1.76","match_key":"l","participant_id":"38"},{"rt":619.0100000002421,"stimulus":"Images/dog_1.png","key_press":76,"stim_onset":1583117342570,"block":1,"match_type":"match","image_category":"dog","sound_category":"dog","audio_type":"label","phase":"test","trial_type":"image-keyboard-response","trial_index":358,"time_elapsed":2641898,"internal_node_id":"0.0-13.0-2.76","match_key":"l","participant_id":"38","correct":true},{"rt":null,"stimulus":"Sounds/correct.wav","key_press":null,"block":1,"trial_type":"audio-keyboard-response","trial_index":359,"time_elapsed":2643912,"internal_node_id":"0.0-13.0-3.76","match_key":"l","participant_id":"38"},{"rt":null,"stimulus":"Sounds/gun_sound.wav","key_press":null,"block":1,"trial_type":"audio-keyboard-response","trial_index":360,"time_elapsed":2644480,"internal_node_id":"0.0-13.0-0.77","match_key":"l","participant_id":"38"},{"rt":null,"stimulus":"<p style=\"font-size: 48px;\">+</p>","key_press":null,"block":1,"trial_type":"html-keyboard-response","trial_index":361,"time_elapsed":2645477,"internal_node_id":"0.0-13.0-1.77","match_key":"l","participant_id":"38"},{"rt":946.5049999998882,"stimulus":"Images/cow_cartoon.png","key_press":65,"stim_onset":1583117346770,"block":1,"match_type":"non-match","image_category":"cow","sound_category":"gun","audio_type":"sound","phase":"test","trial_type":"image-keyboard-response","trial_index":362,"time_elapsed":2646425,"internal_node_id":"0.0-13.0-2.77","match_key":"l","participant_id":"38","correct":true},{"rt":null,"stimulus":"Sounds/correct.wav","key_press":null,"block":1,"trial_type":"audio-keyboard-response","trial_index":363,"time_elapsed":2648437,"internal_node_id":"0.0-13.0-3.77","match_key":"l","participant_id":"38"},{"rt":null,"stimulus":"Sounds/car_label.wav","key_press":null,"block":1,"trial_type":"audio-keyboard-response","trial_index":364,"time_elapsed":2649520,"internal_node_id":"0.0-13.0-0.78","match_key":"l","participant_id":"38"},{"rt":null,"stimulus":"<p style=\"font-size: 48px;\">+</p>","key_press":null,"block":1,"trial_type":"html-keyboard-response","trial_index":365,"time_elapsed":2650511,"internal_node_id":"0.0-13.0-1.78","match_key":"l","participant_id":"38"},{"rt":521.269999999553,"stimulus":"Images/car_1.png","key_press":76,"stim_