"rt","responses","trial_type","trial_index","time_elapsed","internal_node_id","match_key","participant_id","stimulus","key_press","block","stim_onset","match_type","image_category","sound_category","audio_type","phase","correct"
"20581.39000000665","{""Q0"":""40""}","survey-text","0","20625","0.0-0.0","l","40","","","","","","","","","",""
"47461.41999997781","","html-keyboard-response","1","68212","0.0-1.0","l","40","<p>Use KEYBOARD 1 (match RIGHT)</p><p>Press MATCH to continue.</p>","76","","","","","","","",""
"2754433.9900000193","","html-keyboard-response","2","2822893","0.0-2.0","l","40","<p>Welcome to the experiment.</p>","32","","","","","","","",""
"10041.480000014417","","html-keyboard-response","3","2832934","0.0-3.0","l","40","<p>Thank you for agreeing to participate in this study.</p><p>If during any part of the procedure you must stop for any reason, please inform the researcher that you do not wish to continue.</p>","32","","","","","","","",""
"16174.759999994654","","html-keyboard-response","4","2849110","0.0-4.0","l","40","<p>In this experiment, you will hear various words or sounds and see pictures of various animals and objects.</p><p>Most of the images will be of common everyday objects, such as cars, cats, cows, firearms, frogs, chickens, whistles, trains, motorcycles, and dogs.</p><p>Some of the images will be real-life stills, while others will be cartoons.</p>","32","","","","","","","",""
"13359.140000015032","","html-keyboard-response","5","2862471","0.0-5.0","l","40","<p>Sometimes, the word/sound will match the picture, for example you'll hear a meowing sound and see a cat.</p><p>Other times, the picture will not match the sound or word.</p><p>Your task is to decide as quickly as possible if the word/sound matches the picture or not. </p>","32","","","","","","","",""
"11358.319999999367","","html-keyboard-response","6","2873830","0.0-6.0","l","40","<p>For example, if you hear the word ""cat"" or hear a meowing sound, and then see a picture of a cat, you should press the MATCH key.</p><p> If the sound and image do not match, press the NOT-MATCH key to indicate that there is not a match.</p>","32","","","","","","","",""
"9934.744999976829","","html-keyboard-response","7","2883766","0.0-7.0","l","40","<p>If you make a mistake, you will hear a buzzing sound instead of a more pleasant sound.</p><p> Try to respond as quickly as possible, while making as few errors as possible. If you are making mistakes, you are probably rushing.</p>","32","","","","","","","",""
"9326.984999992419","","html-keyboard-response","8","2893104","0.0-8.0","l","40","<p>Please try to not move or blink your eyes during the presentation of the images. You can move and blink between images.</p><p>During the experiment there will be some breaks during which you can rest your eyes.</p>","32","","","","","","","",""
"5326.495000015479","","html-keyboard-response","9","2898431","0.0-9.0","l","40","<p>We will begin with 10 practice trials. Please let the experimenter know if you have any questions.</p>","32","","","","","","","",""
"null","","audio-keyboard-response","10","2899225","0.0-10.0-0.0","l","40","Sounds/whistle_label.wav","null","0","","","","","","",""
"null","","html-keyboard-response","11","2900218","0.0-10.0-1.0","l","40","<p style=""font-size: 48px;"">+</p>","null","0","","","","","","",""
"7795.545000000857","","image-keyboard-response","12","2908016","0.0-10.0-2.0","l","40","Images/whistle_1.png","76","0","1583263165911","match","whistle","whistle","label","practice","true"
"null","","audio-keyboard-response","13","2910026","0.0-10.0-3.0","l","40","Sounds/correct.wav","null","0","","","","","","",""
"null","","audio-keyboard-response","14","2911145","0.0-10.0-0.1","l","40","Sounds/motorcycle_sound.wav","null","0","","","","","","",""
"null","","html-keyboard-response","15","2912151","0.0-10.0-1.1","l","40","<p style=""font-size: 48px;"">+</p>","null","0","","","","","","",""
"1254.805000003893","","image-keyboard-response","16","2913407","0.0-10.0-2.1","l","40","Images/train_2.png","76","0","1583263177844","non-match","train","motorcycle","sound","practice","false"
"null","","audio-keyboard-response","17","2915411","0.0-10.0-3.1","l","40","Sounds/incorrect.wav","null","0","","","","","","",""
"null","","audio-keyboard-response","18","2916685","0.0-10.0-0.2","l","40","Sounds/train_label.wav","null","0","","","","","","",""
"null","","html-keyboard-response","19","2917685","0.0-10.0-1.2","l","40","<p style=""font-size: 48px;"">+</p>","null","0","","","","","","",""
"3161.7649999973364","","image-keyboard-response","20","2920848","0.0-10.0-2.2","l","40","Images/train_2.png","65","0","1583263183378","match","train","train","label","practice","false"
"null","","audio-keyboard-response","21","2922861","0.0-10.0-3.2","l","40","Sounds/incorrect.wav","null","0","","","","","","",""
"null","","audio-keyboard-response","22","2923765","0.0-10.0-0.3","l","40","Sounds/frog_label.wav","null","0","","","","","","",""
"null","","html-keyboard-response","23","2924768","0.0-10.0-1.3","l","40","<p style=""font-size: 48px;"">+</p>","null","0","","","","","","",""
"1022.1050000106916","","image-keyboard-response","24","2925791","0.0-10.0-2.3","l","40","Images/dog_1.png","65","0","1583263190462","non-match","dog","frog","label","practice","true"
"null","","audio-keyboard-response","25","2927806","0.0-10.0-3.3","l","40","Sounds/correct.wav","null","0","","","","","","",""
"null","","audio-keyboard-response","26","2928525","0.0-10.0-0.4","l","40","Sounds/dog_sound.wav","null","0","","","","","","",""
"null","","html-keyboard-response","27","2929518","0.0-10.0-1.4","l","40","<p style=""font-size: 48px;"">+</p>","null","0","","","","","","",""
"783.9549999916926","","image-keyboard-response","28","2930303","0.0-10.0-2.4","l","40","Images/train_orig.png","65","0","1583263195211","non-match","train","dog","sound","practice","true"
"null","","audio-keyboard-response","29","2932307","0.0-10.0-3.4","l","40","Sounds/correct.wav","null","0","","","","","","",""
"null","","audio-keyboard-response","30","2933425","0.0-10.0-0.5","l","40","Sounds/motorcycle_sound.wav","null","0","","","","","","",""
"null","","html-keyboard-response","31","2934418","0.0-10.0-1.5","l","40","<p style=""font-size: 48px;"">+</p>","null","0","","","","","","",""
"539.9900000193156","","image-keyboard-response","32","2934960","0.0-10.0-2.5","l","40","Images/motorcycle_2.png","76","0","1583263200112","match","motorcycle","motorcycle","sound","practice","true"
"null","","audio-keyboard-response","33","2936974","0.0-10.0-3.5","l","40","Sounds/correct.wav","null","0","","","","","","",""
"null","","audio-keyboard-response","34","2937845","0.0-10.0-0.6","l","40","Sounds/frog_label.wav","null","0","","","","","","",""
"null","","html-keyboard-response","35","2938835","0.0-10.0-1.6","l","40","<p style=""font-size: 48px;"">+</p>","null","0","","","","","","",""
"891.2349999882281","","image-keyboard-response","36","2939728","0.0-10.0-2.6","l","40","Images/frog_orig.png","76","0","1583263204528","match","frog","frog","label","practice","true"
"null","","audio-keyboard-response","37","2941741","0.0-10.0-3.6","l","40","Sounds/correct.wav","null","0","","","","","","",""
"null","","audio-keyboard-response","38","2942825","0.0-10.0-0.7","l","40","Sounds/motorcycle_sound.wav","null","0","","","","","","",""
"null","","html-keyboard-response","39","2943818","0.0-10.0-1.7","l","40","<p style=""font-size: 48px;"">+</p>","null","0","","","","","","",""
"723.8550000186078","","image-keyboard-response","40","2944544","0.0-10.0-2.7","l","40","Images/gun_1.png","65","0","1583263209512","non-match","gun","motorcycle","sound","practice","true"
"null","","audio-keyboard-response","41","2946555","0.0-10.0-3.7","l","40","Sounds/correct.wav","null","0","","","","","","",""
"null","","audio-keyboard-response","42","2947245","0.0-10.0-0.8","l","40","Sounds/whistle_sound.wav","null","0","","","","","","",""
"null","","html-keyboard-response","43","2948235","0.0-10.0-1.8","l","40","<p style=""font-size: 48px;"">+</p>","null","0","","","","","","",""
"659.2850000020117","","image-keyboard-response","44","2948896","0.0-10.0-2.8","l","40","Images/cat_cartoon.png","65","0","1583263213928","non-match","cat","whistle","sound","practice","true"
"null","","audio-keyboard-response","45","2950906","0.0-10.0-3.8","l","40","Sounds/correct.wav","null","0","","","","","","",""
"null","","audio-keyboard-response","46","2951965","0.0-10.0-0.9","l","40","Sounds/car_sound.wav","null","0","","","","","","",""
"null","","html-keyboard-response","47","2952968","0.0-10.0-1.9","l","40","<p style=""font-size: 48px;"">+</p>","null","0","","","","","","",""
"694.0250000040978","","image-keyboard-response","48","2953669","0.0-10.0-2.9","l","40","Images/frog_2.png","65","0","1583263218662","non-match","frog","car","sound","practice","true"
"null","","audio-keyboard-response","49","2955677","0.0-10.0-3.9","l","40","Sounds/correct.wav","null","0","","","","","","",""
"23639.514999988023","","html-keyboard-response","50","2979317","0.0-11.0","l","40","<p>The rest of the experiment is divided into five blocks with 100 trials in each block. It will take about 45 minutes to complete.</p><p>The experimenter will be in the outer room and you can communicate with them through the monitor if you have any questions or wish to stop the experiment.</p>","32","","","","","","","",""
"3198.3649999895133","","html-keyboard-response","51","2982517","0.0-12.0","l","40","<p>Remember, please try not to move or blink your eyes during the presentation of the images. </p><p>At the end of the experiment, we will show you your scores on the task so you can see how you did.</p><p>The experiment will start on the next screen.</p>","32","","","","","","","",""
"null","","audio-keyboard-response","52","2985235","0.0-13.0-0.0","l","40","Sounds/rooster_sound.wav","null","1","","","","","","",""
"null","","html-keyboard-response","53","2986224","0.0-13.0-1.0","l","40","<p style=""font-size: 48px;"">+</p>","null","1","","","","","","",""
"787.3600000166334","","image-keyboard-response","54","2987013","0.0-13.0-2.0","l","40","Images/whistle_2.png","65","1","1583263251917","non-match","whistle","rooster","sound","test","true"
"null","","audio-keyboard-response","55","2989028","0.0-13.0-3.0","l","40","Sounds/correct.wav","null","1","","","","","","",""
"null","","audio-keyboard-response","56","2989696","0.0-13.0-0.1","l","40","Sounds/rooster_sound.wav","null","1","","","","","","",""
"null","","html-keyboard-response","57","2990691","0.0-13.0-1.1","l","40","<p style=""font-size: 48px;"">+</p>","null","1","","","","","","",""
"528.7100000130013","","image-keyboard-response","58","2991221","0.0-13.0-2.1","l","40","Images/rooster_1.png","76","1","1583263256384","match","rooster","rooster","sound","test","true"
"null","","audio-keyboard-response","59","2993227","0.0-13.0-3.1","l","40","Sounds/correct.wav","null","1","","","","","","",""
"null","","audio-keyboard-response","60","2993935","0.0-13.0-0.2","l","40","Sounds/whistle_label.wav","null","1","","","","","","",""
"null","","html-keyboard-response","61","2994924","0.0-13.0-1.2","l","40","<p style=""font-size: 48px;"">+</p>","null","1","","","","","","",""
"695.1249999981374","","image-keyboard-response","62","2995621","0.0-13.0-2.2","l","40","Images/whistle_1.png","76","1","1583263260617","match","whistle","whistle","label","test","true"
"null","","audio-keyboard-response","63","2997631","0.0-13.0-3.2","l","40","Sounds/correct.wav","null","1","","","","","","",""
"null","","audio-keyboard-response","64","2998295","0.0-13.0-0.3","l","40","Sounds/dog_label.wav","null","1","","","","","","",""
"null","","html-keyboard-response","65","2999291","0.0-13.0-1.3","l","40","<p style=""font-size: 48px;"">+</p>","null","1","","","","","","",""
"488.5199999846518","","image-keyboard-response","66","2999781","0.0-13.0-2.3","l","40","Images/dog_1.png","76","1","1583263264984","match","dog","dog","label","test","true"
"null","","audio-keyboard-response","67","3001795","0.0-13.0-3.3","l","40","Sounds/correct.wav","null","1","","","","","","",""
"null","","audio-keyboard-response","68","3002475","0.0-13.0-0.4","l","40","Sounds/whistle_label.wav","null","1","","","","","","",""
"null","","html-keyboard-response","69","3003474","0.0-13.0-1.4","l","40","<p style=""font-size: 48px;"">+</p>","null","1","","","","","","",""
"641.4949999889359","","image-keyboard-response","70","3004117","0.0-13.0-2.4","l","40","Images/whistle_cartoon.png","76","1","1583263269167","match","whistle","whistle","label","test","true"
"null","","audio-keyboard-response","71","3006127","0.0-13.0-3.4","l","40","Sounds/correct.wav","null","1","","","","","","",""
"null","","audio-keyboard-response","72","3007155","0.0-13.0-0.5","l","40","Sounds/cow_sound.wav","null","1","","","","","","",""
"null","","html-keyboard-response","73","3008158","0.0-13.0-1.5","l","40","<p style=""font-size: 48px;"">+</p>","null","1","","","","","","",""
"549.9249999993481","","image-keyboard-response","74","3008709","0.0-13.0-2.5","l","40","Images/dog_3.png","65","1","1583263273851","non-match","dog","cow","sound","test","true"
"null","","audio-keyboard-response","75","3010715","0.0-13.0-3.5","l","40","Sounds/correct.wav","null","1","","","","","","",""
"null","","audio-keyboard-response","76","3011835","0.0-13.0-0.6","l","40","Sounds/motorcycle_sound.wav","null","1","","","","","","",""
"null","","html-keyboard-response","77","3012842","0.0-13.0-1.6","l","40","<p style=""font-size: 48px;"">+</p>","null","1","","","","","","",""
"538.0799999982119","","image-keyboard-response","78","3013381","0.0-13.0-2.6","l","40","Images/dog_orig.png","65","1","1583263278534","non-match","dog","motorcycle","sound","test","true"
"null","","audio-keyboard-response","79","3015398","0.0-13.0-3.6","l","40","Sounds/correct.wav","null","1","","","","","","",""
"null","","audio-keyboard-response","80","3015978","0.0-13.0-0.7","l","40","Sounds/gun_sound.wav","null","1","","","","","","",""
"null","","html-keyboard-response","81","3016977","0.0-13.0-1.7","l","40","<p style=""font-size: 48px;"">+</p>","null","1","","","","","","",""
"469.2299999874085","","image-keyboard-response","82","3017448","0.0-13.0-2.7","l","40","Images/gun_orig.png","76","1","1583263282671","match","gun","gun","sound","test","true"
"null","","audio-keyboard-response","83","3019465","0.0-13.0-3.7","l","40","Sounds/correct.wav","null","1","","","","","","",""
"null","","audio-keyboard-response","84","3020298","0.0-13.0-0.8","l","40","Sounds/cat_sound.wav","null","1","","","","","","",""
"null","","html-keyboard-response","85","3021294","0.0-13.0-1.8","l","40","<p style=""font-size: 48px;"">+</p>","null","1","","","","","","",""
"536.2700000111945","","image-keyboard-response","86","3021831","0.0-13.0-2.8","l","40","Images/motorcycle_orig.png","65","1","1583263286987","non-match","motorcycle","cat","sound","test","true"
"null","","audio-keyboard-response","87","3023835","0.0-13.0-3.8","l","40","Sounds/correct.wav","null","1","","","","","","",""
"null","","audio-keyboard-response","88","3024498","0.0-13.0-0.9","l","40","Sounds/dog_label.wav","null","1","","","","","","",""
"null","","html-keyboard-response","89","3025494","0.0-13.0-1.9","l","40","<p style=""font-size: 48px;"">+</p>","null","1","","","","","","",""
"592.4000000236556","","image-keyboard-response","90","3026088","0.0-13.0-2.9","l","40","Images/cat_3.png","65","1","1583263291187","non-match","cat","dog","label","test","true"
"null","","audio-keyboard-response","91","3028097","0.0-13.0-3.9","l","40","Sounds/correct.wav","null","1","","","","","","",""
"null","","audio-keyboard-response","92","3028998","0.0-13.0-0.10","l","40","Sounds/frog_sound.wav","null","1","","","","","","",""
"null","","html-keyboard-response","93","3029994","0.0-13.0-1.10","l","40","<p style=""font-size: 48px;"">+</p>","null","1","","","","","","",""
"668.6350000090897","","image-keyboard-response","94","3030664","0.0-13.0-2.10","l","40","Images/frog_3.png","76","1","1583263295687","match","frog","frog","sound","test","true"
"null","","audio-keyboard-response","95","3032681","0.0-13.0-3.10","l","40","Sounds/correct.wav","null","1","","","","","","",""
"null","","audio-keyboard-response","96","3033758","0.0-13.0-0.11","l","40","Sounds/car_label.wav","null","1","","","","","","",""
"null","","html-keyboard-response","97","3034761","0.0-13.0-1.11","l","40","<p style=""font-size: 48px;"">+</p>","null","1","","","","","","",""
"509.59999999031425","","image-keyboard-response","98","3035272","0.0-13.0-2.11","l","40","Images/rooster_3.png","65","1","1583263300454","non-match","rooster","car","label","test","true"
"null","","audio-keyboard-response","99","3037280","0.0-13.0-3.11","l","40","Sounds/correct.wav","null","1","","","","","","",""
"null","","audio-keyboard-response","100","3038178","0.0-13.0-0.12","l","40","Sounds/frog_sound.wav","null","1","","","","","","",""
"null","","html-keyboard-response","101","3039178","0.0-13.0-1.12","l","40","<p style=""font-size: 48px;"">+</p>","null","1","","","","","","",""
"764.885000011418","","image-keyboard-response","102","3039944","0.0-13.0-2.12","l","40","Images/cow_orig.png","65","1","1583263304871","non-match","cow","frog","sound","test","true"
"null","","audio-keyboard-response","103","3041951","0.0-13.0-3.12","l","40","Sounds/correct.wav","null","1","","","","","","",""
"null","","audio-keyboard-response","104","3042838","0.0-13.0-0.13","l","40","Sounds/frog_sound.wav","null","1","","","","","","",""
"null","","html-keyboard-response","105","3043828","0.0-13.0-1.13","l","40","<p style=""font-size: 48px;"">+</p>","null","1","","","","","","",""
"643.2399999760091","","image-keyboard-response","106","3044472","0.0-13.0-2.13","l","40","Images/frog_orig.png","76","1","1583263309521","match","frog","frog","sound","test","true"
"null","","audio-keyboard-response","107","3046481","0.0-13.0-3.13","l","40","Sounds/correct.wav","null","1","","","","","","",""
"null","","audio-keyboard-response","108","3047538","0.0-13.0-0.14","l","40","Sounds/car_label.wav","null","1","","","","","","",""
"null","","html-keyboard-response","109","3048545","0.0-13.0-1.14","l","40","<p style=""font-size: 48px;"">+</p>","null","1","","","","","","",""
"565.730000001844","","image-keyboard-response","110","3049112","0.0-13.0-2.14","l","40","Images/car_2.png","76","1","1583263314238","match","car","car","label","test","true"
"null","","audio-keyboard-response","111","3051116","0.0-13.0-3.14","l","40","Sounds/correct.wav","null","1","","","","","","",""
"null","","audio-keyboard-response","112","3052138","0.0-13.0-0.15","l","40","Sounds/cow_label.wav","null","1","","","","","","",""
"null","","html-keyboard-response","113","3053128","0.0-13.0-1.15","l","40","<p style=""font-size: 48px;"">+</p>","null","1","","","","","","",""
"494.5350000052713","","image-keyboard-response","114","3053623","0.0-13.0-2.15","l","40","Images/cow_1.png","76","1","1583263318821","match","cow","cow","label","test","true"
"null","","audio-keyboard-response","115","3055633","0.0-13.0-3.15","l","40","Sounds/correct.wav","null","1","","","","","","",""
"null","","audio-keyboard-response","116","3056338","0.0-13.0-0.16","l","40","Sounds/whistle_sound.wav","null","1","","","","","","",""
"null","","html-keyboard-response","117","3057328","0.0-13.0-1.16","l","40","<p style=""font-size: 48px;"">+</p>","null","1","","","","","","",""
"566.9750000233762","","image-keyboard-response","118","3057896","0.0-13.0-2.16","l","40","Images/whistle_2.png","76","1","1583263323021","match","whistle","whistle","sound","test","true"
"null","","audio-keyboard-response","119","3059899","0.0-13.0-3.16","l","40","Sounds/correct.wav","null","1","","","","","","",""
"null","","audio-keyboard-response","120","3060598","0.0-13.0-0.17","l","40","Sounds/rooster_sound.wav","null","1","","","","","","",""
"null","","html-keyboard-response","121","3061594","0.0-13.0-1.17","l","40","<p style=""font-size: 48px;"">+</p>","null","1","","","","","","",""
"556.089999998454","","image-keyboard-response","122","3062152","0.0-13.0-2.17","l","40","Images/car_cartoon.png","65","1","1583263327288","non-match","car","rooster","sound","test","true"
"null","","audio-keyboard-response","123","3064165","0.0-13.0-3.17","l","40","Sounds/correct.wav","null","1","","","","","","",""
"null","","audio-keyboard-response","124","3064838","0.0-13.0-0.18","l","40","Sounds/rooster_sound.wav","null","1","","","","","","",""
"null","","html-keyboard-response","125","3065828","0.0-13.0-1.18","l","40","<p style=""font-size: 48px;"">+</p>","null","1","","","","","","",""
"482.7349999975413","","image-keyboard-response","126","3066312","0.0-13.0-2.18","l","40","Images/rooster_orig.png","76","1","1583263331521","match","rooster","rooster","sound","test","true"
"null","","audio-keyboard-response","127","3068316","0.0-13.0-3.18","l","40","Sounds/correct.wav","null","1","","","","","","",""
"null","","audio-keyboard-response","128","3069618","0.0-13.0-0.19","l","40","Sounds/train_sound.wav","null","1","","","","","","",""
"null","","html-keyboard-response","129","3070611","0.0-13.0-1.19","l","40","<p style=""font-size: 48px;"">+</p>","null","1","","","","","","",""
"691.4300000062212","","image-keyboard-response","130","3071304","0.0-13.0-2.19","l","40","Images/whistle_1.png","65","1","1583263336304","non-match","whistle","train","sound","test","true"
"null","","audio-keyboard-response","131","3073316","0.0-13.0-3.19","l","40","Sounds/correct.wav","null","1","","","","","","",""
"null","","audio-keyboard-response","132","3074398","0.0-13.0-0.20","l","40","Sounds/car_sound.wav","null","1","","","","","","",""
"null","","html-keyboard-response","133","3075395","0.0-13.0-1.20","l","40","<p style=""font-size: 48px;"">+</p>","null","1","","","","","","",""
"500.04000001354143","","image-keyboard-response","134","3075896","0.0-13.0-2.20","l","40","Images/frog_2.png","65","1","1583263341088","non-match","frog","car","sound","test","true"
"null","","audio-keyboard-response","135","3077900","0.0-13.0-3.20","l","40","Sounds/correct.wav","null","1","","","","","","",""
"null","","audio-keyboard-response","136","3078919","0.0-13.0-0.21","l","40","Sounds/cow_label.wav","null","1","","","","","","",""
"null","","html-keyboard-response","137","3079912","0.0-13.0-1.21","l","40","<p style=""font-size: 48px;"">+</p>","null","1","","","","","","",""
"431.08999999798834","","image-keyboard-response","138","3080344","0.0-13.0-2.21","l","40","Images/rooster_2.png","65","1","1583263345605","non-match","rooster","cow","label","test","true"
"null","","audio-keyboard-response","139","3082354","0.0-13.0-3.21","l","40","Sounds/correct.wav","null","1","","","","","","",""
"null","","audio-keyboard-response","140","3083639","0.0-13.0-0.22","l","40","Sounds/train_label.wav","null","1","","","","","","",""
"null","","html-keyboard-response","141","3084628","0.0-13.0-1.22","l","40","<p style=""font-size: 48px;"">+</p>","null","1","","","","","","",""
"658.8200000114739","","image-keyboard-response","142","3085288","0.0-13.0-2.22","l","40","Images/car_2.png","65","1","1583263350322","non-match","car","train","label","test","true"
"null","","audio-keyboard-response","143","3087300","0.0-13.0-3.22","l","40","Sounds/correct.wav","null","1","","","","","","",""
"null","","audio-keyboard-response","144","3087998","0.0-13.0-0.23","l","40","Sounds/whistle_sound.wav","null","1","","","","","","",""
"null","","html-keyboard-response","145","3088995","0.0-13.0-1.23","l","40","<p style=""font-size: 48px;"">+</p>","null","1","","","","","","",""
"595.7350000096485","","image-keyboard-response","146","3089592","0.0-13.0-2.23","l","40","Images/gun_orig.png","65","1","1583263354688","non-match","gun","whistle","sound","test","true"
"null","","audio-keyboard-response","147","3091603","0.0-13.0-3.23","l","40","Sounds/correct.wav","null","1","","","","","","",""
"null","","audio-keyboard-response","148","3092499","0.0-13.0-0.24","l","40","Sounds/frog_label.wav","null","1","","","","","","",""
"null","","html-keyboard-response","149","3093495","0.0-13.0-1.24","l","40","<p style=""font-size: 48px;"">+</p>","null","1","","","","","","",""
"511.7299999985844","","image-keyboard-response","150","3094008","0.0-13.0-2.24","l","40","Images/gun_1.png","65","1","1583263359188","non-match","gun","frog","label","test","true"
"null","","audio-keyboard-response","151","3096017","0.0-13.0-3.24","l","40","Sounds/correct.wav","null","1","","","","","","",""
"null","","audio-keyboard-response","152","3096859","0.0-13.0-0.25","l","40","Sounds/cat_sound.wav","null","1","","","","","","",""
"null","","html-keyboard-response","153","3097862","0.0-13.0-1.25","l","40","<p style=""font-size: 48px;"">+</p>","null","1","","","","","","",""
"432.96999999461696","","image-keyboard-response","154","3098296","0.0-13.0-2.25","l","40","Images/cat_3.png","76","1","1583263363555","match","cat","cat","sound","test","true"
"null","","audio-keyboard-response","155","3100305","0.0-13.0-3.25","l","40","Sounds/correct.wav","null","1","","","","","","",""
"null","","audio-keyboard-response","156","3101379","0.0-13.0-0.26","l","40","Sounds/car_label.wav","null","1","","","","","","",""
"null","","html-keyboard-response","157","3102379","0.0-13.0-1.26","l","40","<p style=""font-size: 48px;"">+</p>","null","1","","","","","","",""
"844.2649999926798","","image-keyboard-response","158","3103224","0.0-13.0-2.26","l","40","Images/cat_orig.png","65","1","1583263368072","non-match","cat","car","label","test","true"
"null","","audio-keyboard-response","159","3105232","0.0-13.0-3.26","l","40","Sounds/correct.wav","null","1","","","","","","",""
"null","","audio-keyboard-response","160","3106039","0.0-13.0-0.27","l","40","Sounds/cat_sound.wav","null","1","","","","","","",""
"null","","html-keyboard-response","161","3107029","0.0-13.0-1.27","l","40","<p style=""font-size: 48px;"">+</p>","null","1","","","","","","",""
"594.4099999908358","","image-keyboard-response","162","3107624","0.0-13.0-2.27","l","40","Images/cat_cartoon.png","76","1","1583263372722","match","cat","cat","sound","test","true"
"null","","audio-keyboard-response","163","3109634","0.0-13.0-3.27","l","40","Sounds/correct.wav","null","1","","","","","","",""
"null","","audio-keyboard-response","164","3110539","0.0-13.0-0.28","l","40","Sounds/frog_sound.wav","null","1","","","","","","",""
"null","","html-keyboard-response","165","3111529","0.0-13.0-1.28","l","40","<p style=""font-size: 48px;"">+</p>","null","1","","","","","","",""
"750.3900000010617","","image-keyboard-response","166","3112280","0.0-13.0-2.28","l","40","Images/train_2.png","65","1","1583263377222","non-match","train","frog","sound","test","true"
"null","","audio-keyboard-response","167","3114284","0.0-13.0-3.28","l","40","Sounds/correct.wav","null","1","","","","","","",""
"null","","audio-keyboard-response","168","3115339","0.0-13.0-0.29","l","40","Sounds/car_label.wav","null","1","","","","","","",""
"null","","html-keyboard-response","169","3116329","0.0-13.0-1.29","l","40","<p style=""font-size: 48px;"">+</p>","null","1","","","","","","",""
"542.1349999960512","","image-keyboard-response","170","3116872","0.0-13.0-2.29","l","40","Images/whistle_orig.png","65","1","1583263382022","non-match","whistle","car","label","test","true"
"null","","audio-keyboard-response","171","3118883","0.0-13.0-3.29","l","40","Sounds/correct.wav","null","1","","","","","","",""
"null","","audio-keyboard-response","172","3120019","0.0-13.0-0.30","l","40","Sounds/motorcycle_label.wav","null","1","","","","","","",""
"null","","html-keyboard-response","173","3121012","0.0-13.0-1.30","l","40","<p style=""font-size: 48px;"">+</p>","null","1","","","","","","",""
"595.484999998007","","image-keyboard-response","174","3121609","0.0-13.0-2.30","l","40","Images/whistle_3.png","65","1","1583263386705","non-match","whistle","motorcycle","label","test","true"
"null","","audio-keyboard-response","175","3123619","0.0-13.0-3.30","l","40","Sounds/correct.wav","null","1","","","","","","",""
"null","","audio-keyboard-response","176","3124919","0.0-13.0-0.31","l","40","Sounds/train_sound.wav","null","1","","","","","","",""
"null","","html-keyboard-response","177","3125912","0.0-13.0-1.31","l","40","<p style=""font-size: 48px;"">+</p>","null","1","","","","","","",""
"558.8700000075623","","image-keyboard-response","178","3126472","0.0-13.0-2.31","l","40","Images/train_orig.png","76","1","1583263391606","match","train","train","sound","test","true"
"null","","audio-keyboard-response","179","3128482","0.0-13.0-3.31","l","40","Sounds/correct.wav","null","1","","","","","","",""
"null","","audio-keyboard-response","180","3129199","0.0-13.0-0.32","l","40","Sounds/dog_sound.wav","null","1","","","","","","",""
"null","","html-keyboard-response","181","3130196","0.0-13.0-1.32","l","40","<p style=""font-size: 48px;"">+</p>","null","1","","","","","","",""
"515.2200000011362","","image-keyboard-response","182","3130712","0.0-13.0-2.32","l","40","Images/cow_cartoon.png","65","1","1583263395889","non-match","cow","dog","sound","test","true"
"null","","audio-keyboard-response","183","3132717","0.0-13.0-3.32","l","40","Sounds/correct.wav","null","1","","","","","","",""
"null","","audio-keyboard-response","184","3133739","0.0-13.0-0.33","l","40","Sounds/cow_label.wav","null","1","","","","","","",""
"null","","html-keyboard-response","185","3134729","0.0-13.0-1.33","l","40","<p style=""font-size: 48px;"">+</p>","null","1","","","","","","",""
"509.9599999957718","","image-keyboard-response","186","3135240","0.0-13.0-2.33","l","40","Images/cow_cartoon.png","76","1","1583263400422","match","cow","cow","label","test","true"
"null","","audio-keyboard-response","187","3137250","0.0-13.0-3.33","l","40","Sounds/correct.wav","null","1","","","","","","",""
"null","","audio-keyboard-response","188","3137939","0.0-13.0-0.34","l","40","Sounds/whistle_label.wav","null","1","","","","","","",""
"null","","html-keyboard-response","189","3138929","0.0-13.0-1.34","l","40","<p style=""font-size: 48px;"">+</p>","null","1","","","","","","",""
"566.1499999989755","","image-keyboard-response","190","3139497","0.0-13.0-2.34","l","40","Images/whistle_3.png","76","1","1583263404623","match","whistle","whistle","label","test","true"
"null","","audio-keyboard-response","191","3141501","0.0-13.0-3.34","l","40","Sounds/correct.wav","null","1","","","","","","",""
"null","","audio-keyboard-response","192","3142619","0.0-13.0-0.35","l","40","Sounds/motorcycle_sound.wav","null","1","","","","","","",""
"null","","html-keyboard-response","193","3143613","0.0-13.0-1.35","l","40","<p style=""font-size: 48px;"">+</p>","null","1","","","","","","",""
"376.7899999804795","","image-keyboard-response","194","3143992","0.0-13.0-2.35","l","40","Images/motorcycle_2.png","76","1","1583263409306","match","motorcycle","motorcycle","sound","test","true"
"null","","audio-keyboard-response","195","3146001","0.0-13.0-3.35","l","40","Sounds/correct.wav","null","1","","","","","","",""
"null","","audio-keyboard-response","196","3147279","0.0-13.0-0.36","l","40","Sounds/train_label.wav","null","1","","","","","","",""
"null","","html-keyboard-response","197","3148280","0.0-13.0-1.36","l","40","<p style=""font-size: 48px;"">+</p>","null","1","","","","","","",""
"463.81000001588836","","image-keyboard-response","198","3148744","0.0-13.0-2.36","l","40","Images/dog_cartoon.png","65","1","1583263413973","non-match","dog","train","label","test","true"
"null","","audio-keyboard-response","199","3150751","0.0-13.0-3.36","l","40","Sounds/correct.wav","null","1","","","","","","",""
"null","","audio-keyboard-response","200","3151579","0.0-13.0-0.37","l","40","Sounds/cat_label.wav","null","1","","","","","","",""
"null","","html-keyboard-response","201","3152580","0.0-13.0-1.37","l","40","<p style=""font-size: 48px;"">+</p>","null","1","","","","","","",""
"659.7899999762885","","image-keyboard-response","202","3153241","0.0-13.0-2.37","l","40","Images/gun_cartoon.png","65","1","1583263418273","non-match","gun","cat","label","test","true"
"null","","audio-keyboard-response","203","3155249","0.0-13.0-3.37","l","40","Sounds/correct.wav","null","1","","","","","","",""
"null","","audio-keyboard-response","204","3155899","0.0-13.0-0.38","l","40","Sounds/dog_label.wav","null","1","","","","","","",""
"null","","html-keyboard-response","205","3156896","0.0-13.0-1.38","l","40","<p style=""font-size: 48px;"">+</p>","null","1","","","","","","",""
"470.8600000012666","","image-keyboard-response","206","3157368","0.0-13.0-2.38","l","40","Images/dog_orig.png","76","1","1583263422589","match","dog","dog","label","test","true"
"null","","audio-keyboard-response","207","3159385","0.0-13.0-3.38","l","40","Sounds/correct.wav","null","1","","","","","","",""
"null","","audio-keyboard-response","208","3160459","0.0-13.0-0.39","l","40","Sounds/car_sound.wav","null","1","","","","","","",""
"null","","html-keyboard-response","209","3161463","0.0-13.0-1.39","l","40","<p style=""font-size: 48px;"">+</p>","null","1","","","","","","",""
"768.2300000162795","","image-keyboard-response","210","3162232","0.0-13.0-2.39","l","40","Images/car_1.png","65","1","1583263427156","match","car","car","sound","test","false"
"null","","audio-keyboard-response","211","3164236","0.0-13.0-3.39","l","40","Sounds/incorrect.wav","null","1","","","","","","",""
"null","","audio-keyboard-response","212","3165139","0.0-13.0-0.40","l","40","Sounds/frog_label.wav","null","1","","","","","","",""
"null","","html-keyboard-response","213","3166130","0.0-13.0-1.40","l","40","<p style=""font-size: 48px;"">+</p>","null","1","","","","","","",""
"517.8500000033528","","image-keyboard-response","214","3166649","0.0-13.0-2.40","l","40","Images/frog_2.png","76","1","1583263431823","match","frog","frog","label","test","true"
"null","","audio-keyboard-response","215","3168651","0.0-13.0-3.40","l","40","Sounds/correct.wav","null","1","","","","","","",""
"null","","audio-keyboard-response","216","3169359","0.0-13.0-0.41","l","40","Sounds/whistle_sound.wav","null","1","","","","","","",""
"null","","html-keyboard-response","217","3170363","0.0-13.0-1.41","l","40","<p style=""font-size: 48px;"">+</p>","null","1","","","","","","",""
"651.805000001099","","image-keyboard-response","218","3171016","0.0-13.0-2.41","l","40","Images/motorcycle_3.png","65","1","1583263436056","non-match","motorcycle","whistle","sound","test","true"
"null","","audio-keyboard-response","219","3173021","0.0-13.0-3.41","l","40","Sounds/correct.wav","null","1","","","","","","",""
"null","","audio-keyboard-response","220","3174319","0.0-13.0-0.42","l","40","Sounds/train_sound.wav","null","1","","","","","","",""
"null","","html-keyboard-response","221","3175313","0.0-13.0-1.42","l","40","<p style=""font-size: 48px;"">+</p>","null","1","","","","","","",""
"406.394999998156","","image-keyboard-response","222","3175720","0.0-13.0-2.42","l","40","Images/train_2.png","76","1","1583263441006","match","train","train","sound","test","true"
"null","","audio-keyboard-response","223","3177735","0.0-13.0-3.42","l","40","Sounds/correct.wav","null","1","","","","","","",""
"null","","audio-keyboard-response","224","3178439","0.0-13.0-0.43","l","40","Sounds/dog_sound.wav","null","1","","","","","","",""
"null","","html-keyboard-response","225","3179430","0.0-13.0-1.43","l","40","<p style=""font-size: 48px;"">+</p>","null","1","","","","","","",""
"945.559999993071","","image-keyboard-response","226","3180377","0.0-13.0-2.43","l","40","Images/rooster_cartoon.png","65","1","1583263445123","non-match","rooster","dog","sound","test","true"
"null","","audio-keyboard-response","227","3182382","0.0-13.0-3.43","l","40","Sounds/correct.wav","null","1","","","","","","",""
"null","","audio-keyboard-response","228","3183039","0.0-13.0-0.44","l","40","Sounds/dog_label.wav","null","1","","","","","","",""
"null","","html-keyboard-response","229","3184030","0.0-13.0-1.44","l","40","<p style=""font-size: 48px;"">+</p>","null","1","","","","","","",""
"409.2200000011362","","image-keyboard-response","230","3184440","0.0-13.0-2.44","l","40","Images/dog_2.png","76","1","1583263449723","match","dog","dog","label","test","true"
"null","","audio-keyboard-response","231","3186450","0.0-13.0-3.44","l","40","Sounds/correct.wav","null","1","","","","","","",""
"null","","audio-keyboard-response","232","3187279","0.0-13.0-0.45","l","40","Sounds/cat_label.wav","null","1","","","","","","",""
"null","","html-keyboard-response","233","3188313","0.0-13.0-1.45","l","40","<p style=""font-size: 48px;"">+</p>","null","1","","","","","","",""
"637.9949999973178","","image-keyboard-response","234","3188952","0.0-13.0-2.45","l","40","Images/cat_1.png","76","1","1583263454006","match","cat","cat","label","test","true"
"null","","audio-keyboard-response","235","3190967","0.0-13.0-3.45","l","40","Sounds/correct.wav","null","1","","","","","","",""
"null","","audio-keyboard-response","236","3192239","0.0-13.0-0.46","l","40","Sounds/train_label.wav","null","1","","","","","","",""
"null","","html-keyboard-response","237","3193230","0.0-13.0-1.46","l","40","<p style=""font-size: 48px;"">+</p>","null","1","","","","","","",""
"536.614999989979","","image-keyboard-response","238","3193769","0.0-13.0-2.46","l","40","Images/train_3.png","76","1","1583263458923","match","train","train","label","test","true"
"null","","audio-keyboard-response","239","3195786","0.0-13.0-3.46","l","40","Sounds/correct.wav","null","1","","","","","","",""
"null","","audio-keyboard-response","240","3196679","0.0-13.0-0.47","l","40","Sounds/frog_label.wav","null","1","","","","","","",""
"null","","html-keyboard-response","241","3197697","0.0-13.0-1.47","l","40","<p style=""font-size: 48px;"">+</p>","null","1","","","","","","",""
"534.4950000001118","","image-keyboard-response","242","3198233","0.0-13.0-2.47","l","40","Images/rooster_1.png","65","1","1583263463390","non-match","rooster","frog","label","test","true"
"null","","audio-keyboard-response","243","3200235","0.0-13.0-3.47","l","40","Sounds/correct.wav","null","1","","","","","","",""
"null","","audio-keyboard-response","244","3201039","0.0-13.0-0.48","l","40","Sounds/cat_label.wav","null","1","","","","","","",""
"null","","html-keyboard-response","245","3202030","0.0-13.0-1.48","l","40","<p style=""font-size: 48px;"">+</p>","null","1","","","","","","",""
"553.164999990724","","image-keyboard-response","246","3202585","0.0-13.0-2.48","l","40","Images/whistle_cartoon.png","65","1","1583263467723","non-match","whistle","cat","label","test","true"
"null","","audio-keyboard-response","247","3204601","0.0-13.0-3.48","l","40","Sounds/correct.wav","null","1","","","","","","",""
"null","","audio-keyboard-response","248","3205299","0.0-13.0-0.49","l","40","Sounds/rooster_label.wav","null","1","","","","","","",""
"null","","html-keyboard-response","249","3206297","0.0-13.0-1.49","l","40","<p style=""font-size: 48px;"">+</p>","null","1","","","","","","",""
"494.6050000144169","","image-keyboard-response","250","3206793","0.0-13.0-2.49","l","40","Images/rooster_3.png","76","1","1583263471990","match","rooster","rooster","label","test","true"
"null","","audio-keyboard-response","251","3208802","0.0-13.0-3.49","l","40","Sounds/correct.wav","null","1","","","","","","",""
"null","","audio-keyboard-response","252","3209939","0.0-13.0-0.50","l","40","Sounds/motorcycle_label.wav","null","1","","","","","","",""
"null","","html-keyboard-response","253","3210930","0.0-13.0-1.50","l","40","<p style=""font-size: 48px;"">+</p>","null","1","","","","","","",""
"405.0149999964051","","image-keyboard-response","254","3211337","0.0-13.0-2.50","l","40","Images/motorcycle_3.png","76","1","1583263476624","match","motorcycle","motorcycle","label","test","true"
"null","","audio-keyboard-response","255","3213351","0.0-13.0-3.50","l","40","Sounds/correct.wav","null","1","","","","","","",""
"null","","audio-keyboard-response","256","3213999","0.0-13.0-0.51","l","40","Sounds/dog_label.wav","null","1","","","","","","",""
"null","","html-keyboard-response","257","3214997","0.0-13.0-1.51","l","40","<p style=""font-size: 48px;"">+</p>","null","1","","","","","","",""
"626.3749999925494","","image-keyboard-response","258","3215625","0.0-13.0-2.51","l","40","Images/train_3.png","65","1","1583263480690","non-match","train","dog","label","test","true"
"null","","audio-keyboard-response","259","3217634","0.0-13.0-3.51","l","40","Sounds/correct.wav","null","1","","","","","","",""
"null","","audio-keyboard-response","260","3218299","0.0-13.0-0.52","l","40","Sounds/rooster_label.wav","null","1","","","","","","",""
"null","","html-keyboard-response","261","3219297","0.0-13.0-1.52","l","40","<p style=""font-size: 48px;"">+</p>","null","1","","","","","","",""
"598.485000024084","","image-keyboard-response","262","3219897","0.0-13.0-2.52","l","40","Images/dog_1.png","65","1","1583263484990","non-match","dog","rooster","label","test","true"
"null","","audio-keyboard-response","263","3221902","0.0-13.0-3.52","l","40","Sounds/correct.wav","null","1","","","","","","",""
"null","","audio-keyboard-response","264","3222799","0.0-13.0-0.53","l","40","Sounds/frog_label.wav","null","1","","","","","","",""
"null","","html-keyboard-response","265","3223797","0.0-13.0-1.53","l","40","<p style=""font-size: 48px;"">+</p>","null","1","","","","","","",""
"482.24000001186505","","image-keyboard-response","266","3224281","0.0-13.0-2.53","l","40","Images/frog_1.png","76","1","1583263489490","match","frog","frog","label","test","true"
"null","","audio-keyboard-response","267","3226286","0.0-13.0-3.53","l","40","Sounds/correct.wav","null","1","","","","","","",""
"null","","audio-keyboard-response","268","3226859","0.0-13.0-0.54","l","40","Sounds/gun_sound.wav","null","1","","","","","","",""
"null","","html-keyboard-response","269","3227864","0.0-13.0-1.54","l","40","<p style=""font-size: 48px;"">+</p>","null","1","","","","","","",""
"415.24999999115244","","image-keyboard-response","270","3228281","0.0-13.0-2.54","l","40","Images/gun_1.png","76","1","1583263493557","match","gun","gun","sound","test","true"
"null","","audio-keyboard-response","271","3230286","0.0-13.0-3.54","l","40","Sounds/correct.wav","null","1","","","","","","",""
"null","","audio-keyboard-response","272","3230859","0.0-13.0-0.55","l","40","Sounds/gun_label.wav","null","1","","","","","","",""
"null","","html-keyboard-response","273","3231864","0.0-13.0-1.55","l","40","<p style=""font-size: 48px;"">+</p>","null","1","","","","","","",""
"479.14499999023974","","image-keyboard-response","274","3232345","0.0-13.0-2.55","l","40","Images/frog_1.png","65","1","1583263497557","non-match","frog","gun","label","test","true"
"null","","audio-keyboard-response","275","3234355","0.0-13.0-3.55","l","40","Sounds/correct.wav","null","1","","","","","","",""
"null","","audio-keyboard-response","276","3235439","0.0-13.0-0.56","l","40","Sounds/car_label.wav","null","1","","","","","","",""
"null","","html-keyboard-response","277","3236431","0.0-13.0-1.56","l","40","<p style=""font-size: 48px;"">+</p>","null","1","","","","","","",""
"536.8050000104122","","image-keyboard-response","278","3236969","0.0-13.0-2.56","l","40","Images/car_orig.png","76","1","1583263502124","match","car","car","label","test","true"
"null","","audio-keyboard-response","279","3238985","0.0-13.0-3.56","l","40","Sounds/correct.wav","null","1","","","","","","",""
"null","","audio-keyboard-response","280","3239999","0.0-13.0-0.57","l","40","Sounds/cow_label.wav","null","1","","","","","","",""
"null","","html-keyboard-response","281","3240997","0.0-13.0-1.57","l","40","<p style=""font-size: 48px;"">+</p>","null","1","","","","","","",""
"466.07000002404675","","image-keyboard-response","282","3241465","0.0-13.0-2.57","l","40","Images/train_orig.png","65","1","1583263506691","non-match","train","cow","label","test","true"
"null","","audio-keyboard-response","283","3243470","0.0-13.0-3.57","l","40","Sounds/correct.wav","null","1","","","","","","",""
"null","","audio-keyboard-response","284","3244159","0.0-13.0-0.58","l","40","Sounds/whistle_sound.wav","null","1","","","","","","",""
"null","","html-keyboard-response","285","3245148","0.0-13.0-1.58","l","40","<p style=""font-size: 48px;"">+</p>","null","1","","","","","","",""
"508.20999999996275","","image-keyboard-response","286","3245657","0.0-13.0-2.58","l","40","Images/cat_1.png","65","1","1583263510841","non-match","cat","whistle","sound","test","true"
"null","","audio-keyboard-response","287","3247669","0.0-13.0-3.58","l","40","Sounds/correct.wav","null","1","","","","","","",""
"null","","audio-keyboard-response","288","3248579","0.0-13.0-0.59","l","40","Sounds/frog_sound.wav","null","1","","","","","","",""
"null","","html-keyboard-response","289","3249581","0.0-13.0-1.59","l","40","<p style=""font-size: 48px;"">+</p>","null","1","","","","","","",""
"618.6699999962002","","image-keyboard-response","290","3250201","0.0-13.0-2.59","l","40","Images/car_1.png","65","1","1583263515274","non-match","car","frog","sound","test","true"
"null","","audio-keyboard-response","291","3252218","0.0-13.0-3.59","l","40","Sounds/correct.wav","null","1","","","","","","",""
"null","","audio-keyboard-response","292","3252779","0.0-13.0-0.60","l","40","Sounds/gun_label.wav","null","1","","","","","","",""
"null","","html-keyboard-response","293","3253781","0.0-13.0-1.60","l","40","<p style=""font-size: 48px;"">+</p>","null","1","","","","","","",""
"786.5999999921769","","image-keyboard-response","294","3254569","0.0-13.0-2.60","l","40","Images/gun_cartoon.png","76","1","1583263519474","match","gun","gun","label","test","true"
"null","","audio-keyboard-response","295","3256585","0.0-13.0-3.60","l","40","Sounds/correct.wav","null","1","","","","","","",""
"null","","audio-keyboard-response","296","3257659","0.0-13.0-0.61","l","40","Sounds/car_label.wav","null","1","","","","","","",""
"null","","html-keyboard-response","297","3258664","0.0-13.0-1.61","l","40","<p style=""font-size: 48px;"">+</p>","null","1","","","","","","",""
"559.2900000046939","","image-keyboard-response","298","3259225","0.0-13.0-2.61","l","40","Images/motorcycle_2.png","65","1","1583263524357","non-match","motorcycle","car","label","test","true"
"null","","audio-keyboard-response","299","3261234","0.0-13.0-3.61","l","40","Sounds/correct.wav","null","1","","","","","","",""
"null","","audio-keyboard-response","300","3262259","0.0-13.0-0.62","l","40","Sounds/cow_sound.wav","null","1","","","","","","",""
"null","","html-keyboard-response","301","3263264","0.0-13.0-1.62","l","40","<p style=""font-size: 48px;"">+</p>","null","1","","","","","","",""
"743.5950000071898","","image-keyboard-response","302","3264009","0.0-13.0-2.62","l","40","Images/cat_cartoon.png","65","1","1583263528957","non-match","cat","cow","sound","test","true"
"null","","audio-keyboard-response","303","3266018","0.0-13.0-3.62","l","40","Sounds/correct.wav","null","1","","","","","","",""
"null","","audio-keyboard-response","304","3267319","0.0-13.0-0.63","l","40","Sounds/train_sound.wav","null","1","","","","","","",""
"null","","html-keyboard-response","305","3268314","0.0-13.0-1.63","l","40","<p style=""font-size: 48px;"">+</p>","null","1","","","","","","",""
"941.385000012815","","image-keyboard-response","306","3269257","0.0-13.0-2.63","l","40","Images/train_cartoon.png","76","1","1583263534007","match","train","train","sound","test","true"
"null","","audio-keyboard-response","307","3271269","0.0-13.0-3.63","l","40","Sounds/correct.wav","null","1","","","","","","",""
"null","","audio-keyboard-response","308","3271979","0.0-13.0-0.64","l","40","Sounds/whistle_sound.wav","null","1","","","","","","",""
"null","","html-keyboard-response","309","3272981","0.0-13.0-1.64","l","40","<p style=""font-size: 48px;"">+</p>","null","1","","","","","","",""
"514.519999996759","","image-keyboard-response","310","3273497","0.0-13.0-2.64","l","40","Images/whistle_orig.png","76","1","1583263538674","match","whistle","whistle","sound","test","true"
"null","","audio-keyboard-response","311","3275504","0.0-13.0-3.64","l","40","Sounds/correct.wav","null","1","","","","","","",""
"null","","audio-keyboard-response","312","3276499","0.0-13.0-0.65","l","40","Sounds/cow_sound.wav","null","1","","","","","","",""
"null","","html-keyboard-response","313","3277498","0.0-13.0-1.65","l","40","<p style=""font-size: 48px;"">+</p>","null","1","","","","","","",""
"445.83500002045184","","image-keyboard-response","314","3277945","0.0-13.0-2.65","l","40","Images/cow_orig.png","76","1","1583263543191","match","cow","cow","sound","test","true"
"null","","audio-keyboard-response","315","3279953","0.0-13.0-3.65","l","40","Sounds/correct.wav","null","1","","","","","","",""
"null","","audio-keyboard-response","316","3280619","0.0-13.0-0.66","l","40","Sounds/dog_label.wav","null","1","","","","","","",""
"null","","html-keyboard-response","317","3281614","0.0-13.0-1.66","l","40","<p style=""font-size: 48px;"">+</p>","null","1","","","","","","",""
"505.1999999852851","","image-keyboard-response","318","3282121","0.0-13.0-2.66","l","40","Images/dog_cartoon.png","76","1","1583263547308","match","dog","dog","label","test","true"
"null","","audio-keyboard-response","319","3284135","0.0-13.0-3.66","l","40","Sounds/correct.wav","null","1","","","","","","",""
"null","","audio-keyboard-response","320","3284839","0.0-13.0-0.67","l","40","Sounds/rooster_sound.wav","null","1","","","","","","",""
"null","","html-keyboard-response","321","3285831","0.0-13.0-1.67","l","40","<p style=""font-size: 48px;"">+</p>","null","1","","","","","","",""
"656.6000000163913","","image-keyboard-response","322","3286489","0.0-13.0-2.67","l","40","Images/motorcycle_1.png","65","1","1583263551525","non-match","motorcycle","rooster","sound","test","true"
"null","","audio-keyboard-response","323","3288503","0.0-13.0-3.67","l","40","Sounds/correct.wav","null","1","","","","","","",""
"null","","audio-keyboard-response","324","3289079","0.0-13.0-0.68","l","40","Sounds/gun_label.wav","null","1","","","","","","",""
"null","","html-keyboard-response","325","3290081","0.0-13.0-1.68","l","40","<p style=""font-size: 48px;"">+</p>","null","1","","","","","","",""
"886.2249999949709","","image-keyboard-response","326","3290969","0.0-13.0-2.68","l","40","Images/cow_3.png","65","1","1583263555775","non-match","cow","gun","label","test","true"
"null","","audio-keyboard-response","327","3292986","0.0-13.0-3.68","l","40","Sounds/correct.wav","null","1","","","","","","",""
"null","","audio-keyboard-response","328","3294059","0.0-13.0-0.69","l","40","Sounds/car_label.wav","null","1","","","","","","",""
"null","","html-keyboard-response","329","3295065","0.0-13.0-1.69","l","40","<p style=""font-size: 48px;"">+</p>","null","1","","","","","","",""
"702.6400000029244","","image-keyboard-response","330","3295769","0.0-13.0-2.69","l","40","Images/dog_2.png","65","1","1583263560758","non-match","dog","car","label","test","true"
"null","","audio-keyboard-response","331","3297772","0.0-13.0-3.69","l","40","Sounds/correct.wav","null","1","","","","","","",""
"null","","audio-keyboard-response","332","3298619","0.0-13.0-0.70","l","40","Sounds/cat_sound.wav","null","1","","","","","","",""
"null","","html-keyboard-response","333","3299615","0.0-13.0-1.70","l","40","<p style=""font-size: 48px;"">+</p>","null","1","","","","","","",""
"520.795000018552","","image-keyboard-response","334","3300137","0.0-13.0-2.70","l","40","Images/cat_orig.png","76","1","1583263565308","match","cat","cat","sound","test","true"
"null","","audio-keyboard-response","335","3302153","0.0-13.0-3.70","l","40","Sounds/correct.wav","null","1","","","","","","",""
"null","","audio-keyboard-response","336","3302699","0.0-13.0-0.71","l","40","Sounds/gun_label.wav","null","1","","","","","","",""
"null","","html-keyboard-response","337","3303698","0.0-13.0-1.71","l","40","<p style=""font-size: 48px;"">+</p>","null","1","","","","","","",""
"421.3450000095181","","image-keyboard-response","338","3304121","0.0-13.0-2.71","l","40","Images/cat_2.png","65","1","1583263569391","non-match","cat","gun","label","test","true"
"null","","audio-keyboard-response","339","3306136","0.0-13.0-3.71","l","40","Sounds/correct.wav","null","1","","","","","","",""
"null","","audio-keyboard-response","340","3307179","0.0-13.0-0.72","l","40","Sounds/car_label.wav","null","1","","","","","","",""
"null","","html-keyboard-response","341","3308181","0.0-13.0-1.72","l","40","<p style=""font-size: 48px;"">+</p>","null","1","","","","","","",""
"1058.114999992773","","image-keyboard-response","342","3309241","0.0-13.0-2.72","l","40","Images/car_cartoon.png","76","1","1583263573875","match","car","car","label","test","true"
"null","","audio-keyboard-response","343","3311253","0.0-13.0-3.72","l","40","Sounds/correct.wav","null","1","","","","","","",""
"null","","audio-keyboard-response","344","3311939","0.0-13.0-0.73","l","40","Sounds/rooster_sound.wav","null","1","","","","","","",""
"null","","html-keyboard-response","345","3312932","0.0-13.0-1.73","l","40","<p style=""font-size: 48px;"">+</p>","null","1","","","","","","",""
"563.9850000152364","","image-keyboard-response","346","3313497","0.0-13.0-2.73","l","40","Images/rooster_cartoon.png","76","1","1583263578625","match","rooster","rooster","sound","test","true"
"null","","audio-keyboard-response","347","3315504","0.0-13.0-3.73","l","40","Sounds/correct.wav","null","1","","","","","","",""
"null","","audio-keyboard-response","348","3316639","0.0-13.0-0.74","l","40","Sounds/motorcycle_label.wav","null","1","","","","","","",""
"null","","html-keyboard-response","349","3317632","0.0-13.0-1.74","l","40","<p style=""font-size: 48px;"">+</p>","null","1","","","","","","",""
"695.9599999831989","","image-keyboard-response","350","3318329","0.0-13.0-2.74","l","40","Images/car_orig.png","65","1","1583263583325","non-match","car","motorcycle","label","test","true"
"null","","audio-keyboard-response","351","3320336","0.0-13.0-3.74","l","40","Sounds/correct.wav","null","1","","","","","","",""
"null","","audio-keyboard-response","352","3321179","0.0-13.0-0.75","l","40","Sounds/cat_label.wav","null","1","","","","","","",""
"null","","html-keyboard-response","353","3322182","0.0-13.0-1.75","l","40","<p style=""font-size: 48px;"">+</p>","null","1","","","","","","",""
"514.1850000070408","","image-keyboard-response","354","3322697","0.0-13.0-2.75","l","40","Images/car_3.png","65","1","1583263587875","non-match","car","cat","label","test","true"
"null","","audio-keyboard-response","355","3324705","0.0-13.0-3.75","l","40","Sounds/correct.wav","null","1","","","","","","",""
"null","","audio-keyboard-response","356","3325379","0.0-13.0-0.76","l","40","Sounds/rooster_sound.wav","null","1","","","","","","",""
"null","","html-keyboard-response","357","3326381","0.0-13.0-1.76","l","40","<p style=""font-size: 48px;"">+</p>","null","1","","","","","","",""
"601.9199999864213","","image-keyboard-response","358","3326985","0.0-13.0-2.76","l","40","Images/frog_3.png","65","1","1583263592075","non-match","frog","rooster","sound","test","true"
"null","","audio-keyboard-response","359","3328987","0.0-13.0-3.76","l","40","Sounds/correct.wav","null","1","","","","","","",""
"null","","audio-keyboard-response","360","3330099","0.0-13.0-0.77","l","40","Sounds/motorcycle_sound.wav","null","1","","","","","","",""
"null","","html-keyboard-response","361","3331098","0.0-13.0-1.77","l","40","<p style=""font-size: 48px;"">+</p>","null","1","","","","","","",""
"540.9649999928661","","image-keyboard-response","362","3331641","0.0-13.0-2.77","l","40","Images/train_1.png","65","1","1583263596791","non-match","train","motorcycle","sound","test","true"
"null","","audio-keyboard-response","363","3333651","0.0-13.0-3.77","l","40","Sounds/correct.wav","null","1","","","","","","",""
"null","","audio-keyboard-response","364","3334239","0.0-13.0-0.78","l","40","Sounds/gun_sound.wav","null","1","","","","","","",""
"null","","html-keyboard-response","365","3335232","0.0-13.0-1.78","l","40","<p style=""font-size: 48px;"">+</p>","null","1","","","","","","",""
"471.94499999750406","","image-keyboard-response","366","3335705","0.0-13.0-2.78","l","40","Images/train_cartoon.png","65","1","1583263600925","non-match","train","gun","sound","test","true"
"null","","audio-keyboard-response","367","3337719","0.0-13.0-3.78","l","40","Sounds/correct.wav","null","1","","","","","","",""
"null","","audio-keyboard-response","368","3338739","0.0-13.0-0.79","l","40","Sounds/cow_sound.wav","null","1","","","","","","",""
"null","","html-keyboard-response","369","3339732","0.0-13.0-1.79","l","40","<p style=""font-size: 48px;"">+</p>","null","1","","","","","","",""
"707.714999997057","","image-keyboard-response","370","3340441","0.0-13.0-2.79","l","40","Images/gun_3.png","65","1","1583263605425","non-match","gun","cow","sound","test","true"
"null","","audio-keyboard-response","371","3342452","0.0-13.0-3.79","l","40","Sounds/correct.wav","null","1","","","","","","",""
"null","","audio-keyboard-response","372","3343739","0.0-13.0-0.80","l","40","Sounds/train_label.wav","null","1","","","","","","",""
"null","","html-keyboard-response","373","3344732","0.0-13.0-1.80","l","40","<p style=""font-size: 48px;"">+</p>","null","1","","","","","","",""
"635.6699999887496","","image-keyboard-response","374","3345369","0.0-13.0-2.80","l","40","Images/motorcycle_cartoon.png","65","1","1583263610425","non-match","motorcycle","train","label","test","true"
"null","","audio-keyboard-response","375","3347372","0.0-13.0-3.80","l","40","Sounds/correct.wav","null","1","","","","","","",""
"null","","audio-keyboard-response","376","3348219","0.0-13.0-0.81","l","40","Sounds/cat_sound.wav","null","1","","","","","","",""
"null","","html-keyboard-response","377","3349215","0.0-13.0-1.81","l","40","<p style=""font-size: 48px;"">+</p>","null","1","","","","","","",""
"456.4550000070594","","image-keyboard-response","378","3349673","0.0-13.0-2.81","l","40","Images/cow_1.png","65","1","1583263614908","non-match","cow","cat","sound","test","true"
"null","","audio-keyboard-response","379","3351688","0.0-13.0-3.81","l","40","Sounds/correct.wav","null","1","","","","","","",""
"null","","audio-keyboard-response","380","3352799","0.0-13.0-0.82","l","40","Sounds/motorcycle_sound.wav","null","1","","","","","","",""
"null","","html-keyboard-response","381","3353799","0.0-13.0-1.82","l","40","<p style=""font-size: 48px;"">+</p>","null","1","","","","","","",""
"497.0949999988079","","image-keyboard-response","382","3354297","0.0-13.0-2.82","l","40","Images/frog_cartoon.png","65","1","1583263619492","non-match","frog","motorcycle","sound","test","true"
"null","","audio-keyboard-response","383","3356304","0.0-13.0-3.82","l","40","Sounds/correct.wav","null","1","","","","","","",""
"null","","audio-keyboard-response","384","3357599","0.0-13.0-0.83","l","40","Sounds/train_sound.wav","null","1","","","","","","",""
"null","","html-keyboard-response","385","3358599","0.0-13.0-1.83","l","40","<p style=""font-size: 48px;"">+</p>","null","1","","","","","","",""
"528.6900000064634","","image-keyboard-response","386","3359129","0.0-13.0-2.83","l","40","Images/gun_2.png","65","1","1583263624292","non-match","gun","train","sound","test","true"
"null","","audio-keyboard-response","387","3361138","0.0-13.0-3.83","l","40","Sounds/correct.wav","null","1","","","","","","",""
"null","","audio-keyboard-response","388","3361839","0.0-13.0-0.84","l","40","Sounds/rooster_sound.wav","null","1","","","","","","",""
"null","","html-keyboard-response","389","3362832","0.0-13.0-1.84","l","40","<p style=""font-size: 48px;"">+</p>","null","1","","","","","","",""
"711.5199999827892","","image-keyboard-response","390","3363545","0.0-13.0-2.84","l","40","Images/rooster_2.png","76","1","1583263628525","match","rooster","rooster","sound","test","true"
"null","","audio-keyboard-response","391","3365554","0.0-13.0-3.84","l","40","Sounds/correct.wav","null","1","","","","","","",""
"null","","audio-keyboard-response","392","3366579","0.0-13.0-0.85","l","40","Sounds/cow_sound.wav","null","1","","","","","","",""
"null","","html-keyboard-response","393","3367582","0.0-13.0-1.85","l","40","<p style=""font-size: 48px;"">+</p>","null","1","","","","","","",""
"791.1900000181049","","image-keyboard-response","394","3368377","0.0-13.0-2.85","l","40","Images/cow_2.png","76","1","1583263633276","match","cow","cow","sound","test","true"
"null","","audio-keyboard-response","395","3370385","0.0-13.0-3.85","l","40","Sounds/correct.wav","null","1","","","","","","",""
"null","","audio-keyboard-response","396","3371099","0.0-13.0-0.86","l","40","Sounds/dog_sound.wav","null","1","","","","","","",""
"null","","html-keyboard-response","397","3372099","0.0-13.0-1.86","l","40","<p style=""font-size: 48px;"">+</p>","null","1","","","","","","",""
"580.8350000008941","","image-keyboard-response","398","3372681","0.0-13.0-2.86","l","40","Images/dog_3.png","76","1","1583263637792","match","dog","dog","sound","test","true"
"null","","audio-keyboard-response","399","3374689","0.0-13.0-3.86","l","40","Sounds/correct.wav","null","1","","","","","","",""
"null","","audio-keyboard-response","400","3375259","0.0-13.0-0.87","l","40","Sounds/gun_sound.wav","null","1","","","","","","",""
"null","","html-keyboard-response","401","3376249","0.0-13.0-1.87","l","40","<p style=""font-size: 48px;"">+</p>","null","1","","","","","","",""
"543.0300000007264","","image-keyboard-response","402","3376793","0.0-13.0-2.87","l","40","Images/rooster_orig.png","65","1","1583263641942","non-match","rooster","gun","sound","test","true"
"null","","audio-keyboard-response","403","3378802","0.0-13.0-3.87","l","40","Sounds/correct.wav","null","1","","","","","","",""
"null","","audio-keyboard-response","404","3379819","0.0-13.0-0.88","l","40","Sounds/cow_label.wav","null","1","","","","","","",""
"null","","html-keyboard-response","405","3380816","0.0-13.0-1.88","l","40","<p style=""font-size: 48px;"">+</p>","null","1","","","","","","",""
"871.9349999739788","","image-keyboard-response","406","3381689","0.0-13.0-2.88","l","40","Images/cow_3.png","65","1","1583263646509","match","cow","cow","label","test","false"
"null","","audio-keyboard-response","407","3383703","0.0-13.0-3.88","l","40","Sounds/incorrect.wav","null","1","","","","","","",""
"null","","audio-keyboard-response","408","3384999","0.0-13.0-0.89","l","40","Sounds/train_sound.wav","null","1","","","","","","",""
"null","","html-keyboard-response","409","3385999","0.0-13.0-1.89","l","40","<p style=""font-size: 48px;"">+</p>","null","1","","","","","","",""
"776.5950000029989","","image-keyboard-response","410","3386777","0.0-13.0-2.89","l","40","Images/train_1.png","65","1","1583263651692","match","train","train","sound","test","false"
"null","","audio-keyboard-response","411","3388786","0.0-13.0-3.89","l","40","Sounds/incorrect.wav","null","1","","","","","","",""
"null","","audio-keyboard-response","412","3389479","0.0-13.0-0.90","l","40","Sounds/whistle_label.wav","null","1","","","","","","",""
"null","","html-keyboard-response","413","3390483","0.0-13.0-1.90","l","40","<p style=""font-size: 48px;"">+</p>","null","1","","","","","","",""
"1029.2100000083447","","image-keyboard-response","414","3391513","0.0-13.0-2.90","l","40","Images/cow_2.png","65","1","1583263656176","non-match","cow","whistle","label","test","true"
"null","","audio-keyboard-response","415","3393521","0.0-13.0-3.90","l","40","Sounds/correct.wav","null","1","","","","","","",""
"null","","audio-keyboard-response","416","3394099","0.0-13.0-0.91","l","40","Sounds/gun_sound.wav","null","1","","","","","","",""
"null","","html-keyboard-response","417","3395099","0.0-13.0-1.91","l","40","<p style=""font-size: 48px;"">+</p>","null","1","","","","","","",""
"540.5600000228733","","image-keyboard-response","418","3395641","0.0-13.0-2.91","l","40","Images/gun_3.png","76","1","1583263660792","match","gun","gun","sound","test","true"
"null","","audio-keyboard-response","419","3397655","0.0-13.0-3.91","l","40","Sounds/correct.wav","null","1","","","","","","",""
"null","","audio-keyboard-response","420","3398739","0.0-13.0-0.92","l","40","Sounds/car_label.wav","null","1","","","","","","",""
"null","","html-keyboard-response","421","3399733","0.0-13.0-1.92","l","40","<p style=""font-size: 48px;"">+</p>","null","1","","","","","","",""
"547.1250000121072","","image-keyboard-response","422","3400281","0.0-13.0-2.92","l","40","Images/car_3.png","76","1","1583263665426","match","car","car","label","test","true"
"null","","audio-keyboard-response","423","3402288","0.0-13.0-3.92","l","40","Sounds/correct.wav","null","1","","","","","","",""
"null","","audio-keyboard-response","424","3403399","0.0-13.0-0.93","l","40","Sounds/motorcycle_sound.wav","null","1","","","","","","",""
"null","","html-keyboard-response","425","3404399","0.0-13.0-1.93","l","40","<p style=""font-size: 48px;"">+</p>","null","1","","","","","","",""
"2008.6450000237674","","image-keyboard-response","426","3406409","0.0-13.0-2.93","l","40","Images/motorcycle_orig.png","76","1","1583263670092","match","motorcycle","motorcycle","sound","test","true"
"null","","audio-keyboard-response","427","3408422","0.0-13.0-3.93","l","40","Sounds/correct.wav","null","1","","","","","","",""
"null","","audio-keyboard-response","428","3409259","0.0-13.0-0.94","l","40","Sounds/cat_label.wav","null","1","","","","","","",""
"null","","html-keyboard-response","429","3410249","0.0-13.0-1.94","l","40","<p style=""font-size: 48px;"">+</p>","null","1","","","","","","",""
"603.9150000140071","","image-keyboard-response","430","3410857","0.0-13.0-2.94","l","40","Images/cat_2.png","76","1","1583263675943","match","cat","cat","label","test","true"
"null","","audio-keyboard-response","431","3412870","0.0-13.0-3.94","l","40","Sounds/correct.wav","null","1","","","","","","",""
"null","","audio-keyboard-response","432","3413439","0.0-13.0-0.95","l","40","Sounds/gun_sound.wav","null","1","","","","","","",""
"null","","html-keyboard-response","433","3414433","0.0-13.0-1.95","l","40","<p style=""font-size: 48px;"">+</p>","null","1","","","","","","",""
"517.8349999766797","","image-keyboard-response","434","3414953","0.0-13.0-2.95","l","40","Images/gun_2.png","76","1","1583263680127","match","gun","gun","sound","test","true"
"null","","audio-keyboard-response","435","3416968","0.0-13.0-3.95","l","40","Sounds/correct.wav","null","1","","","","","","",""
"null","","audio-keyboard-response","436","3417859","0.0-13.0-0.96","l","40","Sounds/frog_label.wav","null","1","","","","","","",""
"null","","html-keyboard-response","437","3418850","0.0-13.0-1.96","l","40","<p style=""font-size: 48px;"">+</p>","null","1","","","","","","",""
"422.23999998532236","","image-keyboard-response","438","3419273","0.0-13.0-2.96","l","40","Images/frog_cartoon.png","76","1","1583263684543","match","frog","frog","label","test","true"
"null","","audio-keyboard-response","439","3421287","0.0-13.0-3.96","l","40","Sounds/correct.wav","null","1","","","","","","",""
"null","","audio-keyboard-response","440","3421939","0.0-13.0-0.97","l","40","Sounds/dog_label.wav","null","1","","","","","","",""
"null","","html-keyboard-response","441","3422933","0.0-13.0-1.97","l","40","<p style=""font-size: 48px;"">+</p>","null","1","","","","","","",""
"530.7249999893829","","image-keyboard-response","442","3423465","0.0-13.0-2.97","l","40","Images/frog_orig.png","65","1","1583263688626","non-match","frog","dog","label","test","true"
"null","","audio-keyboard-response","443","3425472","0.0-13.0-3.97","l","40","Sounds/correct.wav","null","1","","","","","","",""
"null","","audio-keyboard-response","444","3426599","0.0-13.0-0.98","l","40","Sounds/motorcycle_label.wav","null","1","","","","","","",""
"null","","html-keyboard-response","445","3427600","0.0-13.0-1.98","l","40","<p style=""font-size: 48px;"">+</p>","null","1","","","","","","",""
"504.11999999778345","","image-keyboard-response","446","3428105","0.0-13.0-2.98","l","40","Images/motorcycle_1.png","76","1","1583263693293","match","motorcycle","motorcycle","label","test","true"
"null","","audio-keyboard-response","447","3430122","0.0-13.0-3.98","l","40","Sounds/correct.wav","null","1","","","","","","",""
"null","","audio-keyboard-response","448","3431239","0.0-13.0-0.99","l","40","Sounds/motorcycle_label.wav","null","1","","","","","","",""
"null","","html-keyboard-response","449","3432233","0.0-13.0-1.99","l","40","<p style=""font-size: 48px;"">+</p>","null","1","","","","","","",""
"414.9049999830313","","image-keyboard-response","450","3432649","0.0-13.0-2.99","l","40","Images/motorcycle_cartoon.png","76","1","1583263697926","match","motorcycle","motorcycle","label","test","true"
"null","","audio-keyboard-response","451","3434656","0.0-13.0-3.99","l","40","Sounds/correct.wav","null","1","","","","","","",""
"13512.069999996573","","html-keyboard-response","452","3448169","0.0-14.0","l","40","<p>Please take this opportunity to rest your eyes before proceeding.</p><p>When ready, press the enter key to continue to the next set of trials.</p>","32","","","","","","","",""
"null","","audio-keyboard-response","453","3450894","0.0-15.0-0.0","l","40","Sounds/whistle_sound.wav","null","2","","","","","","",""
"null","","html-keyboard-response","454","3451883","0.0-15.0-1.0","l","40","<p style=""font-size: 48px;"">+</p>","null","2","","","","","","",""
"716.4800000027753","","image-keyboard-response","455","3452601","0.0-15.0-2.0","l","40","Images/whistle_3.png","76","2","1583263717576","match","whistle","whistle","sound","test","true"
"null","","audio-keyboard-response","456","3454605","0.0-15.0-3.0","l","40","Sounds/correct.wav","null","2","","","","","","",""
"null","","audio-keyboard-response","457","3455254","0.0-15.0-0.1","l","40","Sounds/dog_label.wav","null","2","","","","","","",""
"null","","html-keyboard-response","458","3456250","0.0-15.0-1.1","l","40","<p style=""font-size: 48px;"">+</p>","null","2","","","","","","",""
"477.8099999818951","","image-keyboard-response","459","3456728","0.0-15.0-2.1","l","40","Images/dog_orig.png","76","2","1583263721943","match","dog","dog","label","test","true"
"null","","audio-keyboard-response","460","3458738","0.0-15.0-3.1","l","40","Sounds/correct.wav","null","2","","","","","","",""
"null","","audio-keyboard-response","461","3460015","0.0-15.0-0.2","l","40","Sounds/train_label.wav","null","2","","","","","","",""
"null","","html-keyboard-response","462","3461016","0.0-15.0-1.2","l","40","<p style=""font-size: 48px;"">+</p>","null","2","","","","","","",""
"543.3699999996461","","image-keyboard-response","463","3461561","0.0-15.0-2.2","l","40","Images/train_3.png","76","2","1583263726710","match","train","train","label","test","true"
"null","","audio-keyboard-response","464","3463572","0.0-15.0-3.2","l","40","Sounds/correct.wav","null","2","","","","","","",""
"null","","audio-keyboard-response","465","3464274","0.0-15.0-0.3","l","40","Sounds/whistle_label.wav","null","2","","","","","","",""
"null","","html-keyboard-response","466","3465266","0.0-15.0-1.3","l","40","<p style=""font-size: 48px;"">+</p>","null","2","","","","","","",""
"469.0100000007078","","image-keyboard-response","467","3465737","0.0-15.0-2.3","l","40","Images/car_1.png","65","2","1583263730960","non-match","car","whistle","label","test","true"
"null","","audio-keyboard-response","468","3467754","0.0-15.0-3.3","l","40","Sounds/correct.wav","null","2","","","","","","",""
"null","","audio-keyboard-response","469","3468454","0.0-15.0-0.4","l","40","Sounds/rooster_sound.wav","null","2","","","","","","",""
"null","","html-keyboard-response","470","3469450","0.0-15.0-1.4","l","40","<p style=""font-size: 48px;"">+</p>","null","2","","","","","","",""
"509.62500000558794","","image-keyboard-response","471","3469961","0.0-15.0-2.4","l","40","Images/rooster_3.png","76","2","1583263735143","match","rooster","rooster","sound","test","true"
"null","","audio-keyboard-response","472","3471970","0.0-15.0-3.4","l","40","Sounds/correct.wav","null","2","","","","","","",""
"null","","audio-keyboard-response","473","3473274","0.0-15.0-0.5","l","40","Sounds/train_sound.wav","null","2","","","","","","",""
"null","","html-keyboard-response","474","3474267","0.0-15.0-1.5","l","40","<p style=""font-size: 48px;"">+</p>","null","2","","","","","","",""
"492.1150000006892","","image-keyboard-response","475","3474761","0.0-15.0-2.5","l","40","Images/train_orig.png","76","2","1583263739960","match","train","train","sound","test","true"
"null","","audio-keyboard-response","476","3476769","0.0-15.0-3.5","l","40","Sounds/correct.wav","null","2","","","","","","",""
"null","","audio-keyboard-response","477","3478015","0.0-15.0-0.6","l","40","Sounds/train_label.wav","null","2","","","","","","",""
"null","","html-keyboard-response","478","3479017","0.0-15.0-1.6","l","40","<p style=""font-size: 48px;"">+</p>","null","2","","","","","","",""
"414.85000000102445","","image-keyboard-response","479","3479433","0.0-15.0-2.6","l","40","Images/train_2.png","76","2","1583263744710","match","train","train","label","test","true"
"null","","audio-keyboard-response","480","3481439","0.0-15.0-3.6","l","40","Sounds/correct.wav","null","2","","","","","","",""
"null","","audio-keyboard-response","481","3482455","0.0-15.0-0.7","l","40","Sounds/cow_sound.wav","null","2","","","","","","",""
"null","","html-keyboard-response","482","3483450","0.0-15.0-1.7","l","40","<p style=""font-size: 48px;"">+</p>","null","2","","","","","","",""
"461.59500000067055","","image-keyboard-response","483","3483913","0.0-15.0-2.7","l","40","Images/whistle_3.png","65","2","1583263749143","non-match","whistle","cow","sound","test","true"
"null","","audio-keyboard-response","484","3485922","0.0-15.0-3.7","l","40","Sounds/correct.wav","null","2","","","","","","",""
"null","","audio-keyboard-response","485","3487055","0.0-15.0-0.8","l","40","Sounds/motorcycle_label.wav","null","2","","","","","","",""
"null","","html-keyboard-response","486","3488050","0.0-15.0-1.8","l","40","<p style=""font-size: 48px;"">+</p>","null","2","","","","","","",""
"389.69000001112","","image-keyboard-response","487","3488441","0.0-15.0-2.8","l","40","Images/motorcycle_1.png","76","2","1583263753743","match","motorcycle","motorcycle","label","test","true"
"null","","audio-keyboard-response","488","3490454","0.0-15.0-3.8","l","40","Sounds/correct.wav","null","2","","","","","","",""
"null","","audio-keyboard-response","489","3491035","0.0-15.0-0.9","l","40","Sounds/gun_label.wav","null","2","","","","","","",""
"null","","html-keyboard-response","490","3492033","0.0-15.0-1.9","l","40","<p style=""font-size: 48px;"">+</p>","null","2","","","","","","",""
"389.9649999802932","","image-keyboard-response","491","3492425","0.0-15.0-2.9","l","40","Images/gun_2.png","76","2","1583263757727","match","gun","gun","label","test","true"
"null","","audio-keyboard-response","492","3494436","0.0-15.0-3.9","l","40","Sounds/correct.wav","null","2","","","","","","",""
"null","","audio-keyboard-response","493","3495515","0.0-15.0-0.10","l","40","Sounds/car_sound.wav","null","2","","","","","","",""
"null","","html-keyboard-response","494","3496517","0.0-15.0-1.10","l","40","<p style=""font-size: 48px;"">+</p>","null","2","","","","","","",""
"354.8250000164844","","image-keyboard-response","495","3496873","0.0-15.0-2.10","l","40","Images/car_orig.png","76","2","1583263762210","match","car","car","sound","test","true"
"null","","audio-keyboard-response","496","3498890","0.0-15.0-3.10","l","40","Sounds/correct.wav","null","2","","","","","","",""
"null","","audio-keyboard-response","497","3499594","0.0-15.0-0.11","l","40","Sounds/rooster_label.wav","null","2","","","","","","",""
"null","","html-keyboard-response","498","3500583","0.0-15.0-1.11","l","40","<p style=""font-size: 48px;"">+</p>","null","2","","","","","","",""
"544.3649999797344","","image-keyboard-response","499","3501129","0.0-15.0-2.11","l","40","Images/rooster_orig.png","76","2","1583263766277","match","rooster","rooster","label","test","true"
"null","","audio-keyboard-response","500","3503139","0.0-15.0-3.11","l","40","Sounds/correct.wav","null","2","","","","","","",""
"null","","audio-keyboard-response","501","3504195","0.0-15.0-0.12","l","40","Sounds/car_sound.wav","null","2","","","","","","",""
"null","","html-keyboard-response","502","3505200","0.0-15.0-1.12","l","40","<p style=""font-size: 48px;"">+</p>","null","2","","","","","","",""
"487.23500000778586","","image-keyboard-response","503","3505689","0.0-15.0-2.12","l","40","Images/car_2.png","76","2","1583263770893","match","car","car","sound","test","true"
"null","","audio-keyboard-response","504","3507704","0.0-15.0-3.12","l","40","Sounds/correct.wav","null","2","","","","","","",""
"null","","audio-keyboard-response","505","3508735","0.0-15.0-0.13","l","40","Sounds/cow_sound.wav","null","2","","","","","","",""
"null","","html-keyboard-response","506","3509734","0.0-15.0-1.13","l","40","<p style=""font-size: 48px;"">+</p>","null","2","","","","","","",""
"545.8400000059046","","image-keyboard-response","507","3510281","0.0-15.0-2.13","l","40","Images/cat_cartoon.png","65","2","1583263775427","non-match","cat","cow","sound","test","true"
"null","","audio-keyboard-response","508","3512289","0.0-15.0-3.13","l","40","Sounds/correct.wav","null","2","","","","","","",""
"null","","audio-keyboard-response","509","3512995","0.0-15.0-0.14","l","40","Sounds/dog_sound.wav","null","2","","","","","","",""
"null","","html-keyboard-response","510","3513984","0.0-15.0-1.14","l","40","<p style=""font-size: 48px;"">+</p>","null","2","","","","","","",""
"504.05000001750886","","image-keyboard-response","511","3514489","0.0-15.0-2.14","l","40","Images/cat_orig.png","65","2","1583263779677","non-match","cat","dog","sound","test","true"
"null","","audio-keyboard-response","512","3516505","0.0-15.0-3.14","l","40","Sounds/correct.wav","null","2","","","","","","",""
"null","","audio-keyboard-response","513","3517075","0.0-15.0-0.15","l","40","Sounds/gun_sound.wav","null","2","","","","","","",""
"null","","html-keyboard-response","514","3518067","0.0-15.0-1.15","l","40","<p style=""font-size: 48px;"">+</p>","null","2","","","","","","",""
"500.3900000010617","","image-keyboard-response","515","3518569","0.0-15.0-2.15","l","40","Images/rooster_cartoon.png","65","2","1583263783760","non-match","rooster","gun","sound","test","true"
"null","","audio-keyboard-response","516","3520573","0.0-15.0-3.15","l","40","Sounds/correct.wav","null","2","","","","","","",""
"null","","audio-keyboard-response","517","3521475","0.0-15.0-0.16","l","40","Sounds/frog_label.wav","null","2","","","","","","",""
"null","","html-keyboard-response","518","3522467","0.0-15.0-1.16","l","40","<p style=""font-size: 48px;"">+</p>","null","2","","","","","","",""
"436.35999999241903","","image-keyboard-response","519","3522905","0.0-15.0-2.16","l","40","Images/gun_cartoon.png","65","2","1583263788161","non-match","gun","frog","label","test","true"
"null","","audio-keyboard-response","520","3524922","0.0-15.0-3.16","l","40","Sounds/correct.wav","null","2","","","","","","",""
"null","","audio-keyboard-response","521","3525615","0.0-15.0-0.17","l","40","Sounds/whistle_label.wav","null","2","","","","","","",""
"null","","html-keyboard-response","522","3526617","0.0-15.0-1.17","l","40","<p style=""font-size: 48px;"">+</p>","null","2","","","","","","",""
"446.6100000133738","","image-keyboard-response","523","3527065","0.0-15.0-2.17","l","40","Images/frog_1.png","65","2","1583263792311","non-match","frog","whistle","label","test","true"
"null","","audio-keyboard-response","524","3529072","0.0-15.0-3.17","l","40","Sounds/correct.wav","null","2","","","","","","",""
"null","","audio-keyboard-response","525","3530095","0.0-15.0-0.18","l","40","Sounds/cow_sound.wav","null","2","","","","","","",""
"null","","html-keyboard-response","526","3531101","0.0-15.0-1.18","l","40","<p style=""font-size: 48px;"">+</p>","null","2","","","","","","",""
"682.6750000184402","","image-keyboard-response","527","3531785","0.0-15.0-2.18","l","40","Images/cow_orig.png","76","2","1583263796794","match","cow","cow","sound","test","true"
"null","","audio-keyboard-response","528","3533789","0.0-15.0-3.18","l","40","Sounds/correct.wav","null","2","","","","","","",""
"null","","audio-keyboard-response","529","3534495","0.0-15.0-0.19","l","40","Sounds/whistle_sound.wav","null","2","","","","","","",""
"null","","html-keyboard-response","530","3535484","0.0-15.0-1.19","l","40","<p style=""font-size: 48px;"">+</p>","null","2","","","","","","",""
"523.504999990575","","image-keyboard-response","531","3536009","0.0-15.0-2.19","l","40","Images/whistle_1.png","76","2","1583263801177","match","whistle","whistle","sound","test","true"
"null","","audio-keyboard-response","532","3538022","0.0-15.0-3.19","l","40","Sounds/correct.wav","null","2","","","","","","",""
"null","","audio-keyboard-response","533","3538855","0.0-15.0-0.20","l","40","Sounds/cat_label.wav","null","2","","","","","","",""
"null","","html-keyboard-response","534","3539851","0.0-15.0-1.20","l","40","<p style=""font-size: 48px;"">+</p>","null","2","","","","","","",""
"397.0749999862164","","image-keyboard-response","535","3540249","0.0-15.0-2.20","l","40","Images/cat_cartoon.png","76","2","1583263805544","match","cat","cat","label","test","true"
"null","","audio-keyboard-response","536","3542257","0.0-15.0-3.20","l","40","Sounds/correct.wav","null","2","","","","","","",""
"null","","audio-keyboard-response","537","3542935","0.0-15.0-0.21","l","40","Sounds/whistle_label.wav","null","2","","","","","","",""
"null","","html-keyboard-response","538","3543934","0.0-15.0-1.21","l","40","<p style=""font-size: 48px;"">+</p>","null","2","","","","","","",""
"409.50999999791384","","image-keyboard-response","539","3544345","0.0-15.0-2.21","l","40","Images/dog_2.png","65","2","1583263809628","non-match","dog","whistle","label","test","true"
"null","","audio-keyboard-response","540","3546359","0.0-15.0-3.21","l","40","Sounds/correct.wav","null","2","","","","","","",""
"null","","audio-keyboard-response","541","3547635","0.0-15.0-0.22","l","40","Sounds/train_label.wav","null","2","","","","","","",""
"null","","html-keyboard-response","542","3548634","0.0-15.0-1.22","l","40","<p style=""font-size: 48px;"">+</p>","null","2","","","","","","",""
"556.0799999805167","","image-keyboard-response","543","3549193","0.0-15.0-2.22","l","40","Images/motorcycle_2.png","65","2","1583263814328","non-match","motorcycle","train","label","test","true"
"null","","audio-keyboard-response","544","3551204","0.0-15.0-3.22","l","40","Sounds/correct.wav","null","2","","","","","","",""
"null","","audio-keyboard-response","545","3552215","0.0-15.0-0.23","l","40","Sounds/cow_label.wav","null","2","","","","","","",""
"null","","html-keyboard-response","546","3553218","0.0-15.0-1.23","l","40","<p style=""font-size: 48px;"">+</p>","null","2","","","","","","",""
"550.4749999968335","","image-keyboard-response","547","3553769","0.0-15.0-2.23","l","40","Images/cow_cartoon.png","76","2","1583263818911","match","cow","cow","label","test","true"
"null","","audio-keyboard-response","548","3555773","0.0-15.0-3.23","l","40","Sounds/correct.wav","null","2","","","","","","",""
"null","","audio-keyboard-response","549","3556475","0.0-15.0-0.24","l","40","Sounds/rooster_label.wav","null","2","","","","","","",""
"null","","html-keyboard-response","550","3557468","0.0-15.0-1.24","l","40","<p style=""font-size: 48px;"">+</p>","null","2","","","","","","",""
"411.99000002257526","","image-keyboard-response","551","3557881","0.0-15.0-2.24","l","40","Images/rooster_2.png","76","2","1583263823161","match","rooster","rooster","label","test","true"
"null","","audio-keyboard-response","552","3559890","0.0-15.0-3.24","l","40","Sounds/correct.wav","null","2","","","","","","",""
"null","","audio-keyboard-response","553","3560575","0.0-15.0-0.25","l","40","Sounds/whistle_label.wav","null","2","","","","","","",""
"null","","html-keyboard-response","554","3561568","0.0-15.0-1.25","l","40","<p style=""font-size: 48px;"">+</p>","null","2","","","","","","",""
"439.95000000018626","","image-keyboard-response","555","3562009","0.0-15.0-2.25","l","40","Images/whistle_orig.png","76","2","1583263827261","match","whistle","whistle","label","test","true"
"null","","audio-keyboard-response","556","3564022","0.0-15.0-3.25","l","40","Sounds/correct.wav","null","2","","","","","","",""
"null","","audio-keyboard-response","557","3564935","0.0-15.0-0.26","l","40","Sounds/frog_sound.wav","null","2","","","","","","",""
"null","","html-keyboard-response","558","3565935","0.0-15.0-1.26","l","40","<p style=""font-size: 48px;"">+</p>","null","2","","","","","","",""
"921.6399999861605","","image-keyboard-response","559","3566857","0.0-15.0-2.26","l","40","Images/car_orig.png","65","2","1583263831628","non-match","car","frog","sound","test","true"
"null","","audio-keyboard-response","560","3568873","0.0-15.0-3.26","l","40","Sounds/correct.wav","null","2","","","","","","",""
"null","","audio-keyboard-response","561","3570135","0.0-15.0-0.27","l","40","Sounds/train_label.wav","null","2","","","","","","",""
"null","","html-keyboard-response","562","3571135","0.0-15.0-1.27","l","40","<p style=""font-size: 48px;"">+</p>","null","2","","","","","","",""
"505.14500000234693","","image-keyboard-response","563","3571641","0.0-15.0-2.27","l","40","Images/rooster_2.png","65","2","1583263836828","non-match","rooster","train","label","test","true"
"null","","audio-keyboard-response","564","3573657","0.0-15.0-3.27","l","40","Sounds/correct.wav","null","2","","","","","","",""
"null","","audio-keyboard-response","565","3574555","0.0-15.0-0.28","l","40","Sounds/frog_label.wav","null","2","","","","","","",""
"null","","html-keyboard-response","566","3575551","0.0-15.0-1.28","l","40","<p style=""font-size: 48px;"">+</p>","null","2","","","","","","",""
"553.0150000122376","","image-keyboard-response","567","3576105","0.0-15.0-2.28","l","40","Images/cat_1.png","65","2","1583263841244","non-match","cat","frog","label","test","true"
"null","","audio-keyboard-response","568","3578122","0.0-15.0-3.28","l","40","Sounds/correct.wav","null","2","","","","","","",""
"null","","audio-keyboard-response","569","3578815","0.0-15.0-0.29","l","40","Sounds/rooster_sound.wav","null","2","","","","","","",""
"null","","html-keyboard-response","570","3579818","0.0-15.0-1.29","l","40","<p style=""font-size: 48px;"">+</p>","null","2","","","","","","",""
"414.0649999896996","","image-keyboard-response","571","3580233","0.0-15.0-2.29","l","40","Images/dog_3.png","65","2","1583263845511","non-match","dog","rooster","sound","test","true"
"null","","audio-keyboard-response","572","3582242","0.0-15.0-3.29","l","40","Sounds/correct.wav","null","2","","","","","","",""
"null","","audio-keyboard-response","573","3583355","0.0-15.0-0.30","l","40","Sounds/motorcycle_sound.wav","null","2","","","","","","",""
"null","","html-keyboard-response","574","3584351","0.0-15.0-1.30","l","40","<p style=""font-size: 48px;"">+</p>","null","2","","","","","","",""
"376.34499999694526","","image-keyboard-response","575","3584729","0.0-15.0-2.30","l","40","Images/motorcycle_2.png","76","2","1583263850045","match","motorcycle","motorcycle","sound","test","true"
"null","","audio-keyboard-response","576","3586740","0.0-15.0-3.30","l","40","Sounds/correct.wav","null","2","","","","","","",""
"null","","audio-keyboard-response","577","3587875","0.0-15.0-0.31","l","40","Sounds/motorcycle_label.wav","null","2","","","","","","",""
"null","","html-keyboard-response","578","3588868","0.0-15.0-1.31","l","40","<p style=""font-size: 48px;"">+</p>","null","2","","","","","","",""
"499.7399999992922","","image-keyboard-response","579","3589369","0.0-15.0-2.31","l","40","Images/whistle_2.png","65","2","1583263854561","non-match","whistle","motorcycle","label","test","true"
"null","","audio-keyboard-response","580","3591373","0.0-15.0-3.31","l","40","Sounds/correct.wav","null","2","","","","","","",""
"null","","audio-keyboard-response","581","3592035","0.0-15.0-0.32","l","40","Sounds/dog_label.wav","null","2","","","","","","",""
"null","","html-keyboard-response","582","3593035","0.0-15.0-1.32","l","40","<p style=""font-size: 48px;"">+</p>","null","2","","","","","","",""
"525.484999991022","","image-keyboard-response","583","3593561","0.0-15.0-2.32","l","40","Images/cow_1.png","65","2","1583263858728","non-match","cow","dog","label","test","true"
"null","","audio-keyboard-response","584","3595571","0.0-15.0-3.32","l","40","Sounds/correct.wav","null","2","","","","","","",""
"null","","audio-keyboard-response","585","3596475","0.0-15.0-0.33","l","40","Sounds/frog_sound.wav","null","2","","","","","","",""
"null","","html-keyboard-response","586","3597468","0.0-15.0-1.33","l","40","<p style=""font-size: 48px;"">+</p>","null","2","","","","","","",""
"507.48499998031184","","image-keyboard-response","587","3597977","0.0-15.0-2.33","l","40","Images/frog_cartoon.png","76","2","1583263863162","match","frog","frog","sound","test","true"
"null","","audio-keyboard-response","588","3599990","0.0-15.0-3.33","l","40","Sounds/correct.wav","null","2","","","","","","",""
"null","","audio-keyboard-response","589","3601295","0.0-15.0-0.34","l","40","Sounds/train_sound.wav","null","2","","","","","","",""
"null","","html-keyboard-response","590","3602302","0.0-15.0-1.34","l","40","<p style=""font-size: 48px;"">+</p>","null","2","","","","","","",""
"649.6900000204332","","image-keyboard-response","591","3602953","0.0-15.0-2.34","l","40","Images/frog_cartoon.png","65","2","1583263867995","non-match","frog","train","sound","test","true"
"null","","audio-keyboard-response","592","3604957","0.0-15.0-3.34","l","40","Sounds/correct.wav","null","2","","","","","","",""
"null","","audio-keyboard-response","593","3605855","0.0-15.0-0.35","l","40","Sounds/frog_label.wav","null","2","","","","","","",""
"null","","html-keyboard-response","594","3606852","0.0-15.0-1.35","l","40","<p style=""font-size: 48px;"">+</p>","null","2","","","","","","",""
"468.4249999993481","","image-keyboard-response","595","3607321","0.0-15.0-2.35","l","40","Images/frog_orig.png","76","2","1583263872545","match","frog","frog","label","test","true"
"null","","audio-keyboard-response","596","3609339","0.0-15.0-3.35","l","40","Sounds/correct.wav","null","2","","","","","","",""
"null","","audio-keyboard-response","597","3610415","0.0-15.0-0.36","l","40","Sounds/car_sound.wav","null","2","","","","","","",""
"null","","html-keyboard-response","598","3611418","0.0-15.0-1.36","l","40","<p style=""font-size: 48px;"">+</p>","null","2","","","","","","",""
"669.6750000119209","","image-keyboard-response","599","3612089","0.0-15.0-2.36","l","40","Images/car_3.png","76","2","1583263877112","match","car","car","sound","test","true"
"null","","audio-keyboard-response","600","3614106","0.0-15.0-3.36","l","40","Sounds/correct.wav","null","2","","","","","","",""
"null","","audio-keyboard-response","601","3615115","0.0-15.0-0.37","l","40","Sounds/cow_label.wav","null","2","","","","","","",""
"null","","html-keyboard-response","602","3616118","0.0-15.0-1.37","l","40","<p style=""font-size: 48px;"">+</p>","null","2","","","","","","",""
"657.3950000163168","","image-keyboard-response","603","3616777","0.0-15.0-2.37","l","40","Images/cow_3.png","76","2","1583263881812","match","cow","cow","label","test","true"
"null","","audio-keyboard-response","604","3618789","0.0-15.0-3.37","l","40","Sounds/correct.wav","null","2","","","","","","",""
"null","","audio-keyboard-response","605","3619635","0.0-15.0-0.38","l","40","Sounds/cat_sound.wav","null","2","","","","","","",""
"null","","html-keyboard-response","606","3620635","0.0-15.0-1.38","l","40","<p style=""font-size: 48px;"">+</p>","null","2","","","","","","",""
"540.9050000016578","","image-keyboard-response","607","3621177","0.0-15.0-2.38","l","40","Images/cow_3.png","65","2","1583263886328","non-match","cow","cat","sound","test","true"
"null","","audio-keyboard-response","608","3623190","0.0-15.0-3.38","l","40","Sounds/correct.wav","null","2","","","","","","",""
"null","","audio-keyboard-response","609","3624235","0.0-15.0-0.39","l","40","Sounds/car_sound.wav","null","2","","","","","","",""
"null","","html-keyboard-response","610","3625235","0.0-15.0-1.39","l","40","<p style=""font-size: 48px;"">+</p>","null","2","","","","","","",""
"820.7049999912269","","image-keyboard-response","611","3626057","0.0-15.0-2.39","l","40","Images/gun_1.png","65","2","1583263890928","non-match","gun","car","sound","test","true"
"null","","audio-keyboard-response","612","3628073","0.0-15.0-3.39","l","40","Sounds/correct.wav","null","2","","","","","","",""
"null","","audio-keyboard-response","613","3628655","0.0-15.0-0.40","l","40","Sounds/gun_label.wav","null","2","","","","","","",""
"null","","html-keyboard-response","614","3629652","0.0-15.0-1.40","l","40","<p style=""font-size: 48px;"">+</p>","null","2","","","","","","",""
"532.3400000054389","","image-keyboard-response","615","3630186","0.0-15.0-2.40","l","40","Images/gun_1.png","76","2","1583263895345","match","gun","gun","label","test","true"
"null","","audio-keyboard-response","616","3632191","0.0-15.0-3.40","l","40","Sounds/correct.wav","null","2","","","","","","",""
"null","","audio-keyboard-response","617","3632895","0.0-15.0-0.41","l","40","Sounds/rooster_sound.wav","null","2","","","","","","",""
"null","","html-keyboard-response","618","3633886","0.0-15.0-1.41","l","40","<p style=""font-size: 48px;"">+</p>","null","2","","","","","","",""
"473.98999999882653","","image-keyboard-response","619","3634361","0.0-15.0-2.41","l","40","Images/motorcycle_1.png","65","2","1583263899579","non-match","motorcycle","rooster","sound","test","true"
"null","","audio-keyboard-response","620","3636372","0.0-15.0-3.41","l","40","Sounds/correct.wav","null","2","","","","","","",""
"null","","audio-keyboard-response","621","3637495","0.0-15.0-0.42","l","40","Sounds/motorcycle_sound.wav","null","2","","","","","","",""
"null","","html-keyboard-response","622","3638486","0.0-15.0-1.42","l","40","<p style=""font-size: 48px;"">+</p>","null","2","","","","","","",""
"722.5199999809265","","image-keyboard-response","623","3639209","0.0-15.0-2.42","l","40","Images/gun_3.png","65","2","1583263904179","non-match","gun","motorcycle","sound","test","true"
"null","","audio-keyboard-response","624","3641223","0.0-15.0-3.42","l","40","Sounds/correct.wav","null","2","","","","","","",""
"null","","audio-keyboard-response","625","3641795","0.0-15.0-0.43","l","40","Sounds/gun_sound.wav","null","2","","","","","","",""
"null","","html-keyboard-response","626","3642786","0.0-15.0-1.43","l","40","<p style=""font-size: 48px;"">+</p>","null","2","","","","","","",""
"422.5349999903701","","image-keyboard-response","627","3643209","0.0-15.0-2.43","l","40","Images/cow_orig.png","65","2","1583263908479","non-match","cow","gun","sound","test","true"
"null","","audio-keyboard-response","628","3645223","0.0-15.0-3.43","l","40","Sounds/correct.wav","null","2","","","","","","",""
"null","","audio-keyboard-response","629","3646355","0.0-15.0-0.44","l","40","Sounds/motorcycle_label.wav","null","2","","","","","","",""
"null","","html-keyboard-response","630","3647352","0.0-15.0-1.44","l","40","<p style=""font-size: 48px;"">+</p>","null","2","","","","","","",""
"447.9749999884516","","image-keyboard-response","631","3647801","0.0-15.0-2.44","l","40","Images/car_3.png","65","2","1583263913046","non-match","car","motorcycle","label","test","true"
"null","","audio-keyboard-response","632","3649808","0.0-15.0-3.44","l","40","Sounds/correct.wav","null","2","","","","","","",""
"null","","audio-keyboard-response","633","3650355","0.0-15.0-0.45","l","40","Sounds/gun_sound.wav","null","2","","","","","","",""
"null","","html-keyboard-response","634","3651352","0.0-15.0-1.45","l","40","<p style=""font-size: 48px;"">+</p>","null","2","","","","","","",""
"399.96000000974163","","image-keyboard-response","635","3651753","0.0-15.0-2.45","l","40","Images/gun_cartoon.png","76","2","1583263917046","match","gun","gun","sound","test","true"
"null","","audio-keyboard-response","636","3653757","0.0-15.0-3.45","l","40","Sounds/correct.wav","null","2","","","","","","",""
"null","","audio-keyboard-response","637","3654455","0.0-15.0-0.46","l","40","Sounds/rooster_sound.wav","null","2","","","","","","",""
"null","","html-keyboard-response","638","3655452","0.0-15.0-1.46","l","40","<p style=""font-size: 48px;"">+</p>","null","2","","","","","","",""
"411.7899999837391","","image-keyboard-response","639","3655865","0.0-15.0-2.46","l","40","Images/car_cartoon.png","65","2","1583263921145","non-match","car","rooster","sound","test","true"
"null","","audio-keyboard-response","640","3657874","0.0-15.0-3.46","l","40","Sounds/correct.wav","null","2","","","","","","",""
"null","","audio-keyboard-response","641","3658435","0.0-15.0-0.47","l","40","Sounds/gun_sound.wav","null","2","","","","","","",""
"null","","html-keyboard-response","642","3659436","0.0-15.0-1.47","l","40","<p style=""font-size: 48px;"">+</p>","null","2","","","","","","",""
"380.49000001046807","","image-keyboard-response","643","3659818","0.0-15.0-2.47","l","40","Images/gun_orig.png","76","2","1583263925129","match","gun","gun","sound","test","true"
"null","","audio-keyboard-response","644","3661825","0.0-15.0-3.47","l","40","Sounds/correct.wav","null","2","","","","","","",""
"null","","audio-keyboard-response","645","3662655","0.0-15.0-0.48","l","40","Sounds/cat_sound.wav","null","2","","","","","","",""
"null","","html-keyboard-response","646","3663653","0.0-15.0-1.48","l","40","<p style=""font-size: 48px;"">+</p>","null","2","","","","","","",""
"579.605000006035","","image-keyboard-response","647","3664233","0.0-15.0-2.48","l","40","Images/cat_1.png","65","2","1583263929346","match","cat","cat","sound","test","false"
"null","","audio-keyboard-response","648","3666243","0.0-15.0-3.48","l","40","Sounds/incorrect.wav","null","2","","","","","","",""
"null","","audio-keyboard-response","649","3667535","0.0-15.0-0.49","l","40","Sounds/train_sound.wav","null","2","","","","","","",""
"null","","html-keyboard-response","650","3668553","0.0-15.0-1.49","l","40","<p style=""font-size: 48px;"">+</p>","null","2","","","","","","",""
"686.5750000001863","","image-keyboard-response","651","3669241","0.0-15.0-2.49","l","40","Images/train_cartoon.png","76","2","1583263934246","match","train","train","sound","test","true"
"null","","audio-keyboard-response","652","3671257","0.0-15.0-3.49","l","40","Sounds/correct.wav","null","2","","","","","","",""
"null","","audio-keyboard-response","653","3672375","0.0-15.0-0.50","l","40","Sounds/motorcycle_sound.wav","null","2","","","","","","",""
"null","","html-keyboard-response","654","3673369","0.0-15.0-1.50","l","40","<p style=""font-size: 48px;"">+</p>","null","2","","","","","","",""
"591.3249999866821","","image-keyboard-response","655","3673962","0.0-15.0-2.50","l","40","Images/cow_cartoon.png","65","2","1583263939063","non-match","cow","motorcycle","sound","test","true"
"null","","audio-keyboard-response","656","3675972","0.0-15.0-3.50","l","40","Sounds/correct.wav","null","2","","","","","","",""
"null","","audio-keyboard-response","657","3676875","0.0-15.0-0.51","l","40","Sounds/frog_label.wav","null","2","","","","","","",""
