[{"rt":20581.39000000665,"responses":"{\"Q0\":\"40\"}","trial_type":"survey-text","trial_index":0,"time_elapsed":20625,"internal_node_id":"0.0-0.0","match_key":"l","participant_id":"40"},{"rt":47461.41999997781,"stimulus":"<p>Use KEYBOARD 1 (match RIGHT)</p><p>Press MATCH to continue.</p>","key_press":76,"trial_type":"html-keyboard-response","trial_index":1,"time_elapsed":68212,"internal_node_id":"0.0-1.0","match_key":"l","participant_id":"40"},{"rt":2754433.9900000193,"stimulus":"<p>Welcome to the experiment.</p>","key_press":32,"trial_type":"html-keyboard-response","trial_index":2,"time_elapsed":2822893,"internal_node_id":"0.0-2.0","match_key":"l","participant_id":"40"},{"rt":10041.480000014417,"stimulus":"<p>Thank you for agreeing to participate in this study.</p><p>If during any part of the procedure you must stop for any reason, please inform the researcher that you do not wish to continue.</p>","key_press":32,"trial_type":"html-keyboard-response","trial_index":3,"time_elapsed":2832934,"internal_node_id":"0.0-3.0","match_key":"l","participant_id":"40"},{"rt":16174.759999994654,"stimulus":"<p>In this experiment, you will hear various words or sounds and see pictures of various animals and objects.</p><p>Most of the images will be of common everyday objects, such as cars, cats, cows, firearms, frogs, chickens, whistles, trains, motorcycles, and dogs.</p><p>Some of the images will be real-life stills, while others will be cartoons.</p>","key_press":32,"trial_type":"html-keyboard-response","trial_index":4,"time_elapsed":2849110,"internal_node_id":"0.0-4.0","match_key":"l","participant_id":"40"},{"rt":13359.140000015032,"stimulus":"<p>Sometimes, the word/sound will match the picture, for example you'll hear a meowing sound and see a cat.</p><p>Other times, the picture will not match the sound or word.</p><p>Your task is to decide as quickly as possible if the word/sound matches the picture or not. </p>","key_press":32,"trial_type":"html-keyboard-response","trial_index":5,"time_elapsed":2862471,"internal_node_id":"0.0-5.0","match_key":"l","participant_id":"40"},{"rt":11358.319999999367,"stimulus":"<p>For example, if you hear the word \"cat\" or hear a meowing sound, and then see a picture of a cat, you should press the MATCH key.</p><p> If the sound and image do not match, press the NOT-MATCH key to indicate that there is not a match.</p>","key_press":32,"trial_type":"html-keyboard-response","trial_index":6,"time_elapsed":2873830,"internal_node_id":"0.0-6.0","match_key":"l","participant_id":"40"},{"rt":9934.744999976829,"stimulus":"<p>If you make a mistake, you will hear a buzzing sound instead of a more pleasant sound.</p><p> Try to respond as quickly as possible, while making as few errors as possible. If you are making mistakes, you are probably rushing.</p>","key_press":32,"trial_type":"html-keyboard-response","trial_index":7,"time_elapsed":2883766,"internal_node_id":"0.0-7.0","match_key":"l","participant_id":"40"},{"rt":9326.984999992419,"stimulus":"<p>Please try to not move or blink your eyes during the presentation of the images. You can move and blink between images.</p><p>During the experiment there will be some breaks during which you can rest your eyes.</p>","key_press":32,"trial_type":"html-keyboard-response","trial_index":8,"time_elapsed":2893104,"internal_node_id":"0.0-8.0","match_key":"l","participant_id":"40"},{"rt":5326.495000015479,"stimulus":"<p>We will begin with 10 practice trials. Please let the experimenter know if you have any questions.</p>","key_press":32,"trial_type":"html-keyboard-response","trial_index":9,"time_elapsed":2898431,"internal_node_id":"0.0-9.0","match_key":"l","participant_id":"40"},{"rt":null,"stimulus":"Sounds/whistle_label.wav","key_press":null,"block":0,"trial_type":"audio-keyboard-response","trial_index":10,"time_elapsed":2899225,"internal_node_id":"0.0-10.0-0.0","match_key":"l","participant_id":"40"},{"rt":null,"stimulus":"<p style=\"font-size: 48px;\">+</p>","key_press":null,"block":0,"trial_type":"html-keyboard-response","trial_index":11,"time_elapsed":2900218,"internal_node_id":"0.0-10.0-1.0","match_key":"l","participant_id":"40"},{"rt":7795.545000000857,"stimulus":"Images/whistle_1.png","key_press":76,"stim_onset":1583263165911,"block":0,"match_type":"match","image_category":"whistle","sound_category":"whistle","audio_type":"label","phase":"practice","trial_type":"image-keyboard-response","trial_index":12,"time_elapsed":2908016,"internal_node_id":"0.0-10.0-2.0","match_key":"l","participant_id":"40","correct":true},{"rt":null,"stimulus":"Sounds/correct.wav","key_press":null,"block":0,"trial_type":"audio-keyboard-response","trial_index":13,"time_elapsed":2910026,"internal_node_id":"0.0-10.0-3.0","match_key":"l","participant_id":"40"},{"rt":null,"stimulus":"Sounds/motorcycle_sound.wav","key_press":null,"block":0,"trial_type":"audio-keyboard-response","trial_index":14,"time_elapsed":2911145,"internal_node_id":"0.0-10.0-0.1","match_key":"l","participant_id":"40"},{"rt":null,"stimulus":"<p style=\"font-size: 48px;\">+</p>","key_press":null,"block":0,"trial_type":"html-keyboard-response","trial_index":15,"time_elapsed":2912151,"internal_node_id":"0.0-10.0-1.1","match_key":"l","participant_id":"40"},{"rt":1254.805000003893,"stimulus":"Images/train_2.png","key_press":76,"stim_onset":1583263177844,"block":0,"match_type":"non-match","image_category":"train","sound_category":"motorcycle","audio_type":"sound","phase":"practice","trial_type":"image-keyboard-response","trial_index":16,"time_elapsed":2913407,"internal_node_id":"0.0-10.0-2.1","match_key":"l","participant_id":"40","correct":false},{"rt":null,"stimulus":"Sounds/incorrect.wav","key_press":null,"block":0,"trial_type":"audio-keyboard-response","trial_index":17,"time_elapsed":2915411,"internal_node_id":"0.0-10.0-3.1","match_key":"l","participant_id":"40"},{"rt":null,"stimulus":"Sounds/train_label.wav","key_press":null,"block":0,"trial_type":"audio-keyboard-response","trial_index":18,"time_elapsed":2916685,"internal_node_id":"0.0-10.0-0.2","match_key":"l","participant_id":"40"},{"rt":null,"stimulus":"<p style=\"font-size: 48px;\">+</p>","key_press":null,"block":0,"trial_type":"html-keyboard-response","trial_index":19,"time_elapsed":2917685,"internal_node_id":"0.0-10.0-1.2","match_key":"l","participant_id":"40"},{"rt":3161.7649999973364,"stimulus":"Images/train_2.png","key_press":65,"stim_onset":1583263183378,"block":0,"match_type":"match","image_category":"train","sound_category":"train","audio_type":"label","phase":"practice","trial_type":"image-keyboard-response","trial_index":20,"time_elapsed":2920848,"internal_node_id":"0.0-10.0-2.2","match_key":"l","participant_id":"40","correct":false},{"rt":null,"stimulus":"Sounds/incorrect.wav","key_press":null,"block":0,"trial_type":"audio-keyboard-response","trial_index":21,"time_elapsed":2922861,"internal_node_id":"0.0-10.0-3.2","match_key":"l","participant_id":"40"},{"rt":null,"stimulus":"Sounds/frog_label.wav","key_press":null,"block":0,"trial_type":"audio-keyboard-response","trial_index":22,"time_elapsed":2923765,"internal_node_id":"0.0-10.0-0.3","match_key":"l","participant_id":"40"},{"rt":null,"stimulus":"<p style=\"font-size: 48px;\">+</p>","key_press":null,"block":0,"trial_type":"html-keyboard-response","trial_index":23,"time_elapsed":2924768,"internal_node_id":"0.0-10.0-1.3","match_key":"l","participant_id":"40"},{"rt":1022.1050000106916,"stimulus":"Images/dog_1.png","key_press":65,"stim_onset":1583263190462,"block":0,"match_type":"non-match","image_category":"dog","sound_category":"frog","audio_type":"label","phase":"practice","trial_type":"image-keyboard-response","trial_index":24,"time_elapsed":2925791,"internal_node_id":"0.0-10.0-2.3","match_key":"l","participant_id":"40","correct":true},{"rt":null,"stimulus":"Sounds/correct.wav","key_press":null,"block":0,"trial_type":"audio-keyboard-response","trial_index":25,"time_elapsed":2927806,"internal_node_id":"0.0-10.0-3.3","match_key":"l","participant_id":"40"},{"rt":null,"stimulus":"Sounds/dog_sound.wav","key_press":null,"block":0,"trial_type":"audio-keyboard-response","trial_index":26,"time_elapsed":2928525,"internal_node_id":"0.0-10.0-0.4","match_key":"l","participant_id":"40"},{"rt":null,"stimulus":"<p style=\"font-size: 48px;\">+</p>","key_press":null,"block":0,"trial_type":"html-keyboard-response","trial_index":27,"time_elapsed":2929518,"internal_node_id":"0.0-10.0-1.4","match_key":"l","participant_id":"40"},{"rt":783.9549999916926,"stimulus":"Images/train_orig.png","key_press":65,"stim_onset":1583263195211,"block":0,"match_type":"non-match","image_category":"train","sound_category":"dog","audio_type":"sound","phase":"practice","trial_type":"image-keyboard-response","trial_index":28,"time_elapsed":2930303,"internal_node_id":"0.0-10.0-2.4","match_key":"l","participant_id":"40","correct":true},{"rt":null,"stimulus":"Sounds/correct.wav","key_press":null,"block":0,"trial_type":"audio-keyboard-response","trial_index":29,"time_elapsed":2932307,"internal_node_id":"0.0-10.0-3.4","match_key":"l","participant_id":"40"},{"rt":null,"stimulus":"Sounds/motorcycle_sound.wav","key_press":null,"block":0,"trial_type":"audio-keyboard-response","trial_index":30,"time_elapsed":2933425,"internal_node_id":"0.0-10.0-0.5","match_key":"l","participant_id":"40"},{"rt":null,"stimulus":"<p style=\"font-size: 48px;\">+</p>","key_press":null,"block":0,"trial_type":"html-keyboard-response","trial_index":31,"time_elapsed":2934418,"internal_node_id":"0.0-10.0-1.5","match_key":"l","participant_id":"40"},{"rt":539.9900000193156,"stimulus":"Images/motorcycle_2.png","key_press":76,"stim_onset":1583263200112,"block":0,"match_type":"match","image_category":"motorcycle","sound_category":"motorcycle","audio_type":"sound","phase":"practice","trial_type":"image-keyboard-response","trial_index":32,"time_elapsed":2934960,"internal_node_id":"0.0-10.0-2.5","match_key":"l","participant_id":"40","correct":true},{"rt":null,"stimulus":"Sounds/correct.wav","key_press":null,"block":0,"trial_type":"audio-keyboard-response","trial_index":33,"time_elapsed":2936974,"internal_node_id":"0.0-10.0-3.5","match_key":"l","participant_id":"40"},{"rt":null,"stimulus":"Sounds/frog_label.wav","key_press":null,"block":0,"trial_type":"audio-keyboard-response","trial_index":34,"time_elapsed":2937845,"internal_node_id":"0.0-10.0-0.6","match_key":"l","participant_id":"40"},{"rt":null,"stimulus":"<p style=\"font-size: 48px;\">+</p>","key_press":null,"block":0,"trial_type":"html-keyboard-response","trial_index":35,"time_elapsed":2938835,"internal_node_id":"0.0-10.0-1.6","match_key":"l","participant_id":"40"},{"rt":891.2349999882281,"stimulus":"Images/frog_orig.png","key_press":76,"stim_onset":1583263204528,"block":0,"match_type":"match","image_category":"frog","sound_category":"frog","audio_type":"label","phase":"practice","trial_type":"image-keyboard-response","trial_index":36,"time_elapsed":2939728,"internal_node_id":"0.0-10.0-2.6","match_key":"l","participant_id":"40","correct":true},{"rt":null,"stimulus":"Sounds/correct.wav","key_press":null,"block":0,"trial_type":"audio-keyboard-response","trial_index":37,"time_elapsed":2941741,"internal_node_id":"0.0-10.0-3.6","match_key":"l","participant_id":"40"},{"rt":null,"stimulus":"Sounds/motorcycle_sound.wav","key_press":null,"block":0,"trial_type":"audio-keyboard-response","trial_index":38,"time_elapsed":2942825,"internal_node_id":"0.0-10.0-0.7","match_key":"l","participant_id":"40"},{"rt":null,"stimulus":"<p style=\"font-size: 48px;\">+</p>","key_press":null,"block":0,"trial_type":"html-keyboard-response","trial_index":39,"time_elapsed":2943818,"internal_node_id":"0.0-10.0-1.7","match_key":"l","participant_id":"40"},{"rt":723.8550000186078,"stimulus":"Images/gun_1.png","key_press":65,"stim_onset":1583263209512,"block":0,"match_type":"non-match","image_category":"gun","sound_category":"motorcycle","audio_type":"sound","phase":"practice","trial_type":"image-keyboard-response","trial_index":40,"time_elapsed":2944544,"internal_node_id":"0.0-10.0-2.7","match_key":"l","participant_id":"40","correct":true},{"rt":null,"stimulus":"Sounds/correct.wav","key_press":null,"block":0,"trial_type":"audio-keyboard-response","trial_index":41,"time_elapsed":2946555,"internal_node_id":"0.0-10.0-3.7","match_key":"l","participant_id":"40"},{"rt":null,"stimulus":"Sounds/whistle_sound.wav","key_press":null,"block":0,"trial_type":"audio-keyboard-response","trial_index":42,"time_elapsed":2947245,"internal_node_id":"0.0-10.0-0.8","match_key":"l","participant_id":"40"},{"rt":null,"stimulus":"<p style=\"font-size: 48px;\">+</p>","key_press":null,"block":0,"trial_type":"html-keyboard-response","trial_index":43,"time_elapsed":2948235,"internal_node_id":"0.0-10.0-1.8","match_key":"l","participant_id":"40"},{"rt":659.2850000020117,"stimulus":"Images/cat_cartoon.png","key_press":65,"stim_onset":1583263213928,"block":0,"match_type":"non-match","image_category":"cat","sound_category":"whistle","audio_type":"sound","phase":"practice","trial_type":"image-keyboard-response","trial_index":44,"time_elapsed":2948896,"internal_node_id":"0.0-10.0-2.8","match_key":"l","participant_id":"40","correct":true},{"rt":null,"stimulus":"Sounds/correct.wav","key_press":null,"block":0,"trial_type":"audio-keyboard-response","trial_index":45,"time_elapsed":2950906,"internal_node_id":"0.0-10.0-3.8","match_key":"l","participant_id":"40"},{"rt":null,"stimulus":"Sounds/car_sound.wav","key_press":null,"block":0,"trial_type":"audio-keyboard-response","trial_index":46,"time_elapsed":2951965,"internal_node_id":"0.0-10.0-0.9","match_key":"l","participant_id":"40"},{"rt":null,"stimulus":"<p style=\"font-size: 48px;\">+</p>","key_press":null,"block":0,"trial_type":"html-keyboard-response","trial_index":47,"time_elapsed":2952968,"internal_node_id":"0.0-10.0-1.9","match_key":"l","participant_id":"40"},{"rt":694.0250000040978,"stimulus":"Images/frog_2.png","key_press":65,"stim_onset":1583263218662,"block":0,"match_type":"non-match","image_category":"frog","sound_category":"car","audio_type":"sound","phase":"practice","trial_type":"image-keyboard-response","trial_index":48,"time_elapsed":2953669,"internal_node_id":"0.0-10.0-2.9","match_key":"l","participant_id":"40","correct":true},{"rt":null,"stimulus":"Sounds/correct.wav","key_press":null,"block":0,"trial_type":"audio-keyboard-response","trial_index":49,"time_elapsed":2955677,"internal_node_id":"0.0-10.0-3.9","match_key":"l","participant_id":"40"},{"rt":23639.514999988023,"stimulus":"<p>The rest of the experiment is divided into five blocks with 100 trials in each block. It will take about 45 minutes to complete.</p><p>The experimenter will be in the outer room and you can communicate with them through the monitor if you have any questions or wish to stop the experiment.</p>","key_press":32,"trial_type":"html-keyboard-response","trial_index":50,"time_elapsed":2979317,"internal_node_id":"0.0-11.0","match_key":"l","participant_id":"40"},{"rt":3198.3649999895133,"stimulus":"<p>Remember, please try not to move or blink your eyes during the presentation of the images. </p><p>At the end of the experiment, we will show you your scores on the task so you can see how you did.</p><p>The experiment will start on the next screen.</p>","key_press":32,"trial_type":"html-keyboard-response","trial_index":51,"time_elapsed":2982517,"internal_node_id":"0.0-12.0","match_key":"l","participant_id":"40"},{"rt":null,"stimulus":"Sounds/rooster_sound.wav","key_press":null,"block":1,"trial_type":"audio-keyboard-response","trial_index":52,"time_elapsed":2985235,"internal_node_id":"0.0-13.0-0.0","match_key":"l","participant_id":"40"},{"rt":null,"stimulus":"<p style=\"font-size: 48px;\">+</p>","key_press":null,"block":1,"trial_type":"html-keyboard-response","trial_index":53,"time_elapsed":2986224,"internal_node_id":"0.0-13.0-1.0","match_key":"l","participant_id":"40"},{"rt":787.3600000166334,"stimulus":"Images/whistle_2.png","key_press":65,"stim_onset":1583263251917,"block":1,"match_type":"non-match","image_category":"whistle","sound_category":"rooster","audio_type":"sound","phase":"test","trial_type":"image-keyboard-response","trial_index":54,"time_elapsed":2987013,"internal_node_id":"0.0-13.0-2.0","match_key":"l","participant_id":"40","correct":true},{"rt":null,"stimulus":"Sounds/correct.wav","key_press":null,"block":1,"trial_type":"audio-keyboard-response","trial_index":55,"time_elapsed":2989028,"internal_node_id":"0.0-13.0-3.0","match_key":"l","participant_id":"40"},{"rt":null,"stimulus":"Sounds/rooster_sound.wav","key_press":null,"block":1,"trial_type":"audio-keyboard-response","trial_index":56,"time_elapsed":2989696,"internal_node_id":"0.0-13.0-0.1","match_key":"l","participant_id":"40"},{"rt":null,"stimulus":"<p style=\"font-size: 48px;\">+</p>","key_press":null,"block":1,"trial_type":"html-keyboard-response","trial_index":57,"time_elapsed":2990691,"internal_node_id":"0.0-13.0-1.1","match_key":"l","participant_id":"40"},{"rt":528.7100000130013,"stimulus":"Images/rooster_1.png","key_press":76,"stim_onset":1583263256384,"block":1,"match_type":"match","image_category":"rooster","sound_category":"rooster","audio_type":"sound","phase":"test","trial_type":"image-keyboard-response","trial_index":58,"time_elapsed":2991221,"internal_node_id":"0.0-13.0-2.1","match_key":"l","participant_id":"40","correct":true},{"rt":null,"stimulus":"Sounds/correct.wav","key_press":null,"block":1,"trial_type":"audio-keyboard-response","trial_index":59,"time_elapsed":2993227,"internal_node_id":"0.0-13.0-3.1","match_key":"l","participant_id":"40"},{"rt":null,"stimulus":"Sounds/whistle_label.wav","key_press":null,"block":1,"trial_type":"audio-keyboard-response","trial_index":60,"time_elapsed":2993935,"internal_node_id":"0.0-13.0-0.2","match_key":"l","participant_id":"40"},{"rt":null,"stimulus":"<p style=\"font-size: 48px;\">+</p>","key_press":null,"block":1,"trial_type":"html-keyboard-response","trial_index":61,"time_elapsed":2994924,"internal_node_id":"0.0-13.0-1.2","match_key":"l","participant_id":"40"},{"rt":695.1249999981374,"stimulus":"Images/whistle_1.png","key_press":76,"stim_onset":1583263260617,"block":1,"match_type":"match","image_category":"whistle","sound_category":"whistle","audio_type":"label","phase":"test","trial_type":"image-keyboard-response","trial_index":62,"time_elapsed":2995621,"internal_node_id":"0.0-13.0-2.2","match_key":"l","participant_id":"40","correct":true},{"rt":null,"stimulus":"Sounds/correct.wav","key_press":null,"block":1,"trial_type":"audio-keyboard-response","trial_index":63,"time_elapsed":2997631,"internal_node_id":"0.0-13.0-3.2","match_key":"l","participant_id":"40"},{"rt":null,"stimulus":"Sounds/dog_label.wav","key_press":null,"block":1,"trial_type":"audio-keyboard-response","trial_index":64,"time_elapsed":2998295,"internal_node_id":"0.0-13.0-0.3","match_key":"l","participant_id":"40"},{"rt":null,"stimulus":"<p style=\"font-size: 48px;\">+</p>","key_press":null,"block":1,"trial_type":"html-keyboard-response","trial_index":65,"time_elapsed":2999291,"internal_node_id":"0.0-13.0-1.3","match_key":"l","participant_id":"40"},{"rt":488.5199999846518,"stimulus":"Images/dog_1.png","key_press":76,"stim_onset":1583263264984,"block":1,"match_type":"match","image_category":"dog","sound_category":"dog","audio_type":"label","phase":"test","trial_type":"image-keyboard-response","trial_index":66,"time_elapsed":2999781,"internal_node_id":"0.0-13.0-2.3","match_key":"l","participant_id":"40","correct":true},{"rt":null,"stimulus":"Sounds/correct.wav","key_press":null,"block":1,"trial_type":"audio-keyboard-response","trial_index":67,"time_elapsed":3001795,"internal_node_id":"0.0-13.0-3.3","match_key":"l","participant_id":"40"},{"rt":null,"stimulus":"Sounds/whistle_label.wav","key_press":null,"block":1,"trial_type":"audio-keyboard-response","trial_index":68,"time_elapsed":3002475,"internal_node_id":"0.0-13.0-0.4","match_key":"l","participant_id":"40"},{"rt":null,"stimulus":"<p style=\"font-size: 48px;\">+</p>","key_press":null,"block":1,"trial_type":"html-keyboard-response","trial_index":69,"time_elapsed":3003474,"internal_node_id":"0.0-13.0-1.4","match_key":"l","participant_id":"40"},{"rt":641.4949999889359,"stimulus":"Images/whistle_cartoon.png","key_press":76,"stim_onset":1583263269167,"block":1,"match_type":"match","image_category":"whistle","sound_category":"whistle","audio_type":"label","phase":"test","trial_type":"image-keyboard-response","trial_index":70,"time_elapsed":3004117,"internal_node_id":"0.0-13.0-2.4","match_key":"l","participant_id":"40","correct":true},{"rt":null,"stimulus":"Sounds/correct.wav","key_press":null,"block":1,"trial_type":"audio-keyboard-response","trial_index":71,"time_elapsed":3006127,"internal_node_id":"0.0-13.0-3.4","match_key":"l","participant_id":"40"},{"rt":null,"stimulus":"Sounds/cow_sound.wav","key_press":null,"block":1,"trial_type":"audio-keyboard-response","trial_index":72,"time_elapsed":3007155,"internal_node_id":"0.0-13.0-0.5","match_key":"l","participant_id":"40"},{"rt":null,"stimulus":"<p style=\"font-size: 48px;\">+</p>","key_press":null,"block":1,"trial_type":"html-keyboard-response","trial_index":73,"time_elapsed":3008158,"internal_node_id":"0.0-13.0-1.5","match_key":"l","participant_id":"40"},{"rt":549.9249999993481,"stimulus":"Images/dog_3.png","key_press":65,"stim_onset":1583263273851,"block":1,"match_type":"non-match","image_category":"dog","sound_category":"cow","audio_type":"sound","phase":"test","trial_type":"image-keyboard-response","trial_index":74,"time_elapsed":3008709,"internal_node_id":"0.0-13.0-2.5","match_key":"l","participant_id":"40","correct":true},{"rt":null,"stimulus":"Sounds/correct.wav","key_press":null,"block":1,"trial_type":"audio-keyboard-response","trial_index":75,"time_elapsed":3010715,"internal_node_id":"0.0-13.0-3.5","match_key":"l","participant_id":"40"},{"rt":null,"stimulus":"Sounds/motorcycle_sound.wav","key_press":null,"block":1,"trial_type":"audio-keyboard-response","trial_index":76,"time_elapsed":3011835,"internal_node_id":"0.0-13.0-0.6","match_key":"l","participant_id":"40"},{"rt":null,"stimulus":"<p style=\"font-size: 48px;\">+</p>","key_press":null,"block":1,"trial_type":"html-keyboard-response","trial_index":77,"time_elapsed":3012842,"internal_node_id":"0.0-13.0-1.6","match_key":"l","participant_id":"40"},{"rt":538.0799999982119,"stimulus":"Images/dog_orig.png","key_press":65,"stim_onset":1583263278534,"block":1,"match_type":"non-match","image_category":"dog","sound_category":"motorcycle","audio_type":"sound","phase":"test","trial_type":"image-keyboard-response","trial_index":78,"time_elapsed":3013381,"internal_node_id":"0.0-13.0-2.6","match_key":"l","participant_id":"40","correct":true},{"rt":null,"stimulus":"Sounds/correct.wav","key_press":null,"block":1,"trial_type":"audio-keyboard-response","trial_index":79,"time_elapsed":3015398,"internal_node_id":"0.0-13.0-3.6","match_key":"l","participant_id":"40"},{"rt":null,"stimulus":"Sounds/gun_sound.wav","key_press":null,"block":1,"trial_type":"audio-keyboard-response","trial_index":80,"time_elapsed":3015978,"internal_node_id":"0.0-13.0-0.7","match_key":"l","participant_id":"40"},{"rt":null,"stimulus":"<p style=\"font-size: 48px;\">+</p>","key_press":null,"block":1,"trial_type":"html-keyboard-response","trial_index":81,"time_elapsed":3016977,"internal_node_id":"0.0-13.0-1.7","match_key":"l","participant_id":"40"},{"rt":469.2299999874085,"stimulus":"Images/gun_orig.png","key_press":76,"stim_onset":1583263282671,"block":1,"match_type":"match","image_category":"gun","sound_category":"gun","audio_type":"sound","phase":"test","trial_type":"image-keyboard-response","trial_index":82,"time_elapsed":3017448,"internal_node_id":"0.0-13.0-2.7","match_key":"l","participant_id":"40","correct":true},{"rt":null,"stimulus":"Sounds/correct.wav","key_press":null,"block":1,"trial_type":"audio-keyboard-response","trial_index":83,"time_elapsed":3019465,"internal_node_id":"0.0-13.0-3.7","match_key":"l","participant_id":"40"},{"rt":null,"stimulus":"Sounds/cat_sound.wav","key_press":null,"block":1,"trial_type":"audio-keyboard-response","trial_index":84,"time_elapsed":3020298,"internal_node_id":"0.0-13.0-0.8","match_key":"l","participant_id":"40"},{"rt":null,"stimulus":"<p style=\"font-size: 48px;\">+</p>","key_press":null,"block":1,"trial_type":"html-keyboard-response","trial_index":85,"time_elapsed":3021294,"internal_node_id":"0.0-13.0-1.8","match_key":"l","participant_id":"40"},{"rt":536.2700000111945,"stimulus":"Images/motorcycle_orig.png","key_press":65,"stim_onset":1583263286987,"block":1,"match_type":"non-match","image_category":"motorcycle","sound_category":"cat","audio_type":"sound","phase":"test","trial_type":"image-keyboard-response","trial_index":86,"time_elapsed":3021831,"internal_node_id":"0.0-13.0-2.8","match_key":"l","participant_id":"40","correct":true},{"rt":null,"stimulus":"Sounds/correct.wav","key_press":null,"block":1,"trial_type":"audio-keyboard-response","trial_index":87,"time_elapsed":3023835,"internal_node_id":"0.0-13.0-3.8","match_key":"l","participant_id":"40"},{"rt":null,"stimulus":"Sounds/dog_label.wav","key_press":null,"block":1,"trial_type":"audio-keyboard-response","trial_index":88,"time_elapsed":3024498,"internal_node_id":"0.0-13.0-0.9","match_key":"l","participant_id":"40"},{"rt":null,"stimulus":"<p style=\"font-size: 48px;\">+</p>","key_press":null,"block":1,"trial_type":"html-keyboard-response","trial_index":89,"time_elapsed":3025494,"internal_node_id":"0.0-13.0-1.9","match_key":"l","participant_id":"40"},{"rt":592.4000000236556,"stimulus":"Images/cat_3.png","key_press":65,"stim_onset":1583263291187,"block":1,"match_type":"non-match","image_category":"cat","sound_category":"dog","audio_type":"label","phase":"test","trial_type":"image-keyboard-response","trial_index":90,"time_elapsed":3026088,"internal_node_id":"0.0-13.0-2.9","match_key":"l","participant_id":"40","correct":true},{"rt":null,"stimulus":"Sounds/correct.wav","key_press":null,"block":1,"trial_type":"audio-keyboard-response","trial_index":91,"time_elapsed":3028097,"internal_node_id":"0.0-13.0-3.9","match_key":"l","participant_id":"40"},{"rt":null,"stimulus":"Sounds/frog_sound.wav","key_press":null,"block":1,"trial_type":"audio-keyboard-response","trial_index":92,"time_elapsed":3028998,"internal_node_id":"0.0-13.0-0.10","match_key":"l","participant_id":"40"},{"rt":null,"stimulus":"<p style=\"font-size: 48px;\">+</p>","key_press":null,"block":1,"trial_type":"html-keyboard-response","trial_index":93,"time_elapsed":3029994,"internal_node_id":"0.0-13.0-1.10","match_key":"l","participant_id":"40"},{"rt":668.6350000090897,"stimulus":"Images/frog_3.png","key_press":76,"stim_onset":1583263295687,"block":1,"match_type":"match","image_category":"frog","sound_category":"frog","audio_type":"sound","phase":"test","trial_type":"image-keyboard-response","trial_index":94,"time_elapsed":3030664,"internal_node_id":"0.0-13.0-2.10","match_key":"l","participant_id":"40","correct":true},{"rt":null,"stimulus":"Sounds/correct.wav","key_press":null,"block":1,"trial_type":"audio-keyboard-response","trial_index":95,"time_elapsed":3032681,"internal_node_id":"0.0-13.0-3.10","match_key":"l","participant_id":"40"},{"rt":null,"stimulus":"Sounds/car_label.wav","key_press":null,"block":1,"trial_type":"audio-keyboard-response","trial_index":96,"time_elapsed":3033758,"internal_node_id":"0.0-13.0-0.11","match_key":"l","participant_id":"40"},{"rt":null,"stimulus":"<p style=\"font-size: 48px;\">+</p>","key_press":null,"block":1,"trial_type":"html-keyboard-response","trial_index":97,"time_elapsed":3034761,"internal_node_id":"0.0-13.0-1.11","match_key":"l","participant_id":"40"},{"rt":509.59999999031425,"stimulus":"Images/rooster_3.png","key_press":65,"stim_onset":1583263300454,"block":1,"match_type":"non-match","image_category":"rooster","sound_category":"car","audio_type":"label","phase":"test","trial_type":"image-keyboard-response","trial_index":98,"time_elapsed":3035272,"internal_node_id":"0.0-13.0-2.11","match_key":"l","participant_id":"40","correct":true},{"rt":null,"stimulus":"Sounds/correct.wav","key_press":null,"block":1,"trial_type":"audio-keyboard-response","trial_index":99,"time_elapsed":3037280,"internal_node_id":"0.0-13.0-3.11","match_key":"l","participant_id":"40"},{"rt":null,"stimulus":"Sounds/frog_sound.wav","key_press":null,"block":1,"trial_type":"audio-keyboard-response","trial_index":100,"time_elapsed":3038178,"internal_node_id":"0.0-13.0-0.12","match_key":"l","participant_id":"40"},{"rt":null,"stimulus":"<p style=\"font-size: 48px;\">+</p>","key_press":null,"block":1,"trial_type":"html-keyboard-response","trial_index":101,"time_elapsed":3039178,"internal_node_id":"0.0-13.0-1.12","match_key":"l","participant_id":"40"},{"rt":764.885000011418,"stimulus":"Images/cow_orig.png","key_press":65,"stim_onset":1583263304871,"block":1,"match_type":"non-match","image_category":"cow","sound_category":"frog","audio_type":"sound","phase":"test","trial_type":"image-keyboard-response","trial_index":102,"time_elapsed":3039944,"internal_node_id":"0.0-13.0-2.12","match_key":"l","participant_id":"40","correct":true},{"rt":null,"stimulus":"Sounds/correct.wav","key_press":null,"block":1,"trial_type":"audio-keyboard-response","trial_index":103,"time_elapsed":3041951,"internal_node_id":"0.0-13.0-3.12","match_key":"l","participant_id":"40"},{"rt":null,"stimulus":"Sounds/frog_sound.wav","key_press":null,"block":1,"trial_type":"audio-keyboard-response","trial_index":104,"time_elapsed":3042838,"internal_node_id":"0.0-13.0-0.13","match_key":"l","participant_id":"40"},{"rt":null,"stimulus":"<p style=\"font-size: 48px;\">+</p>","key_press":null,"block":1,"trial_type":"html-keyboard-response","trial_index":105,"time_elapsed":3043828,"internal_node_id":"0.0-13.0-1.13","match_key":"l","participant_id":"40"},{"rt":643.2399999760091,"stimulus":"Images/frog_orig.png","key_press":76,"stim_onset":1583263309521,"block":1,"match_type":"match","image_category":"frog","sound_category":"frog","audio_type":"sound","phase":"test","trial_type":"image-keyboard-response","trial_index":106,"time_elapsed":3044472,"internal_node_id":"0.0-13.0-2.13","match_key":"l","participant_id":"40","correct":true},{"rt":null,"stimulus":"Sounds/correct.wav","key_press":null,"block":1,"trial_type":"audio-keyboard-response","trial_index":107,"time_elapsed":3046481,"internal_node_id":"0.0-13.0-3.13","match_key":"l","participant_id":"40"},{"rt":null,"stimulus":"Sounds/car_label.wav","key_press":null,"block":1,"trial_type":"audio-keyboard-response","trial_index":108,"time_elapsed":3047538,"internal_node_id":"0.0-13.0-0.14","match_key":"l","participant_id":"40"},{"rt":null,"stimulus":"<p style=\"font-size: 48px;\">+</p>","key_press":null,"block":1,"trial_type":"html-keyboard-response","trial_index":109,"time_elapsed":3048545,"internal_node_id":"0.0-13.0-1.14","match_key":"l","participant_id":"40"},{"rt":565.730000001844,"stimulus":"Images/car_2.png","key_press":76,"stim_onset":1583263314238,"block":1,"match_type":"match","image_category":"car","sound_category":"car","audio_type":"label","phase":"test","trial_type":"image-keyboard-response","trial_index":110,"time_elapsed":3049112,"internal_node_id":"0.0-13.0-2.14","match_key":"l","participant_id":"40","correct":true},{"rt":null,"stimulus":"Sounds/correct.wav","key_press":null,"block":1,"trial_type":"audio-keyboard-response","trial_index":111,"time_elapsed":3051116,"internal_node_id":"0.0-13.0-3.14","match_key":"l","participant_id":"40"},{"rt":null,"stimulus":"Sounds/cow_label.wav","key_press":null,"block":1,"trial_type":"audio-keyboard-response","trial_index":112,"time_elapsed":3052138,"internal_node_id":"0.0-13.0-0.15","match_key":"l","participant_id":"40"},{"rt":null,"stimulus":"<p style=\"font-size: 48px;\">+</p>","key_press":null,"block":1,"trial_type":"html-keyboard-response","trial_index":113,"time_elapsed":3053128,"internal_node_id":"0.0-13.0-1.15","match_key":"l","participant_id":"40"},{"rt":494.5350000052713,"stimulus":"Images/cow_1.png","key_press":76,"stim_onset":1583263318821,"block":1,"match_type":"match","image_category":"cow","sound_category":"cow","audio_type":"label","phase":"test","trial_type":"image-keyboard-response","trial_index":114,"time_elapsed":3053623,"internal_node_id":"0.0-13.0-2.15","match_key":"l","participant_id":"40","correct":true},{"rt":null,"stimulus":"Sounds/correct.wav","key_press":null,"block":1,"trial_type":"audio-keyboard-response","trial_index":115,"time_elapsed":3055633,"internal_node_id":"0.0-13.0-3.15","match_key":"l","participant_id":"40"},{"rt":null,"stimulus":"Sounds/whistle_sound.wav","key_press":null,"block":1,"trial_type":"audio-keyboard-response","trial_index":116,"time_elapsed":3056338,"internal_node_id":"0.0-13.0-0.16","match_key":"l","participant_id":"40"},{"rt":null,"stimulus":"<p style=\"font-size: 48px;\">+</p>","key_press":null,"block":1,"trial_type":"html-keyboard-response","trial_index":117,"time_elapsed":3057328,"internal_node_id":"0.0-13.0-1.16","match_key":"l","participant_id":"40"},{"rt":566.9750000233762,"stimulus":"Images/whistle_2.png","key_press":76,"stim_onset":1583263323021,"block":1,"match_type":"match","image_category":"whistle","sound_category":"whistle","audio_type":"sound","phase":"test","trial_type":"image-keyboard-response","trial_index":118,"time_elapsed":3057896,"internal_node_id":"0.0-13.0-2.16","match_key":"l","participant_id":"40","correct":true},{"rt":null,"stimulus":"Sounds/correct.wav","key_press":null,"block":1,"trial_type":"audio-keyboard-response","trial_index":119,"time_elapsed":3059899,"internal_node_id":"0.0-13.0-3.16","match_key":"l","participant_id":"40"},{"rt":null,"stimulus":"Sounds/rooster_sound.wav","key_press":null,"block":1,"trial_type":"audio-keyboard-response","trial_index":120,"time_elapsed":3060598,"internal_node_id":"0.0-13.0-0.17","match_key":"l","participant_id":"40"},{"rt":null,"stimulus":"<p style=\"font-size: 48px;\">+</p>","key_press":null,"block":1,"trial_type":"html-keyboard-response","trial_index":121,"time_elapsed":3061594,"internal_node_id":"0.0-13.0-1.17","match_key":"l","participant_id":"40"},{"rt":556.089999998454,"stimulus":"Images/car_cartoon.png","key_press":65,"stim_onset":1583263327288,"block":1,"match_type":"non-match","image_category":"car","sound_category":"rooster","audio_type":"sound","phase":"test","trial_type":"image-keyboard-response","trial_index":122,"time_elapsed":3062152,"internal_node_id":"0.0-13.0-2.17","match_key":"l","participant_id":"40","correct":true},{"rt":null,"stimulus":"Sounds/correct.wav","key_press":null,"block":1,"trial_type":"audio-keyboard-response","trial_index":123,"time_elapsed":3064165,"internal_node_id":"0.0-13.0-3.17","match_key":"l","participant_id":"40"},{"rt":null,"stimulus":"Sounds/rooster_sound.wav","key_press":null,"block":1,"trial_type":"audio-keyboard-response","trial_index":124,"time_elapsed":3064838,"internal_node_id":"0.0-13.0-0.18","match_key":"l","participant_id":"40"},{"rt":null,"stimulus":"<p style=\"font-size: 48px;\">+</p>","key_press":null,"block":1,"trial_type":"html-keyboard-response","trial_index":125,"time_elapsed":3065828,"internal_node_id":"0.0-13.0-1.18","match_key":"l","participant_id":"40"},{"rt":482.7349999975413,"stimulus":"Images/rooster_orig.png","key_press":76,"stim_onset":1583263331521,"block":1,"match_type":"match","image_category":"rooster","sound_category":"rooster","audio_type":"sound","phase":"test","trial_type":"image-keyboard-response","trial_index":126,"time_elapsed":3066312,"internal_node_id":"0.0-13.0-2.18","match_key":"l","participant_id":"40","correct":true},{"rt":null,"stimulus":"Sounds/correct.wav","key_press":null,"block":1,"trial_type":"audio-keyboard-response","trial_index":127,"time_elapsed":3068316,"internal_node_id":"0.0-13.0-3.18","match_key":"l","participant_id":"40"},{"rt":null,"stimulus":"Sounds/train_sound.wav","key_press":null,"block":1,"trial_type":"audio-keyboard-response","trial_index":128,"time_elapsed":3069618,"internal_node_id":"0.0-13.0-0.19","match_key":"l","participant_id":"40"},{"rt":null,"stimulus":"<p style=\"font-size: 48px;\">+</p>","key_press":null,"block":1,"trial_type":"html-keyboard-response","trial_index":129,"time_elapsed":3070611,"internal_node_id":"0.0-13.0-1.19","match_key":"l","participant_id":"40"},{"rt":691.4300000062212,"stimulus":"Images/whistle_1.png","key_press":65,"stim_onset":1583263336304,"block":1,"match_type":"non-match","image_category":"whistle","sound_category":"train","audio_type":"sound","phase":"test","trial_type":"image-keyboard-response","trial_index":130,"time_elapsed":3071304,"internal_node_id":"0.0-13.0-2.19","match_key":"l","participant_id":"40","correct":true},{"rt":null,"stimulus":"Sounds/correct.wav","key_press":null,"block":1,"trial_type":"audio-keyboard-response","trial_index":131,"time_elapsed":3073316,"internal_node_id":"0.0-13.0-3.19","match_key":"l","participant_id":"40"},{"rt":null,"stimulus":"Sounds/car_sound.wav","key_press":null,"block":1,"trial_type":"audio-keyboard-response","trial_index":132,"time_elapsed":3074398,"internal_node_id":"0.0-13.0-0.20","match_key":"l","participant_id":"40"},{"rt":null,"stimulus":"<p style=\"font-size: 48px;\">+</p>","key_press":null,"block":1,"trial_type":"html-keyboard-response","trial_index":133,"time_elapsed":3075395,"internal_node_id":"0.0-13.0-1.20","match_key":"l","participant_id":"40"},{"rt":500.04000001354143,"stimulus":"Images/frog_2.png","key_press":65,"stim_onset":1583263341088,"block":1,"match_type":"non-match","image_category":"frog","sound_category":"car","audio_type":"sound","phase":"test","trial_type":"image-keyboard-response","trial_index":134,"time_elapsed":3075896,"internal_node_id":"0.0-13.0-2.20","match_key":"l","participant_id":"40","correct":true},{"rt":null,"stimulus":"Sounds/correct.wav","key_press":null,"block":1,"trial_type":"audio-keyboard-response","trial_index":135,"time_elapsed":3077900,"internal_node_id":"0.0-13.0-3.20","match_key":"l","participant_id":"40"},{"rt":null,"stimulus":"Sounds/cow_label.wav","key_press":null,"block":1,"trial_type":"audio-keyboard-response","trial_index":136,"time_elapsed":3078919,"internal_node_id":"0.0-13.0-0.21","match_key":"l","participant_id":"40"},{"rt":null,"stimulus":"<p style=\"font-size: 48px;\">+</p>","key_press":null,"block":1,"trial_type":"html-keyboard-response","trial_index":137,"time_elapsed":3079912,"internal_node_id":"0.0-13.0-1.21","match_key":"l","participant_id":"40"},{"rt":431.08999999798834,"stimulus":"Images/rooster_2.png","key_press":65,"stim_onset":1583263345605,"block":1,"match_type":"non-match","image_category":"rooster","sound_category":"cow","audio_type":"label","phase":"test","trial_type":"image-keyboard-response","trial_index":138,"time_elapsed":3080344,"internal_node_id":"0.0-13.0-2.21","match_key":"l","participant_id":"40","correct":true},{"rt":null,"stimulus":"Sounds/correct.wav","key_press":null,"block":1,"trial_type":"audio-keyboard-response","trial_index":139,"time_elapsed":3082354,"internal_node_id":"0.0-13.0-3.21","match_key":"l","participant_id":"40"},{"rt":null,"stimulus":"Sounds/train_label.wav","key_press":null,"block":1,"trial_type":"audio-keyboard-response","trial_index":140,"time_elapsed":3083639,"internal_node_id":"0.0-13.0-0.22","match_key":"l","participant_id":"40"},{"rt":null,"stimulus":"<p style=\"font-size: 48px;\">+</p>","key_press":null,"block":1,"trial_type":"html-keyboard-response","trial_index":141,"time_elapsed":3084628,"internal_node_id":"0.0-13.0-1.22","match_key":"l","participant_id":"40"},{"rt":658.8200000114739,"stimulus":"Images/car_2.png","key_press":65,"stim_onset":1583263350322,"block":1,"match_type":"non-match","image_category":"car","sound_category":"train","audio_type":"label","phase":"test","trial_type":"image-keyboard-response","trial_index":142,"time_elapsed":3085288,"internal_node_id":"0.0-13.0-2.22","match_key":"l","participant_id":"40","correct":true},{"rt":null,"stimulus":"Sounds/correct.wav","key_press":null,"block":1,"trial_type":"audio-keyboard-response","trial_index":143,"time_elapsed":3087300,"internal_node_id":"0.0-13.0-3.22","match_key":"l","participant_id":"40"},{"rt":null,"stimulus":"Sounds/whistle_sound.wav","key_press":null,"block":1,"trial_type":"audio-keyboard-response","trial_index":144,"time_elapsed":3087998,"internal_node_id":"0.0-13.0-0.23","match_key":"l","participant_id":"40"},{"rt":null,"stimulus":"<p style=\"font-size: 48px;\">+</p>","key_press":null,"block":1,"trial_type":"html-keyboard-response","trial_index":145,"time_elapsed":3088995,"internal_node_id":"0.0-13.0-1.23","match_key":"l","participant_id":"40"},{"rt":595.7350000096485,"stimulus":"Images/gun_orig.png","key_press":65,"stim_onset":1583263354688,"block":1,"match_type":"non-match","image_category":"gun","sound_category":"whistle","audio_type":"sound","phase":"test","trial_type":"image-keyboard-response","trial_index":146,"time_elapsed":3089592,"internal_node_id":"0.0-13.0-2.23","match_key":"l","participant_id":"40","correct":true},{"rt":null,"stimulus":"Sounds/correct.wav","key_press":null,"block":1,"trial_type":"audio-keyboard-response","trial_index":147,"time_elapsed":3091603,"internal_node_id":"0.0-13.0-3.23","match_key":"l","participant_id":"40"},{"rt":null,"stimulus":"Sounds/frog_label.wav","key_press":null,"block":1,"trial_type":"audio-keyboard-response","trial_index":148,"time_elapsed":3092499,"internal_node_id":"0.0-13.0-0.24","match_key":"l","participant_id":"40"},{"rt":null,"stimulus":"<p style=\"font-size: 48px;\">+</p>","key_press":null,"block":1,"trial_type":"html-keyboard-response","trial_index":149,"time_elapsed":3093495,"internal_node_id":"0.0-13.0-1.24","match_key":"l","participant_id":"40"},{"rt":511.7299999985844,"stimulus":"Images/gun_1.png","key_press":65,"stim_onset":1583263359188,"block":1,"match_type":"non-match","image_category":"gun","sound_category":"frog","audio_type":"label","phase":"test","trial_type":"image-keyboard-response","trial_index":150,"time_elapsed":3094008,"internal_node_id":"0.0-13.0-2.24","match_key":"l","participant_id":"40","correct":true},{"rt":null,"stimulus":"Sounds/correct.wav","key_press":null,"block":1,"trial_type":"audio-keyboard-response","trial_index":151,"time_elapsed":3096017,"internal_node_id":"0.0-13.0-3.24","match_key":"l","participant_id":"40"},{"rt":null,"stimulus":"Sounds/cat_sound.wav","key_press":null,"block":1,"trial_type":"audio-keyboard-response","trial_index":152,"time_elapsed":3096859,"internal_node_id":"0.0-13.0-0.25","match_key":"l","participant_id":"40"},{"rt":null,"stimulus":"<p style=\"font-size: 48px;\">+</p>","key_press":null,"block":1,"trial_type":"html-keyboard-response","trial_index":153,"time_elapsed":3097862,"internal_node_id":"0.0-13.0-1.25","match_key":"l","participant_id":"40"},{"rt":432.96999999461696,"stimulus":"Images/cat_3.png","key_press":76,"stim_onset":1583263363555,"block":1,"match_type":"match","image_category":"cat","sound_category":"cat","audio_type":"sound","phase":"test","trial_type":"image-keyboard-response","trial_index":154,"time_elapsed":3098296,"internal_node_id":"0.0-13.0-2.25","match_key":"l","participant_id":"40","correct":true},{"rt":null,"stimulus":"Sounds/correct.wav","key_press":null,"block":1,"trial_type":"audio-keyboard-response","trial_index":155,"time_elapsed":3100305,"internal_node_id":"0.0-13.0-3.25","match_key":"l","participant_id":"40"},{"rt":null,"stimulus":"Sounds/car_label.wav","key_press":null,"block":1,"trial_type":"audio-keyboard-response","trial_index":156,"time_elapsed":3101379,"internal_node_id":"0.0-13.0-0.26","match_key":"l","participant_id":"40"},{"rt":null,"stimulus":"<p style=\"font-size: 48px;\">+</p>","key_press":null,"block":1,"trial_type":"html-keyboard-response","trial_index":157,"time_elapsed":3102379,"internal_node_id":"0.0-13.0-1.26","match_key":"l","participant_id":"40"},{"rt":844.2649999926798,"stimulus":"Images/cat_orig.png","key_press":65,"stim_onset":1583263368072,"block":1,"match_type":"non-match","image_category":"cat","sound_category":"car","audio_type":"label","phase":"test","trial_type":"image-keyboard-response","trial_index":158,"time_elapsed":3103224,"internal_node_id":"0.0-13.0-2.26","match_key":"l","participant_id":"40","correct":true},{"rt":null,"stimulus":"Sounds/correct.wav","key_press":null,"block":1,"trial_type":"audio-keyboard-response","trial_index":159,"time_elapsed":3105232,"internal_node_id":"0.0-13.0-3.26","match_key":"l","participant_id":"40"},{"rt":null,"stimulus":"Sounds/cat_sound.wav","key_press":null,"block":1,"trial_type":"audio-keyboard-response","trial_index":160,"time_elapsed":3106039,"internal_node_id":"0.0-13.0-0.27","match_key":"l","participant_id":"40"},{"rt":null,"stimulus":"<p style=\"font-size: 48px;\">+</p>","key_press":null,"block":1,"trial_type":"html-keyboard-response","trial_index":161,"time_elapsed":3107029,"internal_node_id":"0.0-13.0-1.27","match_key":"l","participant_id":"40"},{"rt":594.4099999908358,"stimulus":"Images/cat_cartoon.png","key_press":76,"stim_onset":1583263372722,"block":1,"match_type":"match","image_category":"cat","sound_category":"cat","audio_type":"sound","phase":"test","trial_type":"image-keyboard-response","trial_index":162,"time_elapsed":3107624,"internal_node_id":"0.0-13.0-2.27","match_key":"l","participant_id":"40","correct":true},{"rt":null,"stimulus":"Sounds/correct.wav","key_press":null,"block":1,"trial_type":"audio-keyboard-response","trial_index":163,"time_elapsed":3109634,"internal_node_id":"0.0-13.0-3.27","match_key":"l","participant_id":"40"},{"rt":null,"stimulus":"Sounds/frog_sound.wav","key_press":null,"block":1,"trial_type":"audio-keyboard-response","trial_index":164,"time_elapsed":3110539,"internal_node_id":"0.0-13.0-0.28","match_key":"l","participant_id":"40"},{"rt":null,"stimulus":"<p style=\"font-size: 48px;\">+</p>","key_press":null,"block":1,"trial_type":"html-keyboard-response","trial_index":165,"time_elapsed":3111529,"internal_node_id":"0.0-13.0-1.28","match_key":"l","participant_id":"40"},{"rt":750.3900000010617,"stimulus":"Images/train_2.png","key_press":65,"stim_onset":1583263377222,"block":1,"match_type":"non-match","image_category":"train","sound_category":"frog","audio_type":"sound","phase":"test","trial_type":"image-keyboard-response","trial_index":166,"time_elapsed":3112280,"internal_node_id":"0.0-13.0-2.28","match_key":"l","participant_id":"40","correct":true},{"rt":null,"stimulus":"Sounds/correct.wav","key_press":null,"block":1,"trial_type":"audio-keyboard-response","trial_index":167,"time_elapsed":3114284,"internal_node_id":"0.0-13.0-3.28","match_key":"l","participant_id":"40"},{"rt":null,"stimulus":"Sounds/car_label.wav","key_press":null,"block":1,"trial_type":"audio-keyboard-response","trial_index":168,"time_elapsed":3115339,"internal_node_id":"0.0-13.0-0.29","match_key":"l","participant_id":"40"},{"rt":null,"stimulus":"<p style=\"font-size: 48px;\">+</p>","key_press":null,"block":1,"trial_type":"html-keyboard-response","trial_index":169,"time_elapsed":3116329,"internal_node_id":"0.0-13.0-1.29","match_key":"l","participant_id":"40"},{"rt":542.1349999960512,"stimulus":"Images/whistle_orig.png","key_press":65,"stim_onset":1583263382022,"block":1,"match_type":"non-match","image_category":"whistle","sound_category":"car","audio_type":"label","phase":"test","trial_type":"image-keyboard-response","trial_index":170,"time_elapsed":3116872,"internal_node_id":"0.0-13.0-2.29","match_key":"l","participant_id":"40","correct":true},{"rt":null,"stimulus":"Sounds/correct.wav","key_press":null,"block":1,"trial_type":"audio-keyboard-response","trial_index":171,"time_elapsed":3118883,"internal_node_id":"0.0-13.0-3.29","match_key":"l","participant_id":"40"},{"rt":null,"stimulus":"Sounds/motorcycle_label.wav","key_press":null,"block":1,"trial_type":"audio-keyboard-response","trial_index":172,"time_elapsed":3120019,"internal_node_id":"0.0-13.0-0.30","match_key":"l","participant_id":"40"},{"rt":null,"stimulus":"<p style=\"font-size: 48px;\">+</p>","key_press":null,"block":1,"trial_type":"html-keyboard-response","trial_index":173,"time_elapsed":3121012,"internal_node_id":"0.0-13.0-1.30","match_key":"l","participant_id":"40"},{"rt":595.484999998007,"stimulus":"Images/whistle_3.png","key_press":65,"stim_onset":1583263386705,"block":1,"match_type":"non-match","image_category":"whistle","sound_category":"motorcycle","audio_type":"label","phase":"test","trial_type":"image-keyboard-response","trial_index":174,"time_elapsed":3121609,"internal_node_id":"0.0-13.0-2.30","match_key":"l","participant_id":"40","correct":true},{"rt":null,"stimulus":"Sounds/correct.wav","key_press":null,"block":1,"trial_type":"audio-keyboard-response","trial_index":175,"time_elapsed":3123619,"internal_node_id":"0.0-13.0-3.30","match_key":"l","participant_id":"40"},{"rt":null,"stimulus":"Sounds/train_sound.wav","key_press":null,"block":1,"trial_type":"audio-keyboard-response","trial_index":176,"time_elapsed":3124919,"internal_node_id":"0.0-13.0-0.31","match_key":"l","participant_id":"40"},{"rt":null,"stimulus":"<p style=\"font-size: 48px;\">+</p>","key_press":null,"block":1,"trial_type":"html-keyboard-response","trial_index":177,"time_elapsed":3125912,"internal_node_id":"0.0-13.0-1.31","match_key":"l","participant_id":"40"},{"rt":558.8700000075623,"stimulus":"Images/train_orig.png","key_press":76,"stim_onset":1583263391606,"block":1,"match_type":"match","image_category":"train","sound_category":"train","audio_type":"sound","phase":"test","trial_type":"image-keyboard-response","trial_index":178,"time_elapsed":3126472,"internal_node_id":"0.0-13.0-2.31","match_key":"l","participant_id":"40","correct":true},{"rt":null,"stimulus":"Sounds/correct.wav","key_press":null,"block":1,"trial_type":"audio-keyboard-response","trial_index":179,"time_elapsed":3128482,"internal_node_id":"0.0-13.0-3.31","match_key":"l","participant_id":"40"},{"rt":null,"stimulus":"Sounds/dog_sound.wav","key_press":null,"block":1,"trial_type":"audio-keyboard-response","trial_index":180,"time_elapsed":3129199,"internal_node_id":"0.0-13.0-0.32","match_key":"l","participant_id":"40"},{"rt":null,"stimulus":"<p style=\"font-size: 48px;\">+</p>","key_press":null,"block":1,"trial_type":"html-keyboard-response","trial_index":181,"time_elapsed":3130196,"internal_node_id":"0.0-13.0-1.32","match_key":"l","participant_id":"40"},{"rt":515.2200000011362,"stimulus":"Images/cow_cartoon.png","key_press":65,"stim_onset":1583263395889,"block":1,"match_type":"non-match","image_category":"cow","sound_category":"dog","audio_type":"sound","phase":"test","trial_type":"image-keyboard-response","trial_index":182,"time_elapsed":3130712,"internal_node_id":"0.0-13.0-2.32","match_key":"l","participant_id":"40","correct":true},{"rt":null,"stimulus":"Sounds/correct.wav","key_press":null,"block":1,"trial_type":"audio-keyboard-response","trial_index":183,"time_elapsed":3132717,"internal_node_id":"0.0-13.0-3.32","match_key":"l","participant_id":"40"},{"rt":null,"stimulus":"Sounds/cow_label.wav","key_press":null,"block":1,"trial_type":"audio-keyboard-response","trial_index":184,"time_elapsed":3133739,"internal_node_id":"0.0-13.0-0.33","match_key":"l","participant_id":"40"},{"rt":null,"stimulus":"<p style=\"font-size: 48px;\">+</p>","key_press":null,"block":1,"trial_type":"html-keyboard-response","trial_index":185,"time_elapsed":3134729,"internal_node_id":"0.0-13.0-1.33","match_key":"l","participant_id":"40"},{"rt":509.9599999957718,"stimulus":"Images/cow_cartoon.png","key_press":76,"stim_onset":1583263400422,"block":1,"match_type":"match","image_category":"cow","sound_category":"cow","audio_type":"label","phase":"test","trial_type":"image-keyboard-response","trial_index":186,"time_elapsed":3135240,"internal_node_id":"0.0-13.0-2.33","match_key":"l","participant_id":"40","correct":true},{"rt":null,"stimulus":"Sounds/correct.wav","key_press":null,"block":1,"trial_type":"audio-keyboard-response","trial_index":187,"time_elapsed":3137250,"internal_node_id":"0.0-13.0-3.33","match_key":"l","participant_id":"40"},{"rt":null,"stimulus":"Sounds/whistle_label.wav","key_press":null,"block":1,"trial_type":"audio-keyboard-response","trial_index":188,"time_elapsed":3137939,"internal_node_id":"0.0-13.0-0.34","match_key":"l","participant_id":"40"},{"rt":null,"stimulus":"<p style=\"font-size: 48px;\">+</p>","key_press":null,"block":1,"trial_type":"html-keyboard-response","trial_index":189,"time_elapsed":3138929,"internal_node_id":"0.0-13.0-1.34","match_key":"l","participant_id":"40"},{"rt":566.1499999989755,"stimulus":"Images/whistle_3.png","key_press":76,"stim_onset":1583263404623,"block":1,"match_type":"match","image_category":"whistle","sound_category":"whistle","audio_type":"label","phase":"test","trial_type":"image-keyboard-response","trial_index":190,"time_elapsed":3139497,"internal_node_id":"0.0-13.0-2.34","match_key":"l","participant_id":"40","correct":true},{"rt":null,"stimulus":"Sounds/correct.wav","key_press":null,"block":1,"trial_type":"audio-keyboard-response","trial_index":191,"time_elapsed":3141501,"internal_node_id":"0.0-13.0-3.34","match_key":"l","participant_id":"40"},{"rt":null,"stimulus":"Sounds/motorcycle_sound.wav","key_press":null,"block":1,"trial_type":"audio-keyboard-response","trial_index":192,"time_elapsed":3142619,"internal_node_id":"0.0-13.0-0.35","match_key":"l","participant_id":"40"},{"rt":null,"stimulus":"<p style=\"font-size: 48px;\">+</p>","key_press":null,"block":1,"trial_type":"html-keyboard-response","trial_index":193,"time_elapsed":3143613,"internal_node_id":"0.0-13.0-1.35","match_key":"l","participant_id":"40"},{"rt":376.7899999804795,"stimulus":"Images/motorcycle_2.png","key_press":76,"stim_onset":1583263409306,"block":1,"match_type":"match","image_category":"motorcycle","sound_category":"motorcycle","audio_type":"sound","phase":"test","trial_type":"image-keyboard-response","trial_index":194,"time_elapsed":3143992,"internal_node_id":"0.0-13.0-2.35","match_key":"l","participant_id":"40","correct":true},{"rt":null,"stimulus":"Sounds/correct.wav","key_press":null,"block":1,"trial_type":"audio-keyboard-response","trial_index":195,"time_elapsed":3146001,"internal_node_id":"0.0-13.0-3.35","match_key":"l","participant_id":"40"},{"rt":null,"stimulus":"Sounds/train_label.wav","key_press":null,"block":1,"trial_type":"audio-keyboard-response","trial_index":196,"time_elapsed":3147279,"internal_node_id":"0.0-13.0-0.36","match_key":"l","participant_id":"40"},{"rt":null,"stimulus":"<p style=\"font-size: 48px;\">+</p>","key_press":null,"block":1,"trial_type":"html-keyboard-response","trial_index":197,"time_elapsed":3148280,"internal_node_id":"0.0-13.0-1.36","match_key":"l","participant_id":"40"},{"rt":463.81000001588836,"stimulus":"Images/dog_cartoon.png","key_press":65,"stim_onset":1583263413973,"block":1,"match_type":"non-match","image_category":"dog","sound_category":"train","audio_type":"label","phase":"test","trial_type":"image-keyboard-response","trial_index":198,"time_elapsed":3148744,"internal_node_id":"0.0-13.0-2.36","match_key":"l","participant_id":"40","correct":true},{"rt":null,"stimulus":"Sounds/correct.wav","key_press":null,"block":1,"trial_type":"audio-keyboard-response","trial_index":199,"time_elapsed":3150751,"internal_node_id":"0.0-13.0-3.36","match_key":"l","participant_id":"40"},{"rt":null,"stimulus":"Sounds/cat_label.wav","key_press":null,"block":1,"trial_type":"audio-keyboard-response","trial_index":200,"time_elapsed":3151579,"internal_node_id":"0.0-13.0-0.37","match_key":"l","participant_id":"40"},{"rt":null,"stimulus":"<p style=\"font-size: 48px;\">+</p>","key_press":null,"block":1,"trial_type":"html-keyboard-response","trial_index":201,"time_elapsed":3152580,"internal_node_id":"0.0-13.0-1.37","match_key":"l","participant_id":"40"},{"rt":659.7899999762885,"stimulus":"Images/gun_cartoon.png","key_press":65,"stim_onset":1583263418273,"block":1,"match_type":"non-match","image_category":"gun","sound_category":"cat","audio_type":"label","phase":"test","trial_type":"image-keyboard-response","trial_index":202,"time_elapsed":3153241,"internal_node_id":"0.0-13.0-2.37","match_key":"l","participant_id":"40","correct":true},{"rt":null,"stimulus":"Sounds/correct.wav","key_press":null,"block":1,"trial_type":"audio-keyboard-response","trial_index":203,"time_elapsed":3155249,"internal_node_id":"0.0-13.0-3.37","match_key":"l","participant_id":"40"},{"rt":null,"stimulus":"Sounds/dog_label.wav","key_press":null,"block":1,"trial_type":"audio-keyboard-response","trial_index":204,"time_elapsed":3155899,"internal_node_id":"0.0-13.0-0.38","match_key":"l","participant_id":"40"},{"rt":null,"stimulus":"<p style=\"font-size: 48px;\">+</p>","key_press":null,"block":1,"trial_type":"html-keyboard-response","trial_index":205,"time_elapsed":3156896,"internal_node_id":"0.0-13.0-1.38","match_key":"l","participant_id":"40"},{"rt":470.8600000012666,"stimulus":"Images/dog_orig.png","key_press":76,"stim_onset":1583263422589,"block":1,"match_type":"match","image_category":"dog","sound_category":"dog","audio_type":"label","phase":"test","trial_type":"image-keyboard-response","trial_index":206,"time_elapsed":3157368,"internal_node_id":"0.0-13.0-2.38","match_key":"l","participant_id":"40","correct":true},{"rt":null,"stimulus":"Sounds/correct.wav","key_press":null,"block":1,"trial_type":"audio-keyboard-response","trial_index":207,"time_elapsed":3159385,"internal_node_id":"0.0-13.0-3.38","match_key":"l","participant_id":"40"},{"rt":null,"stimulus":"Sounds/car_sound.wav","key_press":null,"block":1,"trial_type":"audio-keyboard-response","trial_index":208,"time_elapsed":3160459,"internal_node_id":"0.0-13.0-0.39","match_key":"l","participant_id":"40"},{"rt":null,"stimulus":"<p style=\"font-size: 48px;\">+</p>","key_press":null,"block":1,"trial_type":"html-keyboard-response","trial_index":209,"time_elapsed":3161463,"internal_node_id":"0.0-13.0-1.39","match_key":"l","participant_id":"40"},{"rt":768.2300000162795,"stimulus":"Images/car_1.png","key_press":65,"stim_onset":1583263427156,"block":1,"match_type":"match","image_category":"car","sound_category":"car","audio_type":"sound","phase":"test","trial_type":"image-keyboard-response","trial_index":210,"time_elapsed":3162232,"internal_node_id":"0.0-13.0-2.39","match_key":"l","participant_id":"40","correct":false},{"rt":null,"stimulus":"Sounds/incorrect.wav","key_press":null,"block":1,"trial_type":"audio-keyboard-response","trial_index":211,"time_elapsed":3164236,"internal_node_id":"0.0-13.0-3.39","match_key":"l","participant_id":"40"},{"rt":null,"stimulus":"Sounds/frog_label.wav","key_press":null,"block":1,"trial_type":"audio-keyboard-response","trial_index":212,"time_elapsed":3165139,"internal_node_id":"0.0-13.0-0.40","match_key":"l","participant_id":"40"},{"rt":null,"stimulus":"<p style=\"font-size: 48px;\">+</p>","key_press":null,"block":1,"trial_type":"html-keyboard-response","trial_index":213,"time_elapsed":3166130,"internal_node_id":"0.0-13.0-1.40","match_key":"l","participant_id":"40"},{"rt":517.8500000033528,"stimulus":"Images/frog_2.png","key_press":76,"stim_onset":1583263431823,"block":1,"match_type":"match","image_category":"frog","sound_category":"frog","audio_type":"label","phase":"test","trial_type":"image-keyboard-response","trial_index":214,"time_elapsed":3166649,"internal_node_id":"0.0-13.0-2.40","match_key":"l","participant_id":"40","correct":true},{"rt":null,"stimulus":"Sounds/correct.wav","key_press":null,"block":1,"trial_type":"audio-keyboard-response","trial_index":215,"time_elapsed":3168651,"internal_node_id":"0.0-13.0-3.40","match_key":"l","participant_id":"40"},{"rt":null,"stimulus":"Sounds/whistle_sound.wav","key_press":null,"block":1,"trial_type":"audio-keyboard-response","trial_index":216,"time_elapsed":3169359,"internal_node_id":"0.0-13.0-0.41","match_key":"l","participant_id":"40"},{"rt":null,"stimulus":"<p style=\"font-size: 48px;\">+</p>","key_press":null,"block":1,"trial_type":"html-keyboard-response","trial_index":217,"time_elapsed":3170363,"internal_node_id":"0.0-13.0-1.41","match_key":"l","participant_id":"40"},{"rt":651.805000001099,"stimulus":"Images/motorcycle_3.png","key_press":65,"stim_onset":1583263436056,"block":1,"match_type":"non-match","image_category":"motorcycle","sound_category":"whistle","audio_type":"sound","phase":"test","trial_type":"image-keyboard-response","trial_index":218,"time_elapsed":3171016,"internal_node_id":"0.0-13.0-2.41","match_key":"l","participant_id":"40","correct":true},{"rt":null,"stimulus":"Sounds/correct.wav","key_press":null,"block":1,"trial_type":"audio-keyboard-response","trial_index":219,"time_elapsed":3173021,"internal_node_id":"0.0-13.0-3.41","match_key":"l","participant_id":"40"},{"rt":null,"stimulus":"Sounds/train_sound.wav","key_press":null,"block":1,"trial_type":"audio-keyboard-response","trial_index":220,"time_elapsed":3174319,"internal_node_id":"0.0-13.0-0.42","match_key":"l","participant_id":"40"},{"rt":null,"stimulus":"<p style=\"font-size: 48px;\">+</p>","key_press":null,"block":1,"trial_type":"html-keyboard-response","trial_index":221,"time_elapsed":3175313,"internal_node_id":"0.0-13.0-1.42","match_key":"l","participant_id":"40"},{"rt":406.394999998156,"stimulus":"Images/train_2.png","key_press":76,"stim_onset":1583263441006,"block":1,"match_type":"match","image_category":"train","sound_category":"train","audio_type":"sound","phase":"test","trial_type":"image-keyboard-response","trial_index":222,"time_elapsed":3175720,"internal_node_id":"0.0-13.0-2.42","match_key":"l","participant_id":"40","correct":true},{"rt":null,"stimulus":"Sounds/correct.wav","key_press":null,"block":1,"trial_type":"audio-keyboard-response","trial_index":223,"time_elapsed":3177735,"internal_node_id":"0.0-13.0-3.42","match_key":"l","participant_id":"40"},{"rt":null,"stimulus":"Sounds/dog_sound.wav","key_press":null,"block":1,"trial_type":"audio-keyboard-response","trial_index":224,"time_elapsed":3178439,"internal_node_id":"0.0-13.0-0.43","match_key":"l","participant_id":"40"},{"rt":null,"stimulus":"<p style=\"font-size: 48px;\">+</p>","key_press":null,"block":1,"trial_type":"html-keyboard-response","trial_index":225,"time_elapsed":3179430,"internal_node_id":"0.0-13.0-1.43","match_key":"l","participant_id":"40"},{"rt":945.559999993071,"stimulus":"Images/rooster_cartoon.png","key_press":65,"stim_onset":1583263445123,"block":1,"match_type":"non-match","image_category":"rooster","sound_category":"dog","audio_type":"sound","phase":"test","trial_type":"image-keyboard-response","trial_index":226,"time_elapsed":3180377,"internal_node_id":"0.0-13.0-2.43","match_key":"l","participant_id":"40","correct":true},{"rt":null,"stimulus":"Sounds/correct.wav","key_press":null,"block":1,"trial_type":"audio-keyboard-response","trial_index":227,"time_elapsed":3182382,"internal_node_id":"0.0-13.0-3.43","match_key":"l","participant_id":"40"},{"rt":null,"stimulus":"Sounds/dog_label.wav","key_press":null,"block":1,"trial_type":"audio-keyboard-response","trial_index":228,"time_elapsed":3183039,"internal_node_id":"0.0-13.0-0.44","match_key":"l","participant_id":"40"},{"rt":null,"stimulus":"<p style=\"font-size: 48px;\">+</p>","key_press":null,"block":1,"trial_type":"html-keyboard-response","trial_index":229,"time_elapsed":3184030,"internal_node_id":"0.0-13.0-1.44","match_key":"l","participant_id":"40"},{"rt":409.2200000011362,"stimulus":"Images/dog_2.png","key_press":76,"stim_onset":1583263449723,"block":1,"match_type":"match","image_category":"dog","sound_category":"dog","audio_type":"label","phase":"test","trial_type":"image-keyboard-response","trial_index":230,"time_elapsed":3184440,"internal_node_id":"0.0-13.0-2.44","match_key":"l","participant_id":"40","correct":true},{"rt":null,"stimulus":"Sounds/correct.wav","key_press":null,"block":1,"trial_type":"audio-keyboard-response","trial_index":231,"time_elapsed":3186450,"internal_node_id":"0.0-13.0-3.44","match_key":"l","participant_id":"40"},{"rt":null,"stimulus":"Sounds/cat_label.wav","key_press":null,"block":1,"trial_type":"audio-keyboard-response","trial_index":232,"time_elapsed":3187279,"internal_node_id":"0.0-13.0-0.45","match_key":"l","participant_id":"40"},{"rt":null,"stimulus":"<p style=\"font-size: 48px;\">+</p>","key_press":null,"block":1,"trial_type":"html-keyboard-response","trial_index":233,"time_elapsed":3188313,"internal_node_id":"0.0-13.0-1.45","match_key":"l","participant_id":"40"},{"rt":637.9949999973178,"stimulus":"Images/cat_1.png","key_press":76,"stim_onset":1583263454006,"block":1,"match_type":"match","image_category":"cat","sound_category":"cat","audio_type":"label","phase":"test","trial_type":"image-keyboard-response","trial_index":234,"time_elapsed":3188952,"internal_node_id":"0.0-13.0-2.45","match_key":"l","participant_id":"40","correct":true},{"rt":null,"stimulus":"Sounds/correct.wav","key_press":null,"block":1,"trial_type":"audio-keyboard-response","trial_index":235,"time_elapsed":3190967,"internal_node_id":"0.0-13.0-3.45","match_key":"l","participant_id":"40"},{"rt":null,"stimulus":"Sounds/train_label.wav","key_press":null,"block":1,"trial_type":"audio-keyboard-response","trial_index":236,"time_elapsed":3192239,"internal_node_id":"0.0-13.0-0.46","match_key":"l","participant_id":"40"},{"rt":null,"stimulus":"<p style=\"font-size: 48px;\">+</p>","key_press":null,"block":1,"trial_type":"html-keyboard-response","trial_index":237,"time_elapsed":3193230,"internal_node_id":"0.0-13.0-1.46","match_key":"l","participant_id":"40"},{"rt":536.614999989979,"stimulus":"Images/train_3.png","key_press":76,"stim_onset":1583263458923,"block":1,"match_type":"match","image_category":"train","sound_category":"train","audio_type":"label","phase":"test","trial_type":"image-keyboard-response","trial_index":238,"time_elapsed":3193769,"internal_node_id":"0.0-13.0-2.46","match_key":"l","participant_id":"40","correct":true},{"rt":null,"stimulus":"Sounds/correct.wav","key_press":null,"block":1,"trial_type":"audio-keyboard-response","trial_index":239,"time_elapsed":3195786,"internal_node_id":"0.0-13.0-3.46","match_key":"l","participant_id":"40"},{"rt":null,"stimulus":"Sounds/frog_label.wav","key_press":null,"block":1,"trial_type":"audio-keyboard-response","trial_index":240,"time_elapsed":3196679,"internal_node_id":"0.0-13.0-0.47","match_key":"l","participant_id":"40"},{"rt":null,"stimulus":"<p style=\"font-size: 48px;\">+</p>","key_press":null,"block":1,"trial_type":"html-keyboard-response","trial_index":241,"time_elapsed":3197697,"internal_node_id":"0.0-13.0-1.47","match_key":"l","participant_id":"40"},{"rt":534.4950000001118,"stimulus":"Images/rooster_1.png","key_press":65,"stim_onset":1583263463390,"block":1,"match_type":"non-match","image_category":"rooster","sound_category":"frog","audio_type":"label","phase":"test","trial_type":"image-keyboard-response","trial_index":242,"time_elapsed":3198233,"internal_node_id":"0.0-13.0-2.47","match_key":"l","participant_id":"40","correct":true},{"rt":null,"stimulus":"Sounds/correct.wav","key_press":null,"block":1,"trial_type":"audio-keyboard-response","trial_index":243,"time_elapsed":3200235,"internal_node_id":"0.0-13.0-3.47","match_key":"l","participant_id":"40"},{"rt":null,"stimulus":"Sounds/cat_label.wav","key_press":null,"block":1,"trial_type":"audio-keyboard-response","trial_index":244,"time_elapsed":3201039,"internal_node_id":"0.0-13.0-0.48","match_key":"l","participant_id":"40"},{"rt":null,"stimulus":"<p style=\"font-size: 48px;\">+</p>","key_press":null,"block":1,"trial_type":"html-keyboard-response","trial_index":245,"time_elapsed":3202030,"internal_node_id":"0.0-13.0-1.48","match_key":"l","participant_id":"40"},{"rt":553.164999990724,"stimulus":"Images/whistle_cartoon.png","key_press":65,"stim_onset":1583263467723,"block":1,"match_type":"non-match","image_category":"whistle","sound_category":"cat","audio_type":"label","phase":"test","trial_type":"image-keyboard-response","trial_index":246,"time_elapsed":3202585,"internal_node_id":"0.0-13.0-2.48","match_key":"l","participant_id":"40","correct":true},{"rt":null,"stimulus":"Sounds/correct.wav","key_press":null,"block":1,"trial_type":"audio-keyboard-response","trial_index":247,"time_elapsed":3204601,"internal_node_id":"0.0-13.0-3.48","match_key":"l","participant_id":"40"},{"rt":null,"stimulus":"Sounds/rooster_label.wav","key_press":null,"block":1,"trial_type":"audio-keyboard-response","trial_index":248,"time_elapsed":3205299,"internal_node_id":"0.0-13.0-0.49","match_key":"l","participant_id":"40"},{"rt":null,"stimulus":"<p style=\"font-size: 48px;\">+</p>","key_press":null,"block":1,"trial_type":"html-keyboard-response","trial_index":249,"time_elapsed":3206297,"internal_node_id":"0.0-13.0-1.49","match_key":"l","participant_id":"40"},{"rt":494.6050000144169,"stimulus":"Images/rooster_3.png","key_press":76,"stim_onset":1583263471990,"block":1,"match_type":"match","image_category":"rooster","sound_category":"rooster","audio_type":"label","phase":"test","trial_type":"image-keyboard-response","trial_index":250,"time_elapsed":3206793,"internal_node_id":"0.0-13.0-2.49","match_key":"l","participant_id":"40","correct":true},{"rt":null,"stimulus":"Sounds/correct.wav","key_press":null,"block":1,"trial_type":"audio-keyboard-response","trial_index":251,"time_elapsed":3208802,"internal_node_id":"0.0-13.0-3.49","match_key":"l","participant_id":"40"},{"rt":null,"stimulus":"Sounds/motorcycle_label.wav","key_press":null,"block":1,"trial_type":"audio-keyboard-response","trial_index":252,"time_elapsed":3209939,"internal_node_id":"0.0-13.0-0.50","match_key":"l","participant_id":"40"},{"rt":null,"stimulus":"<p style=\"font-size: 48px;\">+</p>","key_press":null,"block":1,"trial_type":"html-keyboard-response","trial_index":253,"time_elapsed":3210930,"internal_node_id":"0.0-13.0-1.50","match_key":"l","participant_id":"40"},{"rt":405.0149999964051,"stimulus":"Images/motorcycle_3.png","key_press":76,"stim_onset":1583263476624,"block":1,"match_type":"match","image_category":"motorcycle","sound_category":"motorcycle","audio_type":"label","phase":"test","trial_type":"image-keyboard-response","trial_index":254,"time_elapsed":3211337,"internal_node_id":"0.0-13.0-2.50","match_key":"l","participant_id":"40","correct":true},{"rt":null,"stimulus":"Sounds/correct.wav","key_press":null,"block":1,"trial_type":"audio-keyboard-response","trial_index":255,"time_elapsed":3213351,"internal_node_id":"0.0-13.0-3.50","match_key":"l","participant_id":"40"},{"rt":null,"stimulus":"Sounds/dog_label.wav","key_press":null,"block":1,"trial_type":"audio-keyboard-response","trial_index":256,"time_elapsed":3213999,"internal_node_id":"0.0-13.0-0.51","match_key":"l","participant_id":"40"},{"rt":null,"stimulus":"<p style=\"font-size: 48px;\">+</p>","key_press":null,"block":1,"trial_type":"html-keyboard-response","trial_index":257,"time_elapsed":3214997,"internal_node_id":"0.0-13.0-1.51","match_key":"l","participant_id":"40"},{"rt":626.3749999925494,"stimulus":"Images/train_3.png","key_press":65,"stim_onset":1583263480690,"block":1,"match_type":"non-match","image_category":"train","sound_category":"dog","audio_type":"label","phase":"test","trial_type":"image-keyboard-response","trial_index":258,"time_elapsed":3215625,"internal_node_id":"0.0-13.0-2.51","match_key":"l","participant_id":"40","correct":true},{"rt":null,"stimulus":"Sounds/correct.wav","key_press":null,"block":1,"trial_type":"audio-keyboard-response","trial_index":259,"time_elapsed":3217634,"internal_node_id":"0.0-13.0-3.51","match_key":"l","participant_id":"40"},{"rt":null,"stimulus":"Sounds/rooster_label.wav","key_press":null,"block":1,"trial_type":"audio-keyboard-response","trial_index":260,"time_elapsed":3218299,"internal_node_id":"0.0-13.0-0.52","match_key":"l","participant_id":"40"},{"rt":null,"stimulus":"<p style=\"font-size: 48px;\">+</p>","key_press":null,"block":1,"trial_type":"html-keyboard-response","trial_index":261,"time_elapsed":3219297,"internal_node_id":"0.0-13.0-1.52","match_key":"l","participant_id":"40"},{"rt":598.485000024084,"stimulus":"Images/dog_1.png","key_press":65,"stim_onset":1583263484990,"block":1,"match_type":"non-match","image_category":"dog","sound_category":"rooster","audio_type":"label","phase":"test","trial_type":"image-keyboard-response","trial_index":262,"time_elapsed":3219897,"internal_node_id":"0.0-13.0-2.52","match_key":"l","participant_id":"40","correct":true},{"rt":null,"stimulus":"Sounds/correct.wav","key_press":null,"block":1,"trial_type":"audio-keyboard-response","trial_index":263,"time_elapsed":3221902,"internal_node_id":"0.0-13.0-3.52","match_key":"l","participant_id":"40"},{"rt":null,"stimulus":"Sounds/frog_label.wav","key_press":null,"block":1,"trial_type":"audio-keyboard-response","trial_index":264,"time_elapsed":3222799,"internal_node_id":"0.0-13.0-0.53","match_key":"l","participant_id":"40"},{"rt":null,"stimulus":"<p style=\"font-size: 48px;\">+</p>","key_press":null,"block":1,"trial_type":"html-keyboard-response","trial_index":265,"time_elapsed":3223797,"internal_node_id":"0.0-13.0-1.53","match_key":"l","participant_id":"40"},{"rt":482.24000001186505,"stimulus":"Images/frog_1.png","key_press":76,"stim_onset":1583263489490,"block":1,"match_type":"match","image_category":"frog","sound_category":"frog","audio_type":"label","phase":"test","trial_type":"image-keyboard-response","trial_index":266,"time_elapsed":3224281,"internal_node_id":"0.0-13.0-2.53","match_key":"l","participant_id":"40","correct":true},{"rt":null,"stimulus":"Sounds/correct.wav","key_press":null,"block":1,"trial_type":"audio-keyboard-response","trial_index":267,"time_elapsed":3226286,"internal_node_id":"0.0-13.0-3.53","match_key":"l","participant_id":"40"},{"rt":null,"stimulus":"Sounds/gun_sound.wav","key_press":null,"block":1,"trial_type":"audio-keyboard-response","trial_index":268,"time_elapsed":3226859,"internal_node_id":"0.0-13.0-0.54","match_key":"l","participant_id":"40"},{"rt":null,"stimulus":"<p style=\"font-size: 48px;\">+</p>","key_press":null,"block":1,"trial_type":"html-keyboard-response","trial_index":269,"time_elapsed":3227864,"internal_node_id":"0.0-13.0-1.54","match_key":"l","participant_id":"40"},{"rt":415.24999999115244,"stimulus":"Images/gun_1.png","key_press":76,"stim_onset":1583263493557,"block":1,"match_type":"match","image_category":"gun","sound_category":"gun","audio_type":"sound","phase":"test","trial_type":"image-keyboard-response","trial_index":270,"time_elapsed":3228281,"internal_node_id":"0.0-13.0-2.54","match_key":"l","participant_id":"40","correct":true},{"rt":null,"stimulus":"Sounds/correct.wav","key_press":null,"block":1,"trial_type":"audio-keyboard-response","trial_index":271,"time_elapsed":3230286,"internal_node_id":"0.0-13.0-3.54","match_key":"l","participant_id":"40"},{"rt":null,"stimulus":"Sounds/gun_label.wav","key_press":null,"block":1,"trial_type":"audio-keyboard-response","trial_index":272,"time_elapsed":3230859,"internal_node_id":"0.0-13.0-0.55","match_key":"l","participant_id":"40"},{"rt":null,"stimulus":"<p style=\"font-size: 48px;\">+</p>","key_press":null,"block":1,"trial_type":"html-keyboard-response","trial_index":273,"time_elapsed":3231864,"internal_node_id":"0.0-13.0-1.55","match_key":"l","participant_id":"40"},{"rt":479.14499999023974,"stimulus":"Images/frog_1.png","key_press":65,"stim_onset":1583263497557,"block":1,"match_type":"non-match","image_category":"frog","sound_category":"gun","audio_type":"label","phase":"test","trial_type":"image-keyboard-response","trial_index":274,"time_elapsed":3232345,"internal_node_id":"0.0-13.0-2.55","match_key":"l","participant_id":"40","correct":true},{"rt":null,"stimulus":"Sounds/correct.wav","key_press":null,"block":1,"trial_type":"audio-keyboard-response","trial_index":275,"time_elapsed":3234355,"internal_node_id":"0.0-13.0-3.55","match_key":"l","participant_id":"40"},{"rt":null,"stimulus":"Sounds/car_label.wav","key_press":null,"block":1,"trial_type":"audio-keyboard-response","trial_index":276,"time_elapsed":3235439,"internal_node_id":"0.0-13.0-0.56","match_key":"l","participant_id":"40"},{"rt":null,"stimulus":"<p style=\"font-size: 48px;\">+</p>","key_press":null,"block":1,"trial_type":"html-keyboard-response","trial_index":277,"time_elapsed":3236431,"internal_node_id":"0.0-13.0-1.56","match_key":"l","participant_id":"40"},{"rt":536.8050000104122,"stimulus":"Images/car_orig.png","key_press":76,"stim_onset":1583263502124,"block":1,"match_type":"match","image_category":"car","sound_category":"car","audio_type":"label","phase":"test","trial_type":"image-keyboard-response","trial_index":278,"time_elapsed":3236969,"internal_node_id":"0.0-13.0-2.56","match_key":"l","participant_id":"40","correct":true},{"rt":null,"stimulus":"Sounds/correct.wav","key_press":null,"block":1,"trial_type":"audio-keyboard-response","trial_index":279,"time_elapsed":3238985,"internal_node_id":"0.0-13.0-3.56","match_key":"l","participant_id":"40"},{"rt":null,"stimulus":"Sounds/cow_label.wav","key_press":null,"block":1,"trial_type":"audio-keyboard-response","trial_index":280,"time_elapsed":3239999,"internal_node_id":"0.0-13.0-0.57","match_key":"l","participant_id":"40"},{"rt":null,"stimulus":"<p style=\"font-size: 48px;\">+</p>","key_press":null,"block":1,"trial_type":"html-keyboard-response","trial_index":281,"time_elapsed":3240997,"internal_node_id":"0.0-13.0-1.57","match_key":"l","participant_id":"40"},{"rt":466.07000002404675,"stimulus":"Images/train_orig.png","key_press":65,"stim_onset":1583263506691,"block":1,"match_type":"non-match","image_category":"train","sound_category":"cow","audio_type":"label","phase":"test","trial_type":"image-keyboard-response","trial_index":282,"time_elapsed":3241465,"internal_node_id":"0.0-13.0-2.57","match_key":"l","participant_id":"40","correct":true},{"rt":null,"stimulus":"Sounds/correct.wav","key_press":null,"block":1,"trial_type":"audio-keyboard-response","trial_index":283,"time_elapsed":3243470,"internal_node_id":"0.0-13.0-3.57","match_key":"l","participant_id":"40"},{"rt":null,"stimulus":"Sounds/whistle_sound.wav","key_press":null,"block":1,"trial_type":"audio-keyboard-response","trial_index":284,"time_elapsed":3244159,"internal_node_id":"0.0-13.0-0.58","match_key":"l","participant_id":"40"},{"rt":null,"stimulus":"<p style=\"font-size: 48px;\">+</p>","key_press":null,"block":1,"trial_type":"html-keyboard-response","trial_index":285,"time_elapsed":3245148,"internal_node_id":"0.0-13.0-1.58","match_key":"l","participant_id":"40"},{"rt":508.20999999996275,"stimulus":"Images/cat_1.png","key_press":65,"stim_onset":1583263510841,"block":1,"match_type":"non-match","image_category":"cat","sound_category":"whistle","audio_type":"sound","phase":"test","trial_type":"image-keyboard-response","trial_index":286,"time_elapsed":3245657,"internal_node_id":"0.0-13.0-2.58","match_key":"l","participant_id":"40","correct":true},{"rt":null,"stimulus":"Sounds/correct.wav","key_press":null,"block":1,"trial_type":"audio-keyboard-response","trial_index":287,"time_elapsed":3247669,"internal_node_id":"0.0-13.0-3.58","match_key":"l","participant_id":"40"},{"rt":null,"stimulus":"Sounds/frog_sound.wav","key_press":null,"block":1,"trial_type":"audio-keyboard-response","trial_index":288,"time_elapsed":3248579,"internal_node_id":"0.0-13.0-0.59","match_key":"l","participant_id":"40"},{"rt":null,"stimulus":"<p style=\"font-size: 48px;\">+</p>","key_press":null,"block":1,"trial_type":"html-keyboard-response","trial_index":289,"time_elapsed":3249581,"internal_node_id":"0.0-13.0-1.59","match_key":"l","participant_id":"40"},{"rt":618.6699999962002,"stimulus":"Images/car_1.png","key_press":65,"stim_onset":1583263515274,"block":1,"match_type":"non-match","image_category":"car","sound_category":"frog","audio_type":"sound","phase":"test","trial_type":"image-keyboard-response","trial_index":290,"time_elapsed":3250201,"internal_node_id":"0.0-13.0-2.59","match_key":"l","participant_id":"40","correct":true},{"rt":null,"stimulus":"Sounds/correct.wav","key_press":null,"block":1,"trial_type":"audio-keyboard-response","trial_index":291,"time_elapsed":3252218,"internal_node_id":"0.0-13.0-3.59","match_key":"l","participant_id":"40"},{"rt":null,"stimulus":"Sounds/gun_label.wav","key_press":null,"block":1,"trial_type":"audio-keyboard-response","trial_index":292,"time_elapsed":3252779,"internal_node_id":"0.0-13.0-0.60","match_key":"l","participant_id":"40"},{"rt":null,"stimulus":"<p style=\"font-size: 48px;\">+</p>","key_press":null,"block":1,"trial_type":"html-keyboard-response","trial_index":293,"time_elapsed":3253781,"internal_node_id":"0.0-13.0-1.60","match_key":"l","participant_id":"40"},{"rt":786.5999999921769,"stimulus":"Images/gun_cartoon.png","key_press":76,"stim_onset":1583263519474,"block":1,"match_type":"match","image_category":"gun","sound_category":"gun","audio_type":"label","phase":"test","trial_type":"image-keyboard-response","trial_index":294,"time_elapsed":3254569,"internal_node_id":"0.0-13.0-2.60","match_key":"l","participant_id":"40","correct":true},{"rt":null,"stimulus":"Sounds/correct.wav","key_press":null,"block":1,"trial_type":"audio-keyboard-response","trial_index":295,"time_elapsed":3256585,"internal_node_id":"0.0-13.0-3.60","match_key":"l","participant_id":"40"},{"rt":null,"stimulus":"Sounds/car_label.wav","key_press":null,"block":1,"trial_type":"audio-keyboard-response","trial_index":296,"time_elapsed":3257659,"internal_node_id":"0.0-13.0-0.61","match_key":"l","participant_id":"40"},{"rt":null,"stimulus":"<p style=\"font-size: 48px;\">+</p>","key_press":null,"block":1,"trial_type":"html-keyboard-response","trial_index":297,"time_elapsed":3258664,"internal_node_id":"0.0-13.0-1.61","match_key":"l","participant_id":"40"},{"rt":559.2900000046939,"stimulus":"Images/motorcycle_2.png","key_press":65,"stim_onset":1583263524357,"block":1,"match_type":"non-match","image_category":"motorcycle","sound_category":"car","audio_type":"label","phase":"test","trial_type":"image-keyboard-response","trial_index":298,"time_elapsed":3259225,"internal_node_id":"0.0-13.0-2.61","match_key":"l","participant_id":"40","correct":true},{"rt":null,"stimulus":"Sounds/correct.wav","key_press":null,"block":1,"trial_type":"audio-keyboard-response","trial_index":299,"time_elapsed":3261234,"internal_node_id":"0.0-13.0-3.61","match_key":"l","participant_id":"40"},{"rt":null,"stimulus":"Sounds/cow_sound.wav","key_press":null,"block":1,"trial_type":"audio-keyboard-response","trial_index":300,"time_elapsed":3262259,"internal_node_id":"0.0-13.0-0.62","match_key":"l","participant_id":"40"},{"rt":null,"stimulus":"<p style=\"font-size: 48px;\">+</p>","key_press":null,"block":1,"trial_type":"html-keyboard-response","trial_index":301,"time_elapsed":3263264,"internal_node_id":"0.0-13.0-1.62","match_key":"l","participant_id":"40"},{"rt":743.5950000071898,"stimulus":"Images/cat_cartoon.png","key_press":65,"stim_onset":1583263528957,"block":1,"match_type":"non-match","image_category":"cat","sound_category":"cow","audio_type":"sound","phase":"test","trial_type":"image-keyboard-response","trial_index":302,"time_elapsed":3264009,"internal_node_id":"0.0-13.0-2.62","match_key":"l","participant_id":"40","correct":true},{"rt":null,"stimulus":"Sounds/correct.wav","key_press":null,"block":1,"trial_type":"audio-keyboard-response","trial_index":303,"time_elapsed":3266018,"internal_node_id":"0.0-13.0-3.62","match_key":"l","participant_id":"40"},{"rt":null,"stimulus":"Sounds/train_sound.wav","key_press":null,"block":1,"trial_type":"audio-keyboard-response","trial_index":304,"time_elapsed":3267319,"internal_node_id":"0.0-13.0-0.63","match_key":"l","participant_id":"40"},{"rt":null,"stimulus":"<p style=\"font-size: 48px;\">+</p>","key_press":null,"block":1,"trial_type":"html-keyboard-response","trial_index":305,"time_elapsed":3268314,"internal_node_id":"0.0-13.0-1.63","match_key":"l","participant_id":"40"},{"rt":941.385000012815,"stimulus":"Images/train_cartoon.png","key_press":76,"stim_onset":1583263534007,"block":1,"match_type":"match","image_category":"train","sound_category":"train","audio_type":"sound","phase":"test","trial_type":"image-keyboard-response","trial_index":306,"time_elapsed":3269257,"internal_node_id":"0.0-13.0-2.63","match_key":"l","participant_id":"40","correct":true},{"rt":null,"stimulus":"Sounds/correct.wav","key_press":null,"block":1,"trial_type":"audio-keyboard-response","trial_index":307,"time_elapsed":3271269,"internal_node_id":"0.0-13.0-3.63","match_key":"l","participant_id":"40"},{"rt":null,"stimulus":"Sounds/whistle_sound.wav","key_press":null,"block":1,"trial_type":"audio-keyboard-response","trial_index":308,"time_elapsed":3271979,"internal_node_id":"0.0-13.0-0.64","match_key":"l","participant_id":"40"},{"rt":null,"stimulus":"<p style=\"font-size: 48px;\">+</p>","key_press":null,"block":1,"trial_type":"html-keyboard-response","trial_index":309,"time_elapsed":3272981,"internal_node_id":"0.0-13.0-1.64","match_key":"l","participant_id":"40"},{"rt":514.519999996759,"stimulus":"Images/whistle_orig.png","key_press":76,"stim_onset":1583263538674,"block":1,"match_type":"match","image_category":"whistle","sound_category":"whistle","audio_type":"sound","phase":"test","trial_type":"image-keyboard-response","trial_index":310,"time_elapsed":3273497,"internal_node_id":"0.0-13.0-2.64","match_key":"l","participant_id":"40","correct":true},{"rt":null,"stimulus":"Sounds/correct.wav","key_press":null,"block":1,"trial_type":"audio-keyboard-response","trial_index":311,"time_elapsed":3275504,"internal_node_id":"0.0-13.0-3.64","match_key":"l","participant_id":"40"},{"rt":null,"stimulus":"Sounds/cow_sound.wav","key_press":null,"block":1,"trial_type":"audio-keyboard-response","trial_index":312,"time_elapsed":3276499,"internal_node_id":"0.0-13.0-0.65","match_key":"l","participant_id":"40"},{"rt":null,"stimulus":"<p style=\"font-size: 48px;\">+</p>","key_press":null,"block":1,"trial_type":"html-keyboard-response","trial_index":313,"time_elapsed":3277498,"internal_node_id":"0.0-13.0-1.65","match_key":"l","participant_id":"40"},{"rt":445.83500002045184,"stimulus":"Images/cow_orig.png","key_press":76,"stim_onset":1583263543191,"block":1,"match_type":"match","image_category":"cow","sound_category":"cow","audio_type":"sound","phase":"test","trial_type":"image-keyboard-response","trial_index":314,"time_elapsed":3277945,"internal_node_id":"0.0-13.0-2.65","match_key":"l","participant_id":"40","correct":true},{"rt":null,"stimulus":"Sounds/correct.wav","key_press":null,"block":1,"trial_type":"audio-keyboard-response","trial_index":315,"time_elapsed":3279953,"internal_node_id":"0.0-13.0-3.65","match_key":"l","participant_id":"40"},{"rt":null,"stimulus":"Sounds/dog_label.wav","key_press":null,"block":1,"trial_type":"audio-keyboard-response","trial_index":316,"time_elapsed":3280619,"internal_node_id":"0.0-13.0-0.66","match_key":"l","participant_id":"40"},{"rt":null,"stimulus":"<p style=\"font-size: 48px;\">+</p>","key_press":null,"block":1,"trial_type":"html-keyboard-response","trial_index":317,"time_elapsed":3281614,"internal_node_id":"0.0-13.0-1.66","match_key":"l","participant_id":"40"},{"rt":505.1999999852851,"stimulus":"Images/dog_cartoon.png","key_press":76,"stim_onset":1583263547308,"block":1,"match_type":"match","image_category":"dog","sound_category":"dog","audio_type":"label","phase":"test","trial_type":"image-keyboard-response","trial_index":318,"time_elapsed":3282121,"internal_node_id":"0.0-13.0-2.66","match_key":"l","participant_id":"40","correct":true},{"rt":null,"stimulus":"Sounds/correct.wav","key_press":null,"block":1,"trial_type":"audio-keyboard-response","trial_index":319,"time_elapsed":3284135,"internal_node_id":"0.0-13.0-3.66","match_key":"l","participant_id":"40"},{"rt":null,"stimulus":"Sounds/rooster_sound.wav","key_press":null,"block":1,"trial_type":"audio-keyboard-response","trial_index":320,"time_elapsed":3284839,"internal_node_id":"0.0-13.0-0.67","match_key":"l","participant_id":"40"},{"rt":null,"stimulus":"<p style=\"font-size: 48px;\">+</p>","key_press":null,"block":1,"trial_type":"html-keyboard-response","trial_index":321,"time_elapsed":3285831,"internal_node_id":"0.0-13.0-1.67","match_key":"l","participant_id":"40"},{"rt":656.6000000163913,"stimulus":"Images/motorcycle_1.png","key_press":65,"stim_onset":1583263551525,"block":1,"match_type":"non-match","image_category":"motorcycle","sound_category":"rooster","audio_type":"sound","phase":"test","trial_type":"image-keyboard-response","trial_index":322,"time_elapsed":3286489,"internal_node_id":"0.0-13.0-2.67","match_key":"l","participant_id":"40","correct":true},{"rt":null,"stimulus":"Sounds/correct.wav","key_press":null,"block":1,"trial_type":"audio-keyboard-response","trial_index":323,"time_elapsed":3288503,"internal_node_id":"0.0-13.0-3.67","match_key":"l","participant_id":"40"},{"rt":null,"stimulus":"Sounds/gun_label.wav","key_press":null,"block":1,"trial_type":"audio-keyboard-response","trial_index":324,"time_elapsed":3289079,"internal_node_id":"0.0-13.0-0.68","match_key":"l","participant_id":"40"},{"rt":null,"stimulus":"<p style=\"font-size: 48px;\">+</p>","key_press":null,"block":1,"trial_type":"html-keyboard-response","trial_index":325,"time_elapsed":3290081,"internal_node_id":"0.0-13.0-1.68","match_key":"l","participant_id":"40"},{"rt":886.2249999949709,"stimulus":"Images/cow_3.png","key_press":65,"stim_onset":1583263555775,"block":1,"match_type":"non-match","image_category":"cow","sound_category":"gun","audio_type":"label","phase":"test","trial_type":"image-keyboard-response","trial_index":326,"time_elapsed":3290969,"internal_node_id":"0.0-13.0-2.68","match_key":"l","participant_id":"40","correct":true},{"rt":null,"stimulus":"Sounds/correct.wav","key_press":null,"block":1,"trial_type":"audio-keyboard-response","trial_index":327,"time_elapsed":3292986,"internal_node_id":"0.0-13.0-3.68","match_key":"l","participant_id":"40"},{"rt":null,"stimulus":"Sounds/car_label.wav","key_press":null,"block":1,"trial_type":"audio-keyboard-response","trial_index":328,"time_elapsed":3294059,"internal_node_id":"0.0-13.0-0.69","match_key":"l","participant_id":"40"},{"rt":null,"stimulus":"<p style=\"font-size: 48px;\">+</p>","key_press":null,"block":1,"trial_type":"html-keyboard-response","trial_index":329,"time_elapsed":3295065,"internal_node_id":"0.0-13.0-1.69","match_key":"l","participant_id":"40"},{"rt":702.6400000029244,"stimulus":"Images/dog_2.png","key_press":65,"stim_onset":1583263560758,"block":1,"match_type":"non-match","image_category":"dog","sound_category":"car","audio_type":"label","phase":"test","trial_type":"image-keyboard-response","trial_index":330,"time_elapsed":3295769,"internal_node_id":"0.0-13.0-2.69","match_key":"l","participant_id":"40","correct":true},{"rt":null,"stimulus":"Sounds/correct.wav","key_press":null,"block":1,"trial_type":"audio-keyboard-response","trial_index":331,"time_elapsed":3297772,"internal_node_id":"0.0-13.0-3.69","match_key":"l","participant_id":"40"},{"rt":null,"stimulus":"Sounds/cat_sound.wav","key_press":null,"block":1,"trial_type":"audio-keyboard-response","trial_index":332,"time_elapsed":3298619,"internal_node_id":"0.0-13.0-0.70","match_key":"l","participant_id":"40"},{"rt":null,"stimulus":"<p style=\"font-size: 48px;\">+</p>","key_press":null,"block":1,"trial_type":"html-keyboard-response","trial_index":333,"time_elapsed":3299615,"internal_node_id":"0.0-13.0-1.70","match_key":"l","participant_id":"40"},{"rt":520.795000018552,"stimulus":"Images/cat_orig.png","key_press":76,"stim_onset":1583263565308,"block":1,"match_type":"match","image_category":"cat","sound_category":"cat","audio_type":"sound","phase":"test","trial_type":"image-keyboard-response","trial_index":334,"time_elapsed":3300137,"internal_node_id":"0.0-13.0-2.70","match_key":"l","participant_id":"40","correct":true},{"rt":null,"stimulus":"Sounds/correct.wav","key_press":null,"block":1,"trial_type":"audio-keyboard-response","trial_index":335,"time_elapsed":3302153,"internal_node_id":"0.0-13.0-3.70","match_key":"l","participant_id":"40"},{"rt":null,"stimulus":"Sounds/gun_label.wav","key_press":null,"block":1,"trial_type":"audio-keyboard-response","trial_index":336,"time_elapsed":3302699,"internal_node_id":"0.0-13.0-0.71","match_key":"l","participant_id":"40"},{"rt":null,"stimulus":"<p style=\"font-size: 48px;\">+</p>","key_press":null,"block":1,"trial_type":"html-keyboard-response","trial_index":337,"time_elapsed":3303698,"internal_node_id":"0.0-13.0-1.71","match_key":"l","participant_id":"40"},{"rt":421.3450000095181,"stimulus":"Images/cat_2.png","key_press":65,"stim_onset":1583263569391,"block":1,"match_type":"non-match","image_category":"cat","sound_category":"gun","audio_type":"label","phase":"test","trial_type":"image-keyboard-response","trial_index":338,"time_elapsed":3304121,"internal_node_id":"0.0-13.0-2.71","match_key":"l","participant_id":"40","correct":true},{"rt":null,"stimulus":"Sounds/correct.wav","key_press":null,"block":1,"trial_type":"audio-keyboard-response","trial_index":339,"time_elapsed":3306136,"internal_node_id":"0.0-13.0-3.71","match_key":"l","participant_id":"40"},{"rt":null,"stimulus":"Sounds/car_label.wav","key_press":null,"block":1,"trial_type":"audio-keyboard-response","trial_index":340,"time_elapsed":3307179,"internal_node_id":"0.0-13.0-0.72","match_key":"l","participant_id":"40"},{"rt":null,"stimulus":"<p style=\"font-size: 48px;\">+</p>","key_press":null,"block":1,"trial_type":"html-keyboard-response","trial_index":341,"time_elapsed":3308181,"internal_node_id":"0.0-13.0-1.72","match_key":"l","participant_id":"40"},{"rt":1058.114999992773,"stimulus":"Images/car_cartoon.png","key_press":76,"stim_onset":1583263573875,"block":1,"match_type":"match","image_category":"car","sound_category":"car","audio_type":"label","phase":"test","trial_type":"image-keyboard-response","trial_index":342,"time_elapsed":3309241,"internal_node_id":"0.0-13.0-2.72","match_key":"l","participant_id":"40","correct":true},{"rt":null,"stimulus":"Sounds/correct.wav","key_press":null,"block":1,"trial_type":"audio-keyboard-response","trial_index":343,"time_elapsed":3311253,"internal_node_id":"0.0-13.0-3.72","match_key":"l","participant_id":"40"},{"rt":null,"stimulus":"Sounds/rooster_sound.wav","key_press":null,"block":1,"trial_type":"audio-keyboard-response","trial_index":344,"time_elapsed":3311939,"internal_node_id":"0.0-13.0-0.73","match_key":"l","participant_id":"40"},{"rt":null,"stimulus":"<p style=\"font-size: 48px;\">+</p>","key_press":null,"block":1,"trial_type":"html-keyboard-response","trial_index":345,"time_elapsed":3312932,"internal_node_id":"0.0-13.0-1.73","match_key":"l","participant_id":"40"},{"rt":563.9850000152364,"stimulus":"Images/rooster_cartoon.png","key_press":76,"stim_onset":1583263578625,"block":1,"match_type":"match","image_category":"rooster","sound_category":"rooster","audio_type":"sound","phase":"test","trial_type":"image-keyboard-response","trial_index":346,"time_elapsed":3313497,"internal_node_id":"0.0-13.0-2.73","match_key":"l","participant_id":"40","correct":true},{"rt":null,"stimulus":"Sounds/correct.wav","key_press":null,"block":1,"trial_type":"audio-keyboard-response","trial_index":347,"time_elapsed":3315504,"internal_node_id":"0.0-13.0-3.73","match_key":"l","participant_id":"40"},{"rt":null,"stimulus":"Sounds/motorcycle_label.wav","key_press":null,"block":1,"trial_type":"audio-keyboard-response","trial_index":348,"time_elapsed":3316639,"internal_node_id":"0.0-13.0-0.74","match_key":"l","participant_id":"40"},{"rt":null,"stimulus":"<p style=\"font-size: 48px;\">+</p>","key_press":null,"block":1,"trial_type":"html-keyboard-response","trial_index":349,"time_elapsed":3317632,"internal_node_id":"0.0-13.0-1.74","match_key":"l","participant_id":"40"},{"rt":695.9599999831989,"stimulus":"Images/car_orig.png","key_press":65,"stim_onset":1583263583325,"block":1,"match_type":"non-match","image_category":"car","sound_category":"motorcycle","audio_type":"label","phase":"test","trial_type":"image-keyboard-response","trial_index":350,"time_elapsed":3318329,"internal_node_id":"0.0-13.0-2.74","match_key":"l","participant_id":"40","correct":true},{"rt":null,"stimulus":"Sounds/correct.wav","key_press":null,"block":1,"trial_type":"audio-keyboard-response","trial_index":351,"time_elapsed":3320336,"internal_node_id":"0.0-13.0-3.74","match_key":"l","participant_id":"40"},{"rt":null,"stimulus":"Sounds/cat_label.wav","key_press":null,"block":1,"trial_type":"audio-keyboard-response","trial_index":352,"time_elapsed":3321179,"internal_node_id":"0.0-13.0-0.75","match_key":"l","participant_id":"40"},{"rt":null,"stimulus":"<p style=\"font-size: 48px;\">+</p>","key_press":null,"block":1,"trial_type":"html-keyboard-response","trial_index":353,"time_elapsed":3322182,"internal_node_id":"0.0-13.0-1.75","match_key":"l","participant_id":"40"},{"rt":514.1850000070408,"stimulus":"Images/car_3.png","key_press":65,"stim_onset":1583263587875,"block":1,"match_type":"non-match","image_category":"car","sound_category":"cat","audio_type":"label","phase":"test","trial_type":"image-keyboard-response","trial_index":354,"time_elapsed":3322697,"internal_node_id":"0.0-13.0-2.75","match_key":"l","participant_id":"40","correct":true},{"rt":null,"stimulus":"Sounds/correct.wav","key_press":null,"block":1,"trial_type":"audio-keyboard-response","trial_index":355,"time_elapsed":3324705,"internal_node_id":"0.0-13.0-3.75","match_key":"l","participant_id":"40"},{"rt":null,"stimulus":"Sounds/rooster_sound.wav","key_press":null,"block":1,"trial_type":"audio-keyboard-response","trial_index":356,"time_elapsed":3325379,"internal_node_id":"0.0-13.0-0.76","match_key":"l","participant_id":"40"},{"rt":null,"stimulus":"<p style=\"font-size: 48px;\">+</p>","key_press":null,"block":1,"trial_type":"html-keyboard-response","trial_index":357,"time_elapsed":3326381,"internal_node_id":"0.0-13.0-1.76","match_key":"l","participant_id":"40"},{"rt":601.9199999864213,"stimulus":"Images/frog_3.png","key_press":65,"stim_onset":1583263592075,"block":1,"match_type":"non-match","image_category":"frog","sound_category":"rooster","audio_type":"sound","phase":"test","trial_type":"image-keyboard-response","trial_index":358,"time_elapsed":3326985,"internal_node_id":"0.0-13.0-2.76","match_key":"l","participant_id":"40","correct":true},{"rt":null,"stimulus":"Sounds/correct.wav","key_press":null,"block":1,"trial_type":"audio-keyboard-response","trial_index":359,"time_elapsed":3328987,"internal_node_id":"0.0-13.0-3.76","match_key":"l","participant_id":"40"},{"rt":null,"stimulus":"Sounds/motorcycle_sound.wav","key_press":null,"block":1,"trial_type":"audio-keyboard-response","trial_index":360,"time_elapsed":3330099,"internal_node_id":"0.0-13.0-0.77","match_key":"l","participant_id":"40"},{"rt":null,"stimulus":"<p style=\"font-size: 48px;\">+</p>","key_press":null,"block":1,"trial_type":"html-keyboard-response","trial_index":361,"time_elapsed":3331098,"internal_node_id":"0.0-13.0-1.77","match_key":"l","participant_id":"40"},{"rt":540.9649999928661,"stimulus":"Images/train_1.png","key_press":65,"stim_onset":1583263596791,"block":1,"match_type":"non-match","image_category":"train","sound_category":"motorcycle","audio_type":"sound","phase":"test","trial_type":"image-keyboard-response","trial_index":362,"time_elapsed":3331641,"internal_node_id":"0.0-13.0-2.77","match_key":"l","participant_id":"40","correct":true},{"rt":null,"stimulus":"Sounds/correct.wav","key_press":null,"block":1,"trial_type":"audio-keyboard-response","trial_index":363,"time_elapsed":3333651,"internal_node_id":"0.0-13.0-3.77","match_key":"l","participant_id":"40"},{"rt":null,"stimulus":"Sounds/gun_sound.wav","key_press":null,"block":1,"trial_type":"audio-keyboard-response","trial_index":364,"time_elapsed":3334239,"internal_node_id":"0.0-13.0-0.78","match_key":"l","participant_id":"40"},{"rt":null,"stimulus":"<p style=\"font-size: 48px;\">+</p>","key_press":null,"block":1,"trial_type":"html-keyboard-response","trial_index":365,"time_elapsed":3335232,"internal_node_id":"0.0-13.0-1.78","match_key":"l","participant_id":"40"},{"rt":471.94499999750406,"stimulus":"Imag