"rt","responses","trial_type","trial_index","time_elapsed","internal_node_id","match_key","participant_id","stimulus","key_press","block","stim_onset","match_type","image_category","sound_category","audio_type","phase","correct"
"4220.895000034943","{""Q0"":""41""}","survey-text","0","4225","0.0-0.0","l","41","","","","","","","","","",""
"99099.80999998515","","html-keyboard-response","1","103328","0.0-1.0","l","41","<p>Use KEYBOARD 1 (match RIGHT)</p><p>Press MATCH to continue.</p>","76","","","","","","","",""
"396558.7500000256","","html-keyboard-response","2","499893","0.0-2.0","l","41","<p>Welcome to the experiment.</p>","76","","","","","","","",""
"6984.950000012759","","html-keyboard-response","3","506883","0.0-3.0","l","41","<p>Thank you for agreeing to participate in this study.</p><p>If during any part of the procedure you must stop for any reason, please inform the researcher that you do not wish to continue.</p>","76","","","","","","","",""
"21583.824999979697","","html-keyboard-response","4","528468","0.0-4.0","l","41","<p>In this experiment, you will hear various words or sounds and see pictures of various animals and objects.</p><p>Most of the images will be of common everyday objects, such as cars, cats, cows, firearms, frogs, chickens, whistles, trains, motorcycles, and dogs.</p><p>Some of the images will be real-life stills, while others will be cartoons.</p>","76","","","","","","","",""
"20830.54999995511","","html-keyboard-response","5","549297","0.0-5.0","l","41","<p>Sometimes, the word/sound will match the picture, for example you'll hear a meowing sound and see a cat.</p><p>Other times, the picture will not match the sound or word.</p><p>Your task is to decide as quickly as possible if the word/sound matches the picture or not. </p>","76","","","","","","","",""
"13438.210000051185","","html-keyboard-response","6","562737","0.0-6.0","l","41","<p>For example, if you hear the word ""cat"" or hear a meowing sound, and then see a picture of a cat, you should press the MATCH key.</p><p> If the sound and image do not match, press the NOT-MATCH key to indicate that there is not a match.</p>","76","","","","","","","",""
"9598.56499999296","","html-keyboard-response","7","572337","0.0-7.0","l","41","<p>If you make a mistake, you will hear a buzzing sound instead of a more pleasant sound.</p><p> Try to respond as quickly as possible, while making as few errors as possible. If you are making mistakes, you are probably rushing.</p>","76","","","","","","","",""
"9838.86999997776","","html-keyboard-response","8","582177","0.0-8.0","l","41","<p>Please try to not move or blink your eyes during the presentation of the images. You can move and blink between images.</p><p>During the experiment there will be some breaks during which you can rest your eyes.</p>","76","","","","","","","",""
"5102.4250000482425","","html-keyboard-response","9","587280","0.0-9.0","l","41","<p>We will begin with 10 practice trials. Please let the experimenter know if you have any questions.</p>","76","","","","","","","",""
"null","","audio-keyboard-response","10","588143","0.0-10.0-0.0","l","41","Sounds/cat_label.wav","null","0","","","","","","",""
"null","","html-keyboard-response","11","589138","0.0-10.0-1.0","l","41","<p style=""font-size: 48px;"">+</p>","null","0","","","","","","",""
"2892.630000016652","","image-keyboard-response","12","592033","0.0-10.0-2.0","l","41","Images/cow_cartoon.png","65","0","1583445388853","non-match","cow","cat","label","practice","true"
"null","","audio-keyboard-response","13","594049","0.0-10.0-3.0","l","41","Sounds/correct.wav","null","0","","","","","","",""
"null","","audio-keyboard-response","14","594882","0.0-10.0-0.1","l","41","Sounds/cat_sound.wav","null","0","","","","","","",""
"null","","html-keyboard-response","15","595871","0.0-10.0-1.1","l","41","<p style=""font-size: 48px;"">+</p>","null","0","","","","","","",""
"991.9900000095367","","image-keyboard-response","16","596865","0.0-10.0-2.1","l","41","Images/gun_cartoon.png","65","0","1583445395586","non-match","gun","cat","sound","practice","true"
"null","","audio-keyboard-response","17","598874","0.0-10.0-3.1","l","41","Sounds/correct.wav","null","0","","","","","","",""
"null","","audio-keyboard-response","18","600002","0.0-10.0-0.2","l","41","Sounds/motorcycle_sound.wav","null","0","","","","","","",""
"null","","html-keyboard-response","19","601005","0.0-10.0-1.2","l","41","<p style=""font-size: 48px;"">+</p>","null","0","","","","","","",""
"994.379999989178","","image-keyboard-response","20","602000","0.0-10.0-2.2","l","41","Images/motorcycle_3.png","76","0","1583445400719","match","motorcycle","motorcycle","sound","practice","true"
"null","","audio-keyboard-response","21","604009","0.0-10.0-3.2","l","41","Sounds/correct.wav","null","0","","","","","","",""
"null","","audio-keyboard-response","22","604582","0.0-10.0-0.3","l","41","Sounds/gun_sound.wav","null","0","","","","","","",""
"null","","html-keyboard-response","23","605571","0.0-10.0-1.3","l","41","<p style=""font-size: 48px;"">+</p>","null","0","","","","","","",""
"1003.9700000197627","","image-keyboard-response","24","606577","0.0-10.0-2.3","l","41","Images/car_orig.png","65","0","1583445405286","non-match","car","gun","sound","practice","true"
"null","","audio-keyboard-response","25","608592","0.0-10.0-3.3","l","41","Sounds/correct.wav","null","0","","","","","","",""
"null","","audio-keyboard-response","26","609686","0.0-10.0-0.4","l","41","Sounds/car_sound.wav","null","0","","","","","","",""
"null","","html-keyboard-response","27","610692","0.0-10.0-1.4","l","41","<p style=""font-size: 48px;"">+</p>","null","0","","","","","","",""
"751.2200000346638","","image-keyboard-response","28","611445","0.0-10.0-2.4","l","41","Images/car_3.png","76","0","1583445410406","match","car","car","sound","practice","true"
"null","","audio-keyboard-response","29","613449","0.0-10.0-3.4","l","41","Sounds/correct.wav","null","0","","","","","","",""
"null","","audio-keyboard-response","30","614726","0.0-10.0-0.5","l","41","Sounds/train_label.wav","null","0","","","","","","",""
"null","","html-keyboard-response","31","615726","0.0-10.0-1.5","l","41","<p style=""font-size: 48px;"">+</p>","null","0","","","","","","",""
"2181.5049999859184","","image-keyboard-response","32","617908","0.0-10.0-2.5","l","41","Images/train_orig.png","76","0","1583445415440","match","train","train","label","practice","true"
"null","","audio-keyboard-response","33","619917","0.0-10.0-3.5","l","41","Sounds/correct.wav","null","0","","","","","","",""
"null","","audio-keyboard-response","34","621066","0.0-10.0-0.6","l","41","Sounds/motorcycle_label.wav","null","0","","","","","","",""
"null","","html-keyboard-response","35","622059","0.0-10.0-1.6","l","41","<p style=""font-size: 48px;"">+</p>","null","0","","","","","","",""
"600.5899999872781","","image-keyboard-response","36","622661","0.0-10.0-2.6","l","41","Images/motorcycle_1.png","76","0","1583445421773","match","motorcycle","motorcycle","label","practice","true"
"null","","audio-keyboard-response","37","624666","0.0-10.0-3.6","l","41","Sounds/correct.wav","null","0","","","","","","",""
"null","","audio-keyboard-response","38","625506","0.0-10.0-0.7","l","41","Sounds/cat_label.wav","null","0","","","","","","",""
"null","","html-keyboard-response","39","626509","0.0-10.0-1.7","l","41","<p style=""font-size: 48px;"">+</p>","null","0","","","","","","",""
"966.359999962151","","image-keyboard-response","40","627476","0.0-10.0-2.7","l","41","Images/frog_orig.png","65","0","1583445426223","non-match","frog","cat","label","practice","true"
"null","","audio-keyboard-response","41","629483","0.0-10.0-3.7","l","41","Sounds/correct.wav","null","0","","","","","","",""
"null","","audio-keyboard-response","42","630506","0.0-10.0-0.8","l","41","Sounds/cow_label.wav","null","0","","","","","","",""
"null","","html-keyboard-response","43","631509","0.0-10.0-1.8","l","41","<p style=""font-size: 48px;"">+</p>","null","0","","","","","","",""
"878.2300000311807","","image-keyboard-response","44","632388","0.0-10.0-2.8","l","41","Images/cat_3.png","65","0","1583445431223","non-match","cat","cow","label","practice","true"
"null","","audio-keyboard-response","45","634399","0.0-10.0-3.8","l","41","Sounds/correct.wav","null","0","","","","","","",""
"null","","audio-keyboard-response","46","635506","0.0-10.0-0.9","l","41","Sounds/motorcycle_label.wav","null","0","","","","","","",""
"null","","html-keyboard-response","47","636509","0.0-10.0-1.9","l","41","<p style=""font-size: 48px;"">+</p>","null","0","","","","","","",""
"742.035000002943","","image-keyboard-response","48","637253","0.0-10.0-2.9","l","41","Images/motorcycle_orig.png","76","0","1583445436223","match","motorcycle","motorcycle","label","practice","true"
"null","","audio-keyboard-response","49","639263","0.0-10.0-3.9","l","41","Sounds/correct.wav","null","0","","","","","","",""
"32229.29500002647","","html-keyboard-response","50","671484","0.0-11.0","l","41","<p>The rest of the experiment is divided into five blocks with 100 trials in each block. It will take about 45 minutes to complete.</p><p>The experimenter will be in the outer room and you can communicate with them through the monitor if you have any questions or wish to stop the experiment.</p>","76","","","","","","","",""
"5918.730000033975","","html-keyboard-response","51","677404","0.0-12.0","l","41","<p>Remember, please try not to move or blink your eyes during the presentation of the images. </p><p>At the end of the experiment, we will show you your scores on the task so you can see how you did.</p><p>The experiment will start on the next screen.</p>","76","","","","","","","",""
"null","","audio-keyboard-response","52","680266","0.0-13.0-0.0","l","41","Sounds/cat_sound.wav","null","1","","","","","","",""
"null","","html-keyboard-response","53","681268","0.0-13.0-1.0","l","41","<p style=""font-size: 48px;"">+</p>","null","1","","","","","","",""
"935.3000000119209","","image-keyboard-response","54","682205","0.0-13.0-2.0","l","41","Images/cat_2.png","76","1","1583445480982","match","cat","cat","sound","test","true"
"null","","audio-keyboard-response","55","684223","0.0-13.0-3.0","l","41","Sounds/correct.wav","null","1","","","","","","",""
"null","","audio-keyboard-response","56","685066","0.0-13.0-0.1","l","41","Sounds/cat_label.wav","null","1","","","","","","",""
"null","","html-keyboard-response","57","686068","0.0-13.0-1.1","l","41","<p style=""font-size: 48px;"">+</p>","null","1","","","","","","",""
"662.865000020247","","image-keyboard-response","58","686732","0.0-13.0-2.1","l","41","Images/motorcycle_orig.png","65","1","1583445485782","non-match","motorcycle","cat","label","test","true"
"null","","audio-keyboard-response","59","688740","0.0-13.0-3.1","l","41","Sounds/correct.wav","null","1","","","","","","",""
"null","","audio-keyboard-response","60","689546","0.0-13.0-0.2","l","41","Sounds/cat_label.wav","null","1","","","","","","",""
"null","","html-keyboard-response","61","690534","0.0-13.0-1.2","l","41","<p style=""font-size: 48px;"">+</p>","null","1","","","","","","",""
"692.2800000174902","","image-keyboard-response","62","691228","0.0-13.0-2.2","l","41","Images/rooster_orig.png","65","1","1583445490249","non-match","rooster","cat","label","test","true"
"null","","audio-keyboard-response","63","693238","0.0-13.0-3.2","l","41","Sounds/correct.wav","null","1","","","","","","",""
"null","","audio-keyboard-response","64","694326","0.0-13.0-0.3","l","41","Sounds/car_sound.wav","null","1","","","","","","",""
"null","","html-keyboard-response","65","695318","0.0-13.0-1.3","l","41","<p style=""font-size: 48px;"">+</p>","null","1","","","","","","",""
"1108.6650000070222","","image-keyboard-response","66","696428","0.0-13.0-2.3","l","41","Images/train_1.png","65","1","1583445495032","non-match","train","car","sound","test","true"
"null","","audio-keyboard-response","67","698440","0.0-13.0-3.3","l","41","Sounds/correct.wav","null","1","","","","","","",""
"null","","audio-keyboard-response","68","699266","0.0-13.0-0.4","l","41","Sounds/cat_sound.wav","null","1","","","","","","",""
"null","","html-keyboard-response","69","700268","0.0-13.0-1.4","l","41","<p style=""font-size: 48px;"">+</p>","null","1","","","","","","",""
"862.9000000073574","","image-keyboard-response","70","701132","0.0-13.0-2.4","l","41","Images/gun_1.png","65","1","1583445499982","non-match","gun","cat","sound","test","true"
"null","","audio-keyboard-response","71","703141","0.0-13.0-3.4","l","41","Sounds/correct.wav","null","1","","","","","","",""
"null","","audio-keyboard-response","72","704046","0.0-13.0-0.5","l","41","Sounds/frog_sound.wav","null","1","","","","","","",""
"null","","html-keyboard-response","73","705035","0.0-13.0-1.5","l","41","<p style=""font-size: 48px;"">+</p>","null","1","","","","","","",""
"1216.0349999903701","","image-keyboard-response","74","706252","0.0-13.0-2.5","l","41","Images/frog_3.png","76","1","1583445504749","match","frog","frog","sound","test","true"
"null","","audio-keyboard-response","75","708256","0.0-13.0-3.5","l","41","Sounds/correct.wav","null","1","","","","","","",""
"null","","audio-keyboard-response","76","708966","0.0-13.0-0.6","l","41","Sounds/whistle_sound.wav","null","1","","","","","","",""
"null","","html-keyboard-response","77","709968","0.0-13.0-1.6","l","41","<p style=""font-size: 48px;"">+</p>","null","1","","","","","","",""
"1066.9099999940954","","image-keyboard-response","78","711036","0.0-13.0-2.6","l","41","Images/whistle_cartoon.png","76","1","1583445509683","match","whistle","whistle","sound","test","true"
"null","","audio-keyboard-response","79","713043","0.0-13.0-3.6","l","41","Sounds/correct.wav","null","1","","","","","","",""
"null","","audio-keyboard-response","80","713746","0.0-13.0-0.7","l","41","Sounds/rooster_label.wav","null","1","","","","","","",""
"null","","html-keyboard-response","81","714735","0.0-13.0-1.7","l","41","<p style=""font-size: 48px;"">+</p>","null","1","","","","","","",""
"1020.0799999875017","","image-keyboard-response","82","715756","0.0-13.0-2.7","l","41","Images/rooster_1.png","65","1","1583445514449","match","rooster","rooster","label","test","false"
"null","","audio-keyboard-response","83","717772","0.0-13.0-3.7","l","41","Sounds/incorrect.wav","null","1","","","","","","",""
"null","","audio-keyboard-response","84","718906","0.0-13.0-0.8","l","41","Sounds/motorcycle_label.wav","null","1","","","","","","",""
"null","","html-keyboard-response","85","719902","0.0-13.0-1.8","l","41","<p style=""font-size: 48px;"">+</p>","null","1","","","","","","",""
"1069.1950000473298","","image-keyboard-response","86","720972","0.0-13.0-2.8","l","41","Images/motorcycle_3.png","76","1","1583445519616","match","motorcycle","motorcycle","label","test","true"
"null","","audio-keyboard-response","87","722988","0.0-13.0-3.8","l","41","Sounds/correct.wav","null","1","","","","","","",""
"null","","audio-keyboard-response","88","724286","0.0-13.0-0.9","l","41","Sounds/train_sound.wav","null","1","","","","","","",""
"null","","html-keyboard-response","89","725285","0.0-13.0-1.9","l","41","<p style=""font-size: 48px;"">+</p>","null","1","","","","","","",""
"1270.1550000347197","","image-keyboard-response","90","726556","0.0-13.0-2.9","l","41","Images/train_1.png","76","1","1583445524999","match","train","train","sound","test","true"
"null","","audio-keyboard-response","91","728558","0.0-13.0-3.9","l","41","Sounds/correct.wav","null","1","","","","","","",""
"null","","audio-keyboard-response","92","729226","0.0-13.0-0.10","l","41","Sounds/rooster_label.wav","null","1","","","","","","",""
"null","","html-keyboard-response","93","730218","0.0-13.0-1.10","l","41","<p style=""font-size: 48px;"">+</p>","null","1","","","","","","",""
"1072.4250000203028","","image-keyboard-response","94","731292","0.0-13.0-2.10","l","41","Images/whistle_3.png","65","1","1583445529933","non-match","whistle","rooster","label","test","true"
"null","","audio-keyboard-response","95","733316","0.0-13.0-3.10","l","41","Sounds/correct.wav","null","1","","","","","","",""
"null","","audio-keyboard-response","96","733894","0.0-13.0-0.11","l","41","Sounds/gun_label.wav","null","1","","","","","","",""
"null","","html-keyboard-response","97","734893","0.0-13.0-1.11","l","41","<p style=""font-size: 48px;"">+</p>","null","1","","","","","","",""
"805.835000006482","","image-keyboard-response","98","735700","0.0-13.0-2.11","l","41","Images/whistle_cartoon.png","65","1","1583445534607","non-match","whistle","gun","label","test","true"
"null","","audio-keyboard-response","99","737715","0.0-13.0-3.11","l","41","Sounds/correct.wav","null","1","","","","","","",""
"null","","audio-keyboard-response","100","738734","0.0-13.0-0.12","l","41","Sounds/cow_label.wav","null","1","","","","","","",""
"null","","html-keyboard-response","101","739726","0.0-13.0-1.12","l","41","<p style=""font-size: 48px;"">+</p>","null","1","","","","","","",""
"597.0950000337325","","image-keyboard-response","102","740325","0.0-13.0-2.12","l","41","Images/cow_cartoon.png","76","1","1583445539441","match","cow","cow","label","test","true"
"null","","audio-keyboard-response","103","742332","0.0-13.0-3.12","l","41","Sounds/correct.wav","null","1","","","","","","",""
"null","","audio-keyboard-response","104","743234","0.0-13.0-0.13","l","41","Sounds/frog_label.wav","null","1","","","","","","",""
"null","","html-keyboard-response","105","744227","0.0-13.0-1.13","l","41","<p style=""font-size: 48px;"">+</p>","null","1","","","","","","",""
"1152.3099999758415","","image-keyboard-response","106","745380","0.0-13.0-2.13","l","41","Images/frog_1.png","76","1","1583445543941","match","frog","frog","label","test","true"
"null","","audio-keyboard-response","107","747397","0.0-13.0-3.13","l","41","Sounds/correct.wav","null","1","","","","","","",""
"null","","audio-keyboard-response","108","748414","0.0-13.0-0.14","l","41","Sounds/cow_sound.wav","null","1","","","","","","",""
"null","","html-keyboard-response","109","749410","0.0-13.0-1.14","l","41","<p style=""font-size: 48px;"">+</p>","null","1","","","","","","",""
"737.0300000184216","","image-keyboard-response","110","750148","0.0-13.0-2.14","l","41","Images/cat_2.png","65","1","1583445549124","non-match","cat","cow","sound","test","true"
"null","","audio-keyboard-response","111","752164","0.0-13.0-3.14","l","41","Sounds/correct.wav","null","1","","","","","","",""
"null","","audio-keyboard-response","112","753034","0.0-13.0-0.15","l","41","Sounds/frog_label.wav","null","1","","","","","","",""
"null","","html-keyboard-response","113","754027","0.0-13.0-1.15","l","41","<p style=""font-size: 48px;"">+</p>","null","1","","","","","","",""
"696.4400000288151","","image-keyboard-response","114","754724","0.0-13.0-2.15","l","41","Images/motorcycle_cartoon.png","65","1","1583445553741","non-match","motorcycle","frog","label","test","true"
"null","","audio-keyboard-response","115","756734","0.0-13.0-3.15","l","41","Sounds/correct.wav","null","1","","","","","","",""
"null","","audio-keyboard-response","116","757434","0.0-13.0-0.16","l","41","Sounds/rooster_label.wav","null","1","","","","","","",""
"null","","html-keyboard-response","117","758427","0.0-13.0-1.16","l","41","<p style=""font-size: 48px;"">+</p>","null","1","","","","","","",""
"744.234999991022","","image-keyboard-response","118","759172","0.0-13.0-2.16","l","41","Images/dog_cartoon.png","65","1","1583445558141","non-match","dog","rooster","label","test","true"
"null","","audio-keyboard-response","119","761182","0.0-13.0-3.16","l","41","Sounds/correct.wav","null","1","","","","","","",""
"null","","audio-keyboard-response","120","762194","0.0-13.0-0.17","l","41","Sounds/cow_label.wav","null","1","","","","","","",""
"null","","html-keyboard-response","121","763193","0.0-13.0-1.17","l","41","<p style=""font-size: 48px;"">+</p>","null","1","","","","","","",""
"569.420000014361","","image-keyboard-response","122","763764","0.0-13.0-2.17","l","41","Images/cow_1.png","76","1","1583445562908","match","cow","cow","label","test","true"
"null","","audio-keyboard-response","123","765781","0.0-13.0-3.17","l","41","Sounds/correct.wav","null","1","","","","","","",""
"null","","audio-keyboard-response","124","766694","0.0-13.0-0.18","l","41","Sounds/frog_sound.wav","null","1","","","","","","",""
"null","","html-keyboard-response","125","767694","0.0-13.0-1.18","l","41","<p style=""font-size: 48px;"">+</p>","null","1","","","","","","",""
"517.5699999672361","","image-keyboard-response","126","768212","0.0-13.0-2.18","l","41","Images/rooster_1.png","65","1","1583445567408","non-match","rooster","frog","sound","test","true"
"null","","audio-keyboard-response","127","770215","0.0-13.0-3.18","l","41","Sounds/correct.wav","null","1","","","","","","",""
"null","","audio-keyboard-response","128","771054","0.0-13.0-0.19","l","41","Sounds/cat_label.wav","null","1","","","","","","",""
"null","","html-keyboard-response","129","772043","0.0-13.0-1.19","l","41","<p style=""font-size: 48px;"">+</p>","null","1","","","","","","",""
"679.6350000076927","","image-keyboard-response","130","772724","0.0-13.0-2.19","l","41","Images/cow_orig.png","65","1","1583445571758","non-match","cow","cat","label","test","true"
"null","","audio-keyboard-response","131","774732","0.0-13.0-3.19","l","41","Sounds/correct.wav","null","1","","","","","","",""
"null","","audio-keyboard-response","132","775434","0.0-13.0-0.20","l","41","Sounds/whistle_sound.wav","null","1","","","","","","",""
"null","","html-keyboard-response","133","776427","0.0-13.0-1.20","l","41","<p style=""font-size: 48px;"">+</p>","null","1","","","","","","",""
"872.2600000328384","","image-keyboard-response","134","777300","0.0-13.0-2.20","l","41","Images/frog_cartoon.png","65","1","1583445576141","non-match","frog","whistle","sound","test","true"
"null","","audio-keyboard-response","135","779316","0.0-13.0-3.20","l","41","Sounds/correct.wav","null","1","","","","","","",""
"null","","audio-keyboard-response","136","780394","0.0-13.0-0.21","l","41","Sounds/car_label.wav","null","1","","","","","","",""
"null","","html-keyboard-response","137","781394","0.0-13.0-1.21","l","41","<p style=""font-size: 48px;"">+</p>","null","1","","","","","","",""
"881.2950000283308","","image-keyboard-response","138","782276","0.0-13.0-2.21","l","41","Images/car_1.png","76","1","1583445581108","match","car","car","label","test","true"
"null","","audio-keyboard-response","139","784282","0.0-13.0-3.21","l","41","Sounds/correct.wav","null","1","","","","","","",""
"null","","audio-keyboard-response","140","785194","0.0-13.0-0.22","l","41","Sounds/frog_label.wav","null","1","","","","","","",""
"null","","html-keyboard-response","141","786194","0.0-13.0-1.22","l","41","<p style=""font-size: 48px;"">+</p>","null","1","","","","","","",""
"1137.604999996256","","image-keyboard-response","142","787332","0.0-13.0-2.22","l","41","Images/cat_3.png","65","1","1583445585908","non-match","cat","frog","label","test","true"
"null","","audio-keyboard-response","143","789343","0.0-13.0-3.22","l","41","Sounds/correct.wav","null","1","","","","","","",""
"null","","audio-keyboard-response","144","789914","0.0-13.0-0.23","l","41","Sounds/gun_label.wav","null","1","","","","","","",""
"null","","html-keyboard-response","145","790910","0.0-13.0-1.23","l","41","<p style=""font-size: 48px;"">+</p>","null","1","","","","","","",""
"516.5149999666028","","image-keyboard-response","146","791428","0.0-13.0-2.23","l","41","Images/gun_orig.png","76","1","1583445590625","match","gun","gun","label","test","true"
"null","","audio-keyboard-response","147","793432","0.0-13.0-3.23","l","41","Sounds/correct.wav","null","1","","","","","","",""
"null","","audio-keyboard-response","148","794134","0.0-13.0-0.24","l","41","Sounds/whistle_sound.wav","null","1","","","","","","",""
"null","","html-keyboard-response","149","795127","0.0-13.0-1.24","l","41","<p style=""font-size: 48px;"">+</p>","null","1","","","","","","",""
"716.0499999881722","","image-keyboard-response","150","795845","0.0-13.0-2.24","l","41","Images/whistle_3.png","76","1","1583445594842","match","whistle","whistle","sound","test","true"
"null","","audio-keyboard-response","151","797851","0.0-13.0-3.24","l","41","Sounds/correct.wav","null","1","","","","","","",""
"null","","audio-keyboard-response","152","798874","0.0-13.0-0.25","l","41","Sounds/cow_label.wav","null","1","","","","","","",""
"null","","html-keyboard-response","153","799877","0.0-13.0-1.25","l","41","<p style=""font-size: 48px;"">+</p>","null","1","","","","","","",""
"414.0400000032969","","image-keyboard-response","154","800292","0.0-13.0-2.25","l","41","Images/gun_cartoon.png","65","1","1583445599592","non-match","gun","cow","label","test","true"
"null","","audio-keyboard-response","155","802300","0.0-13.0-3.25","l","41","Sounds/correct.wav","null","1","","","","","","",""
"null","","audio-keyboard-response","156","802994","0.0-13.0-0.26","l","41","Sounds/whistle_label.wav","null","1","","","","","","",""
"null","","html-keyboard-response","157","803994","0.0-13.0-1.26","l","41","<p style=""font-size: 48px;"">+</p>","null","1","","","","","","",""
"681.125000002794","","image-keyboard-response","158","804676","0.0-13.0-2.26","l","41","Images/whistle_orig.png","76","1","1583445603709","match","whistle","whistle","label","test","true"
"null","","audio-keyboard-response","159","806683","0.0-13.0-3.26","l","41","Sounds/correct.wav","null","1","","","","","","",""
"null","","audio-keyboard-response","160","807814","0.0-13.0-0.27","l","41","Sounds/motorcycle_sound.wav","null","1","","","","","","",""
"null","","html-keyboard-response","161","808811","0.0-13.0-1.27","l","41","<p style=""font-size: 48px;"">+</p>","null","1","","","","","","",""
"616.5449999971315","","image-keyboard-response","162","809429","0.0-13.0-2.27","l","41","Images/whistle_2.png","65","1","1583445608525","non-match","whistle","motorcycle","sound","test","true"
"null","","audio-keyboard-response","163","811433","0.0-13.0-3.27","l","41","Sounds/correct.wav","null","1","","","","","","",""
"null","","audio-keyboard-response","164","812534","0.0-13.0-0.28","l","41","Sounds/motorcycle_sound.wav","null","1","","","","","","",""
"null","","html-keyboard-response","165","813528","0.0-13.0-1.28","l","41","<p style=""font-size: 48px;"">+</p>","null","1","","","","","","",""
"491.6549999616109","","image-keyboard-response","166","814020","0.0-13.0-2.28","l","41","Images/motorcycle_cartoon.png","76","1","1583445613242","match","motorcycle","motorcycle","sound","test","true"
"null","","audio-keyboard-response","167","816030","0.0-13.0-3.28","l","41","Sounds/correct.wav","null","1","","","","","","",""
"null","","audio-keyboard-response","168","817314","0.0-13.0-0.29","l","41","Sounds/train_label.wav","null","1","","","","","","",""
"null","","html-keyboard-response","169","818311","0.0-13.0-1.29","l","41","<p style=""font-size: 48px;"">+</p>","null","1","","","","","","",""
"668.4099999838509","","image-keyboard-response","170","818980","0.0-13.0-2.29","l","41","Images/train_3.png","76","1","1583445618025","match","train","train","label","test","true"
"null","","audio-keyboard-response","171","820983","0.0-13.0-3.29","l","41","Sounds/correct.wav","null","1","","","","","","",""
"null","","audio-keyboard-response","172","822014","0.0-13.0-0.30","l","41","Sounds/cow_sound.wav","null","1","","","","","","",""
"null","","html-keyboard-response","173","823011","0.0-13.0-1.30","l","41","<p style=""font-size: 48px;"">+</p>","null","1","","","","","","",""
"736.5149999968708","","image-keyboard-response","174","823749","0.0-13.0-2.30","l","41","Images/cow_2.png","76","1","1583445622725","match","cow","cow","sound","test","true"
"null","","audio-keyboard-response","175","825765","0.0-13.0-3.30","l","41","Sounds/correct.wav","null","1","","","","","","",""
"null","","audio-keyboard-response","176","826854","0.0-13.0-0.31","l","41","Sounds/car_label.wav","null","1","","","","","","",""
"null","","html-keyboard-response","177","827844","0.0-13.0-1.31","l","41","<p style=""font-size: 48px;"">+</p>","null","1","","","","","","",""
"719.0350000164472","","image-keyboard-response","178","828564","0.0-13.0-2.31","l","41","Images/cat_1.png","65","1","1583445627559","non-match","cat","car","label","test","true"
"null","","audio-keyboard-response","179","830568","0.0-13.0-3.31","l","41","Sounds/correct.wav","null","1","","","","","","",""
"null","","audio-keyboard-response","180","831154","0.0-13.0-0.32","l","41","Sounds/gun_label.wav","null","1","","","","","","",""
"null","","html-keyboard-response","181","832144","0.0-13.0-1.32","l","41","<p style=""font-size: 48px;"">+</p>","null","1","","","","","","",""
"642.8050000104122","","image-keyboard-response","182","832788","0.0-13.0-2.32","l","41","Images/gun_1.png","76","1","1583445631859","match","gun","gun","label","test","true"
"null","","audio-keyboard-response","183","834798","0.0-13.0-3.32","l","41","Sounds/correct.wav","null","1","","","","","","",""
"null","","audio-keyboard-response","184","835854","0.0-13.0-0.33","l","41","Sounds/car_label.wav","null","1","","","","","","",""
"null","","html-keyboard-response","185","836845","0.0-13.0-1.33","l","41","<p style=""font-size: 48px;"">+</p>","null","1","","","","","","",""
"774.9949999852106","","image-keyboard-response","186","837621","0.0-13.0-2.33","l","41","Images/gun_2.png","65","1","1583445636559","non-match","gun","car","label","test","true"
"null","","audio-keyboard-response","187","839631","0.0-13.0-3.33","l","41","Sounds/correct.wav","null","1","","","","","","",""
"null","","audio-keyboard-response","188","840714","0.0-13.0-0.34","l","41","Sounds/car_sound.wav","null","1","","","","","","",""
"null","","html-keyboard-response","189","841711","0.0-13.0-1.34","l","41","<p style=""font-size: 48px;"">+</p>","null","1","","","","","","",""
"2531.955000013113","","image-keyboard-response","190","844244","0.0-13.0-2.34","l","41","Images/car_3.png","76","1","1583445641425","match","car","car","sound","test","true"
"null","","audio-keyboard-response","191","846253","0.0-13.0-3.34","l","41","Sounds/correct.wav","null","1","","","","","","",""
"null","","audio-keyboard-response","192","846974","0.0-13.0-0.35","l","41","Sounds/dog_sound.wav","null","1","","","","","","",""
"null","","html-keyboard-response","193","847978","0.0-13.0-1.35","l","41","<p style=""font-size: 48px;"">+</p>","null","1","","","","","","",""
"505.4999999701977","","image-keyboard-response","194","848485","0.0-13.0-2.35","l","41","Images/dog_cartoon.png","76","1","1583445647692","match","dog","dog","sound","test","true"
"null","","audio-keyboard-response","195","850499","0.0-13.0-3.35","l","41","Sounds/correct.wav","null","1","","","","","","",""
"null","","audio-keyboard-response","196","851074","0.0-13.0-0.36","l","41","Sounds/gun_sound.wav","null","1","","","","","","",""
"null","","html-keyboard-response","197","852078","0.0-13.0-1.36","l","41","<p style=""font-size: 48px;"">+</p>","null","1","","","","","","",""
"597.3000000230968","","image-keyboard-response","198","852676","0.0-13.0-2.36","l","41","Images/motorcycle_1.png","65","1","1583445651792","non-match","motorcycle","gun","sound","test","true"
"null","","audio-keyboard-response","199","854687","0.0-13.0-3.36","l","41","Sounds/correct.wav","null","1","","","","","","",""
"null","","audio-keyboard-response","200","855594","0.0-13.0-0.37","l","41","Sounds/frog_sound.wav","null","1","","","","","","",""
"null","","html-keyboard-response","201","856595","0.0-13.0-1.37","l","41","<p style=""font-size: 48px;"">+</p>","null","1","","","","","","",""
"448.55999998981133","","image-keyboard-response","202","857044","0.0-13.0-2.37","l","41","Images/frog_2.png","76","1","1583445656309","match","frog","frog","sound","test","true"
"null","","audio-keyboard-response","203","859052","0.0-13.0-3.37","l","41","Sounds/correct.wav","null","1","","","","","","",""
"null","","audio-keyboard-response","204","860335","0.0-13.0-0.38","l","41","Sounds/train_label.wav","null","1","","","","","","",""
"null","","html-keyboard-response","205","861328","0.0-13.0-1.38","l","41","<p style=""font-size: 48px;"">+</p>","null","1","","","","","","",""
"1203.2949999556877","","image-keyboard-response","206","862533","0.0-13.0-2.38","l","41","Images/train_cartoon.png","76","1","1583445661042","match","train","train","label","test","true"
"null","","audio-keyboard-response","207","864538","0.0-13.0-3.38","l","41","Sounds/correct.wav","null","1","","","","","","",""
"null","","audio-keyboard-response","208","865374","0.0-13.0-0.39","l","41","Sounds/cat_sound.wav","null","1","","","","","","",""
"null","","html-keyboard-response","209","866378","0.0-13.0-1.39","l","41","<p style=""font-size: 48px;"">+</p>","null","1","","","","","","",""
"552.8899999917485","","image-keyboard-response","210","866933","0.0-13.0-2.39","l","41","Images/cat_1.png","76","1","1583445666092","match","cat","cat","sound","test","true"
"null","","audio-keyboard-response","211","868949","0.0-13.0-3.39","l","41","Sounds/correct.wav","null","1","","","","","","",""
"null","","audio-keyboard-response","212","869614","0.0-13.0-0.40","l","41","Sounds/dog_label.wav","null","1","","","","","","",""
"null","","html-keyboard-response","213","870612","0.0-13.0-1.40","l","41","<p style=""font-size: 48px;"">+</p>","null","1","","","","","","",""
"655.9299999498762","","image-keyboard-response","214","871269","0.0-13.0-2.40","l","41","Images/car_cartoon.png","65","1","1583445670326","non-match","car","dog","label","test","true"
"null","","audio-keyboard-response","215","873284","0.0-13.0-3.40","l","41","Sounds/correct.wav","null","1","","","","","","",""
"null","","audio-keyboard-response","216","874594","0.0-13.0-0.41","l","41","Sounds/train_sound.wav","null","1","","","","","","",""
"null","","html-keyboard-response","217","875612","0.0-13.0-1.41","l","41","<p style=""font-size: 48px;"">+</p>","null","1","","","","","","",""
"648.1399999465793","","image-keyboard-response","218","876261","0.0-13.0-2.41","l","41","Images/whistle_1.png","65","1","1583445675326","non-match","whistle","train","sound","test","true"
"null","","audio-keyboard-response","219","878270","0.0-13.0-3.41","l","41","Sounds/correct.wav","null","1","","","","","","",""
"null","","audio-keyboard-response","220","879354","0.0-13.0-0.42","l","41","Sounds/car_label.wav","null","1","","","","","","",""
"null","","html-keyboard-response","221","880345","0.0-13.0-1.42","l","41","<p style=""font-size: 48px;"">+</p>","null","1","","","","","","",""
"874.5400000480004","","image-keyboard-response","222","881221","0.0-13.0-2.42","l","41","Images/car_cartoon.png","65","1","1583445680059","match","car","car","label","test","false"
"null","","audio-keyboard-response","223","883232","0.0-13.0-3.42","l","41","Sounds/incorrect.wav","null","1","","","","","","",""
"null","","audio-keyboard-response","224","883934","0.0-13.0-0.43","l","41","Sounds/dog_sound.wav","null","1","","","","","","",""
"null","","html-keyboard-response","225","884929","0.0-13.0-1.43","l","41","<p style=""font-size: 48px;"">+</p>","null","1","","","","","","",""
"1539.1099999542348","","image-keyboard-response","226","886469","0.0-13.0-2.43","l","41","Images/cow_1.png","65","1","1583445684643","non-match","cow","dog","sound","test","true"
"null","","audio-keyboard-response","227","888473","0.0-13.0-3.43","l","41","Sounds/correct.wav","null","1","","","","","","",""
"null","","audio-keyboard-response","228","889594","0.0-13.0-0.44","l","41","Sounds/motorcycle_sound.wav","null","1","","","","","","",""
"null","","html-keyboard-response","229","890629","0.0-13.0-1.44","l","41","<p style=""font-size: 48px;"">+</p>","null","1","","","","","","",""
"1054.8100000014529","","image-keyboard-response","230","891684","0.0-13.0-2.44","l","41","Images/motorcycle_2.png","65","1","1583445690343","match","motorcycle","motorcycle","sound","test","false"
"null","","audio-keyboard-response","231","893699","0.0-13.0-3.44","l","41","Sounds/incorrect.wav","null","1","","","","","","",""
"null","","audio-keyboard-response","232","894394","0.0-13.0-0.45","l","41","Sounds/dog_sound.wav","null","1","","","","","","",""
"null","","html-keyboard-response","233","895429","0.0-13.0-1.45","l","41","<p style=""font-size: 48px;"">+</p>","null","1","","","","","","",""
"606.8649999797344","","image-keyboard-response","234","896037","0.0-13.0-2.45","l","41","Images/dog_orig.png","76","1","1583445695143","match","dog","dog","sound","test","true"
"null","","audio-keyboard-response","235","898050","0.0-13.0-3.45","l","41","Sounds/correct.wav","null","1","","","","","","",""
"null","","audio-keyboard-response","236","898714","0.0-13.0-0.46","l","41","Sounds/dog_label.wav","null","1","","","","","","",""
"null","","html-keyboard-response","237","899713","0.0-13.0-1.46","l","41","<p style=""font-size: 48px;"">+</p>","null","1","","","","","","",""
"802.399999985937","","image-keyboard-response","238","900517","0.0-13.0-2.46","l","41","Images/dog_2.png","76","1","1583445699426","match","dog","dog","label","test","true"
"null","","audio-keyboard-response","239","902533","0.0-13.0-3.46","l","41","Sounds/correct.wav","null","1","","","","","","",""
"null","","audio-keyboard-response","240","903555","0.0-13.0-0.47","l","41","Sounds/cow_sound.wav","null","1","","","","","","",""
"null","","html-keyboard-response","241","904545","0.0-13.0-1.47","l","41","<p style=""font-size: 48px;"">+</p>","null","1","","","","","","",""
"497.9200000525452","","image-keyboard-response","242","905044","0.0-13.0-2.47","l","41","Images/frog_3.png","65","1","1583445704260","non-match","frog","cow","sound","test","true"
"null","","audio-keyboard-response","243","907052","0.0-13.0-3.47","l","41","Sounds/correct.wav","null","1","","","","","","",""
"null","","audio-keyboard-response","244","907754","0.0-13.0-0.48","l","41","Sounds/whistle_label.wav","null","1","","","","","","",""
"null","","html-keyboard-response","245","908745","0.0-13.0-1.48","l","41","<p style=""font-size: 48px;"">+</p>","null","1","","","","","","",""
"1450.0349999871105","","image-keyboard-response","246","910197","0.0-13.0-2.48","l","41","Images/car_orig.png","65","1","1583445708460","non-match","car","whistle","label","test","true"
"null","","audio-keyboard-response","247","912207","0.0-13.0-3.48","l","41","Sounds/correct.wav","null","1","","","","","","",""
"null","","audio-keyboard-response","248","912834","0.0-13.0-0.49","l","41","Sounds/dog_label.wav","null","1","","","","","","",""
"null","","html-keyboard-response","249","913829","0.0-13.0-1.49","l","41","<p style=""font-size: 48px;"">+</p>","null","1","","","","","","",""
"526.6949999495409","","image-keyboard-response","250","914357","0.0-13.0-2.49","l","41","Images/rooster_cartoon.png","65","1","1583445713543","non-match","rooster","dog","label","test","true"
"null","","audio-keyboard-response","251","916365","0.0-13.0-3.49","l","41","Sounds/correct.wav","null","1","","","","","","",""
"null","","audio-keyboard-response","252","917074","0.0-13.0-0.50","l","41","Sounds/whistle_sound.wav","null","1","","","","","","",""
"null","","html-keyboard-response","253","918079","0.0-13.0-1.50","l","41","<p style=""font-size: 48px;"">+</p>","null","1","","","","","","",""
"420.20499997306615","","image-keyboard-response","254","918500","0.0-13.0-2.50","l","41","Images/dog_2.png","65","1","1583445717793","non-match","dog","whistle","sound","test","true"
"null","","audio-keyboard-response","255","920518","0.0-13.0-3.50","l","41","Sounds/correct.wav","null","1","","","","","","",""
"null","","audio-keyboard-response","256","921594","0.0-13.0-0.51","l","41","Sounds/car_label.wav","null","1","","","","","","",""
"null","","html-keyboard-response","257","922612","0.0-13.0-1.51","l","41","<p style=""font-size: 48px;"">+</p>","null","1","","","","","","",""
"671.3549999985844","","image-keyboard-response","258","923285","0.0-13.0-2.51","l","41","Images/whistle_orig.png","65","1","1583445722326","non-match","whistle","car","label","test","true"
"null","","audio-keyboard-response","259","925301","0.0-13.0-3.51","l","41","Sounds/correct.wav","null","1","","","","","","",""
"null","","audio-keyboard-response","260","926354","0.0-13.0-0.52","l","41","Sounds/car_label.wav","null","1","","","","","","",""
"null","","html-keyboard-response","261","927346","0.0-13.0-1.52","l","41","<p style=""font-size: 48px;"">+</p>","null","1","","","","","","",""
"481.9450000068173","","image-keyboard-response","262","927829","0.0-13.0-2.52","l","41","Images/car_2.png","76","1","1583445727060","match","car","car","label","test","true"
"null","","audio-keyboard-response","263","929836","0.0-13.0-3.52","l","41","Sounds/correct.wav","null","1","","","","","","",""
"null","","audio-keyboard-response","264","930554","0.0-13.0-0.53","l","41","Sounds/dog_sound.wav","null","1","","","","","","",""
"null","","html-keyboard-response","265","931546","0.0-13.0-1.53","l","41","<p style=""font-size: 48px;"">+</p>","null","1","","","","","","",""
"921.909999975469","","image-keyboard-response","266","932469","0.0-13.0-2.53","l","41","Images/motorcycle_2.png","65","1","1583445731260","non-match","motorcycle","dog","sound","test","true"
"null","","audio-keyboard-response","267","934484","0.0-13.0-3.53","l","41","Sounds/correct.wav","null","1","","","","","","",""
"null","","audio-keyboard-response","268","935534","0.0-13.0-0.54","l","41","Sounds/car_label.wav","null","1","","","","","","",""
"null","","html-keyboard-response","269","936529","0.0-13.0-1.54","l","41","<p style=""font-size: 48px;"">+</p>","null","1","","","","","","",""
"578.3000000519678","","image-keyboard-response","270","937109","0.0-13.0-2.54","l","41","Images/cow_2.png","65","1","1583445736243","non-match","cow","car","label","test","true"
"null","","audio-keyboard-response","271","939119","0.0-13.0-3.54","l","41","Sounds/correct.wav","null","1","","","","","","",""
"null","","audio-keyboard-response","272","940234","0.0-13.0-0.55","l","41","Sounds/motorcycle_sound.wav","null","1","","","","","","",""
"null","","html-keyboard-response","273","941229","0.0-13.0-1.55","l","41","<p style=""font-size: 48px;"">+</p>","null","1","","","","","","",""
"790.2400000020862","","image-keyboard-response","274","942021","0.0-13.0-2.55","l","41","Images/cat_cartoon.png","65","1","1583445740943","non-match","cat","motorcycle","sound","test","true"
"null","","audio-keyboard-response","275","944038","0.0-13.0-3.55","l","41","Sounds/correct.wav","null","1","","","","","","",""
"null","","audio-keyboard-response","276","945114","0.0-13.0-0.56","l","41","Sounds/car_sound.wav","null","1","","","","","","",""
"null","","html-keyboard-response","277","946112","0.0-13.0-1.56","l","41","<p style=""font-size: 48px;"">+</p>","null","1","","","","","","",""
"578.9749999530613","","image-keyboard-response","278","946693","0.0-13.0-2.56","l","41","Images/car_orig.png","76","1","1583445745827","match","car","car","sound","test","true"
"null","","audio-keyboard-response","279","948703","0.0-13.0-3.56","l","41","Sounds/correct.wav","null","1","","","","","","",""
"null","","audio-keyboard-response","280","949534","0.0-13.0-0.57","l","41","Sounds/cat_label.wav","null","1","","","","","","",""
"null","","html-keyboard-response","281","950529","0.0-13.0-1.57","l","41","<p style=""font-size: 48px;"">+</p>","null","1","","","","","","",""
"658.2199999829754","","image-keyboard-response","282","951189","0.0-13.0-2.57","l","41","Images/cat_orig.png","76","1","1583445750243","match","cat","cat","label","test","true"
"null","","audio-keyboard-response","283","953201","0.0-13.0-3.57","l","41","Sounds/correct.wav","null","1","","","","","","",""
"null","","audio-keyboard-response","284","953774","0.0-13.0-0.58","l","41","Sounds/gun_sound.wav","null","1","","","","","","",""
"null","","html-keyboard-response","285","954779","0.0-13.0-1.58","l","41","<p style=""font-size: 48px;"">+</p>","null","1","","","","","","",""
"1080.1149999606423","","image-keyboard-response","286","955861","0.0-13.0-2.58","l","41","Images/gun_3.png","76","1","1583445754494","match","gun","gun","sound","test","true"
"null","","audio-keyboard-response","287","957868","0.0-13.0-3.58","l","41","Sounds/correct.wav","null","1","","","","","","",""
"null","","audio-keyboard-response","288","958775","0.0-13.0-0.59","l","41","Sounds/frog_label.wav","null","1","","","","","","",""
"null","","html-keyboard-response","289","959779","0.0-13.0-1.59","l","41","<p style=""font-size: 48px;"">+</p>","null","1","","","","","","",""
"672.1499999985099","","image-keyboard-response","290","960453","0.0-13.0-2.59","l","41","Images/gun_3.png","65","1","1583445759494","non-match","gun","frog","label","test","true"
"null","","audio-keyboard-response","291","962467","0.0-13.0-3.59","l","41","Sounds/correct.wav","null","1","","","","","","",""
"null","","audio-keyboard-response","292","963754","0.0-13.0-0.60","l","41","Sounds/train_label.wav","null","1","","","","","","",""
"null","","html-keyboard-response","293","964746","0.0-13.0-1.60","l","41","<p style=""font-size: 48px;"">+</p>","null","1","","","","","","",""
"616.855000029318","","image-keyboard-response","294","965365","0.0-13.0-2.60","l","41","Images/dog_orig.png","65","1","1583445764460","non-match","dog","train","label","test","true"
"null","","audio-keyboard-response","295","967369","0.0-13.0-3.60","l","41","Sounds/correct.wav","null","1","","","","","","",""
"null","","audio-keyboard-response","296","968074","0.0-13.0-0.61","l","41","Sounds/rooster_sound.wav","null","1","","","","","","",""
"null","","html-keyboard-response","297","969063","0.0-13.0-1.61","l","41","<p style=""font-size: 48px;"">+</p>","null","1","","","","","","",""
"732.9300000565127","","image-keyboard-response","298","969797","0.0-13.0-2.61","l","41","Images/rooster_3.png","76","1","1583445768777","match","rooster","rooster","sound","test","true"
"null","","audio-keyboard-response","299","971802","0.0-13.0-3.61","l","41","Sounds/correct.wav","null","1","","","","","","",""
"null","","audio-keyboard-response","300","972815","0.0-13.0-0.62","l","41","Sounds/cow_sound.wav","null","1","","","","","","",""
"null","","html-keyboard-response","301","973813","0.0-13.0-1.62","l","41","<p style=""font-size: 48px;"">+</p>","null","1","","","","","","",""
"526.6549999942072","","image-keyboard-response","302","974341","0.0-13.0-2.62","l","41","Images/rooster_2.png","65","1","1583445773527","non-match","rooster","cow","sound","test","true"
"null","","audio-keyboard-response","303","976349","0.0-13.0-3.62","l","41","Sounds/correct.wav","null","1","","","","","","",""
"null","","audio-keyboard-response","304","977494","0.0-13.0-0.63","l","41","Sounds/motorcycle_label.wav","null","1","","","","","","",""
"null","","html-keyboard-response","305","978496","0.0-13.0-1.63","l","41","<p style=""font-size: 48px;"">+</p>","null","1","","","","","","",""
"531.2799999956042","","image-keyboard-response","306","979029","0.0-13.0-2.63","l","41","Images/motorcycle_orig.png","76","1","1583445778210","match","motorcycle","motorcycle","label","test","true"
"null","","audio-keyboard-response","307","981038","0.0-13.0-3.63","l","41","Sounds/correct.wav","null","1","","","","","","",""
"null","","audio-keyboard-response","308","981734","0.0-13.0-0.64","l","41","Sounds/rooster_label.wav","null","1","","","","","","",""
"null","","html-keyboard-response","309","982730","0.0-13.0-1.64","l","41","<p style=""font-size: 48px;"">+</p>","null","1","","","","","","",""
"1545.9549999795854","","image-keyboard-response","310","984277","0.0-13.0-2.64","l","41","Images/rooster_cartoon.png","76","1","1583445782444","match","rooster","rooster","label","test","true"
"null","","audio-keyboard-response","311","986288","0.0-13.0-3.64","l","41","Sounds/correct.wav","null","1","","","","","","",""
"null","","audio-keyboard-response","312","987134","0.0-13.0-0.65","l","41","Sounds/cat_sound.wav","null","1","","","","","","",""
"null","","html-keyboard-response","313","988130","0.0-13.0-1.65","l","41","<p style=""font-size: 48px;"">+</p>","null","1","","","","","","",""
"481.75500001525506","","image-keyboard-response","314","988612","0.0-13.0-2.65","l","41","Images/cat_cartoon.png","76","1","1583445787844","match","cat","cat","sound","test","true"
"null","","audio-keyboard-response","315","990619","0.0-13.0-3.65","l","41","Sounds/correct.wav","null","1","","","","","","",""
"null","","audio-keyboard-response","316","991314","0.0-13.0-0.66","l","41","Sounds/rooster_sound.wav","null","1","","","","","","",""
"null","","html-keyboard-response","317","992313","0.0-13.0-1.66","l","41","<p style=""font-size: 48px;"">+</p>","null","1","","","","","","",""
"762.4400000204332","","image-keyboard-response","318","993077","0.0-13.0-2.66","l","41","Images/car_3.png","65","1","1583445792027","non-match","car","rooster","sound","test","true"
"null","","audio-keyboard-response","319","995085","0.0-13.0-3.66","l","41","Sounds/correct.wav","null","1","","","","","","",""
"null","","audio-keyboard-response","320","996215","0.0-13.0-0.67","l","41","Sounds/motorcycle_label.wav","null","1","","","","","","",""
"null","","html-keyboard-response","321","997213","0.0-13.0-1.67","l","41","<p style=""font-size: 48px;"">+</p>","null","1","","","","","","",""
"822.5450000027195","","image-keyboard-response","322","998037","0.0-13.0-2.67","l","41","Images/train_3.png","65","1","1583445796927","non-match","train","motorcycle","label","test","true"
"null","","audio-keyboard-response","323","1000052","0.0-13.0-3.67","l","41","Sounds/correct.wav","null","1","","","","","","",""
"null","","audio-keyboard-response","324","1001355","0.0-13.0-0.68","l","41","Sounds/train_sound.wav","null","1","","","","","","",""
"null","","html-keyboard-response","325","1002346","0.0-13.0-1.68","l","41","<p style=""font-size: 48px;"">+</p>","null","1","","","","","","",""
"1064.8500000243075","","image-keyboard-response","326","1003413","0.0-13.0-2.68","l","41","Images/train_orig.png","76","1","1583445802061","match","train","train","sound","test","true"
"null","","audio-keyboard-response","327","1005421","0.0-13.0-3.68","l","41","Sounds/correct.wav","null","1","","","","","","",""
"null","","audio-keyboard-response","328","1006435","0.0-13.0-0.69","l","41","Sounds/cow_sound.wav","null","1","","","","","","",""
"null","","html-keyboard-response","329","1007430","0.0-13.0-1.69","l","41","<p style=""font-size: 48px;"">+</p>","null","1","","","","","","",""
"637.8849999746308","","image-keyboard-response","330","1008069","0.0-13.0-2.69","l","41","Images/cow_orig.png","76","1","1583445807144","match","cow","cow","sound","test","true"
"null","","audio-keyboard-response","331","1010084","0.0-13.0-3.69","l","41","Sounds/correct.wav","null","1","","","","","","",""
"null","","audio-keyboard-response","332","1011375","0.0-13.0-0.70","l","41","Sounds/train_label.wav","null","1","","","","","","",""
"null","","html-keyboard-response","333","1012380","0.0-13.0-1.70","l","41","<p style=""font-size: 48px;"">+</p>","null","1","","","","","","",""
"567.2500000218861","","image-keyboard-response","334","1012949","0.0-13.0-2.70","l","41","Images/cat_orig.png","65","1","1583445812094","non-match","cat","train","label","test","true"
"null","","audio-keyboard-response","335","1014952","0.0-13.0-3.70","l","41","Sounds/correct.wav","null","1","","","","","","",""
"null","","audio-keyboard-response","336","1015935","0.0-13.0-0.71","l","41","Sounds/cow_sound.wav","null","1","","","","","","",""
"null","","html-keyboard-response","337","1016930","0.0-13.0-1.71","l","41","<p style=""font-size: 48px;"">+</p>","null","1","","","","","","",""
"625.6750000175089","","image-keyboard-response","338","1017557","0.0-13.0-2.71","l","41","Images/cow_3.png","76","1","1583445816644","match","cow","cow","sound","test","true"
"null","","audio-keyboard-response","339","1019567","0.0-13.0-3.71","l","41","Sounds/correct.wav","null","1","","","","","","",""
"null","","audio-keyboard-response","340","1020235","0.0-13.0-0.72","l","41","Sounds/dog_label.wav","null","1","","","","","","",""
"null","","html-keyboard-response","341","1021230","0.0-13.0-1.72","l","41","<p style=""font-size: 48px;"">+</p>","null","1","","","","","","",""
"469.8199999984354","","image-keyboard-response","342","1021701","0.0-13.0-2.72","l","41","Images/dog_1.png","76","1","1583445820944","match","dog","dog","label","test","true"
"null","","audio-keyboard-response","343","1023703","0.0-13.0-3.72","l","41","Sounds/correct.wav","null","1","","","","","","",""
"null","","audio-keyboard-response","344","1024295","0.0-13.0-0.73","l","41","Sounds/gun_sound.wav","null","1","","","","","","",""
"null","","html-keyboard-response","345","1025297","0.0-13.0-1.73","l","41","<p style=""font-size: 48px;"">+</p>","null","1","","","","","","",""
"514.7049999795854","","image-keyboard-response","346","1025813","0.0-13.0-2.73","l","41","Images/gun_2.png","76","1","1583445825011","match","gun","gun","sound","test","true"
"null","","audio-keyboard-response","347","1027820","0.0-13.0-3.73","l","41","Sounds/correct.wav","null","1","","","","","","",""
"null","","audio-keyboard-response","348","1028514","0.0-13.0-0.74","l","41","Sounds/rooster_label.wav","null","1","","","","","","",""
"null","","html-keyboard-response","349","1029514","0.0-13.0-1.74","l","41","<p style=""font-size: 48px;"">+</p>","null","1","","","","","","",""
"505.9349999646656","","image-keyboard-response","350","1030021","0.0-13.0-2.74","l","41","Images/train_cartoon.png","65","1","1583445829228","non-match","train","rooster","label","test","true"
"null","","audio-keyboard-response","351","1032037","0.0-13.0-3.74","l","41","Sounds/correct.wav","null","1","","","","","","",""
"null","","audio-keyboard-response","352","1032595","0.0-13.0-0.75","l","41","Sounds/gun_sound.wav","null","1","","","","","","",""
"null","","html-keyboard-response","353","1033597","0.0-13.0-1.75","l","41","<p style=""font-size: 48px;"">+</p>","null","1","","","","","","",""
"487.0050000026822","","image-keyboard-response","354","1034085","0.0-13.0-2.75","l","41","Images/car_1.png","65","1","1583445833311","non-match","car","gun","sound","test","true"
"null","","audio-keyboard-response","355","1036101","0.0-13.0-3.75","l","41","Sounds/correct.wav","null","1","","","","","","",""
"null","","audio-keyboard-response","356","1036815","0.0-13.0-0.76","l","41","Sounds/rooster_sound.wav","null","1","","","","","","",""
"null","","html-keyboard-response","357","1037814","0.0-13.0-1.76","l","41","<p style=""font-size: 48px;"">+</p>","null","1","","","","","","",""
"654.0200000163168","","image-keyboard-response","358","1038469","0.0-13.0-2.76","l","41","Images/frog_1.png","65","1","1583445837528","non-match","frog","rooster","sound","test","true"
"null","","audio-keyboard-response","359","1040484","0.0-13.0-3.76","l","41","Sounds/correct.wav","null","1","","","","","","",""
"null","","audio-keyboard-response","360","1041635","0.0-13.0-0.77","l","41","Sounds/motorcycle_label.wav","null","1","","","","","","",""
"null","","html-keyboard-response","361","1042631","0.0-13.0-1.77","l","41","<p style=""font-size: 48px;"">+</p>","null","1","","","","","","",""
"525.2850000397302","","image-keyboard-response","362","1043157","0.0-13.0-2.77","l","41","Images/gun_orig.png","65","1","1583445842345","non-match","gun","motorcycle","label","test","true"
"null","","audio-keyboard-response","363","1045167","0.0-13.0-3.77","l","41","Sounds/correct.wav","null","1","","","","","","",""
"null","","audio-keyboard-response","364","1046015","0.0-13.0-0.78","l","41","Sounds/cat_label.wav","null","1","","","","","","",""
"null","","html-keyboard-response","365","1047014","0.0-13.0-1.78","l","41","<p style=""font-size: 48px;"">+</p>","null","1","","","","","","",""
"589.9550000322051","","image-keyboard-response","366","1047605","0.0-13.0-2.78","l","41","Images/dog_1.png","65","1","1583445846728","non-match","dog","cat","label","test","true"
"null","","audio-keyboard-response","367","1049619","0.0-13.0-3.78","l","41","Sounds/correct.wav","null","1","","","","","","",""
"null","","audio-keyboard-response","368","1050315","0.0-13.0-0.79","l","41","Sounds/whistle_label.wav","null","1","","","","","","",""
"null","","html-keyboard-response","369","1051314","0.0-13.0-1.79","l","41","<p style=""font-size: 48px;"">+</p>","null","1","","","","","","",""
"769.7599999955855","","image-keyboard-response","370","1052085","0.0-13.0-2.79","l","41","Images/whistle_1.png","76","1","1583445851028","match","whistle","whistle","label","test","true"
"null","","audio-keyboard-response","371","1054102","0.0-13.0-3.79","l","41","Sounds/correct.wav","null","1","","","","","","",""
"null","","audio-keyboard-response","372","1055175","0.0-13.0-0.80","l","41","Sounds/car_sound.wav","null","1","","","","","","",""
"null","","html-keyboard-response","373","1056181","0.0-13.0-1.80","l","41","<p style=""font-size: 48px;"">+</p>","null","1","","","","","","",""
"526.7599999788217","","image-keyboard-response","374","1056709","0.0-13.0-2.80","l","41","Images/motorcycle_3.png","65","1","1583445855895","non-match","motorcycle","car","sound","test","true"
"null","","audio-keyboard-response","375","1058719","0.0-13.0-3.80","l","41","Sounds/correct.wav","null","1","","","","","","",""
"null","","audio-keyboard-response","376","1059295","0.0-13.0-0.81","l","41","Sounds/gun_sound.wav","null","1","","","","","","",""
"null","","html-keyboard-response","377","1060297","0.0-13.0-1.81","l","41","<p style=""font-size: 48px;"">+</p>","null","1","","","","","","",""
"554.6999999787658","","image-keyboard-response","378","1060853","0.0-13.0-2.81","l","41","Images/cow_3.png","65","1","1583445860012","non-match","cow","gun","sound","test","true"
"null","","audio-keyboard-response","379","1062868","0.0-13.0-3.81","l","41","Sounds/correct.wav","null","1","","","","","","",""
"null","","audio-keyboard-response","380","1064175","0.0-13.0-0.82","l","41","Sounds/train_sound.wav","null","1","","","","","","",""
"null","","html-keyboard-response","381","1065181","0.0-13.0-1.82","l","41","<p style=""font-size: 48px;"">+</p>","null","1","","","","","","",""
"934.7749999724329","","image-keyboard-response","382","1066117","0.0-13.0-2.82","l","41","Images/rooster_3.png","65","1","1583445864895","non-match","rooster","train","sound","test","true"
"null","","audio-keyboard-response","383","1068119","0.0-13.0-3.82","l","41","Sounds/correct.wav","null","1","","","","","","",""
"null","","audio-keyboard-response","384","1068815","0.0-13.0-0.83","l","41","Sounds/rooster_label.wav","null","1","","","","","","",""
"null","","html-keyboard-response","385","1069814","0.0-13.0-1.83","l","41","<p style=""font-size: 48px;"">+</p>","null","1","","","","","","",""
"2285.4899999802","","image-keyboard-response","386","1072101","0.0-13.0-2.83","l","41","Images/rooster_2.png","76","1","1583445869528","match","rooster","rooster","label","test","true"
"null","","audio-keyboard-response","387","1074120","0.0-13.0-3.83","l","41","Sounds/correct.wav","null","1","","","","","","",""
"null","","audio-keyboard-response","388","1074815","0.0-13.0-0.84","l","41","Sounds/whistle_sound.wav","null","1","","","","","","",""
"null","","html-keyboard-response","389","1075814","0.0-13.0-1.84","l","41","<p style=""font-size: 48px;"">+</p>","null","1","","","","","","",""
"909.5649999799207","","image-keyboard-response","390","1076725","0.0-13.0-2.84","l","41","Images/train_2.png","65","1","1583445875528","non-match","train","whistle","sound","test","true"
"null","","audio-keyboard-response","391","1078735","0.0-13.0-3.84","l","41","Sounds/correct.wav","null","1","","","","","","",""
"null","","audio-keyboard-response","392","1079415","0.0-13.0-0.85","l","41","Sounds/rooster_label.wav","null","1","","","","","","",""
"null","","html-keyboard-response","393","1080414","0.0-13.0-1.85","l","41","<p style=""font-size: 48px;"">+</p>","null","1","","","","","","",""
"819.0049999975599","","image-keyboard-response","394","1081237","0.0-13.0-2.85","l","41","Images/rooster_orig.png","76","1","1583445880129","match","rooster","rooster","label","test","true"
"null","","audio-keyboard-response","395","1083253","0.0-13.0-3.85","l","41","Sounds/correct.wav","null","1","","","","","","",""
"null","","audio-keyboard-response","396","1084275","0.0-13.0-0.86","l","41","Sounds/cow_label.wav","null","1","","","","","","",""
"null","","html-keyboard-response","397","1085281","0.0-13.0-1.86","l","41","<p style=""font-size: 48px;"">+</p>","null","1","","","","","","",""
"690.8600000315346","","image-keyboard-response","398","1085973","0.0-13.0-2.86","l","41","Images/car_2.png","65","1","1583445884995","non-match","car","cow","label","test","true"
"null","","audio-keyboard-response","399","1087985","0.0-13.0-3.86","l","41","Sounds/correct.wav","null","1","","","","","","",""
"null","","audio-keyboard-response","400","1088655","0.0-13.0-0.87","l","41","Sounds/dog_label.wav","null","1","","","","","","",""
"null","","html-keyboard-response","401","1089648","0.0-13.0-1.87","l","41","<p style=""font-size: 48px;"">+</p>","null","1","","","","","","",""
"660.1500000106171","","image-keyboard-response","402","1090309","0.0-13.0-2.87","l","41","Images/frog_2.png","65","1","1583445889362","non-match","frog","dog","label","test","true"
"null","","audio-keyboard-response","403","1092318","0.0-13.0-3.87","l","41","Sounds/correct.wav","null","1","","","","","","",""
"null","","audio-keyboard-response","404","1093435","0.0-13.0-0.88","l","41","Sounds/motorcycle_sound.wav","null","1","","","","","","",""
"null","","html-keyboard-response","405","1094431","0.0-13.0-1.88","l","41","<p style=""font-size: 48px;"">+</p>","null","1","","","","","","",""
"548.7149999826215","","image-keyboard-response","406","1094981","0.0-13.0-2.88","l","41","Images/dog_3.png","65","1","1583445894145","non-match","dog","motorcycle","sound","test","true"
"null","","audio-keyboard-response","407","1096986","0.0-13.0-3.88","l","41","Sounds/correct.wav","null","1","","","","","","",""
"null","","audio-keyboard-response","408","1097575","0.0-13.0-0.89","l","41","Sounds/gun_label.wav","null","1","","","","","","",""
"null","","html-keyboard-response","409","1098564","0.0-13.0-1.89","l","41","<p style=""font-size: 48px;"">+</p>","null","1","","","","","","",""
"479.58000004291534","","image-keyboard-response","410","1099045","0.0-13.0-2.89","l","41","Images/gun_cartoon.png","76","1","1583445898279","match","gun","gun","label","test","true"
"null","","audio-keyboard-response","411","1101053","0.0-13.0-3.89","l","41","Sounds/correct.wav","null","1","","","","","","",""
"null","","audio-keyboard-response","412","1101975","0.0-13.0-0.90","l","41","Sounds/frog_sound.wav","null","1","","","","","","",""
"null","","html-keyboard-response","413","1102964","0.0-13.0-1.90","l","41","<p style=""font-size: 48px;"">+</p>","null","1","","","","","","",""
"479.34499999973923","","image-keyboard-response","414","1103445","0.0-13.0-2.90","l","41","Images/frog_cartoon.png","76","1","1583445902679","match","frog","frog","sound","test","true"
"null","","audio-keyboard-response","415","1105456","0.0-13.0-3.90","l","41","Sounds/correct.wav","null","1","","","","","","",""
"null","","audio-keyboard-response","416","1106035","0.0-13.0-0.91","l","41","Sounds/gun_sound.wav","null","1","","","","","","",""
"null","","html-keyboard-response","417","1107031","0.0-13.0-1.91","l","41","<p style=""font-size: 48px;"">+</p>","null","1","","","","","","",""
"604.5699999667704","","image-keyboard-response","418","1107637","0.0-13.0-2.91","l","41","Images/train_orig.png","65","1","1583445906745","non-match","train","gun","sound","test","true"
"null","","audio-keyboard-response","419","1109652","0.0-13.0-3.91","l","41","Sounds/correct.wav","null","1","","","","","","",""
"null","","audio-keyboard-response","420","1110535","0.0-13.0-0.92","l","41","Sounds/frog_sound.wav","null","1","","","","","","",""
"null","","html-keyboard-response","421","1111531","0.0-13.0-1.92","l","41","<p style=""font-size: 48px;"">+</p>","null","1","","","","","","",""
"520.6849999958649","","image-keyboard-response","422","1112053","0.0-13.0-2.92","l","41","Images/cow_cartoon.png","65","1","1583445911245","non-match","cow","frog","sound","test","true"
"null","","audio-keyboard-response","423","1114068","0.0-13.0-3.92","l","41","Sounds/correct.wav","null","1","","","","","","",""
"null","","audio-keyboard-response","424","1114775","0.0-13.0-0.93","l","41","Sounds/dog_sound.wav","null","1","","","","","","",""
"null","","html-keyboard-response","425","1115765","0.0-13.0-1.93","l","41","<p style=""font-size: 48px;"">+</p>","null","1","","","","","","",""
"527.4050000007264","","image-keyboard-response","426","1116293","0.0-13.0-2.93","l","41","Images/dog_3.png","76","1","1583445915479","match","dog","dog","sound","test","true"
"null","","audio-keyboard-response","427","1118302","0.0-13.0-3.93","l","41","Sounds/correct.wav","null","1","","","","","","",""
"null","","audio-keyboard-response","428","1119435","0.0-13.0-0.94","l","41","Sounds/motorcycle_label.wav","null","1","","","","","","",""
"null","","html-keyboard-response","429","1120431","0.0-13.0-1.94","l","41","<p style=""font-size: 48px;"">+</p>","null","1","","","","","","",""
"1300.2650000271387","","image-keyboard-response","430","1121733","0.0-13.0-2.94","l","41","Images/motorcycle_1.png","76","1","1583445920146","match","motorcycle","motorcycle","label","test","true"
"null","","audio-keyboard-response","431","1123740","0.0-13.0-3.94","l","41","Sounds/correct.wav","null","1","","","","","","",""
"null","","audio-keyboard-response","432","1124575","0.0-13.0-0.95","l","41","Sounds/cat_sound.wav","null","1","","","","","","",""
"null","","html-keyboard-response","433","1125565","0.0-13.0-1.95","l","41","<p style=""font-size: 48px;"">+</p>","null","1","","","","","","",""
"774.2399999988265","","image-keyboard-response","434","1126341","0.0-13.0-2.95","l","41","Images/cat_3.png","76","1","1583445925279","match","cat","cat","sound","test","true"
"null","","audio-keyboard-response","435","1128351","0.0-13.0-3.95","l","41","Sounds/correct.wav","null","1","","","","","","",""
"null","","audio-keyboard-response","436","1129255","0.0-13.0-0.96","l","41","Sounds/frog_label.wav","null","1","","","","","","",""
"null","","html-keyboard-response","437","1130248","0.0-13.0-1.96","l","41","<p style=""font-size: 48px;"">+</p>","null","1","","","","","","",""
"667.5849999883212","","image-keyboard-response","438","1130917","0.0-13.0-2.96","l","41","Images/frog_orig.png","76","1","1583445929962","match","frog","frog","label","test","true"
"null","","audio-keyboard-response","439","1132920","0.0-13.0-3.96","l","41","Sounds/correct.wav","null","1","","","","","","",""
"null","","audio-keyboard-response","440","1134215","0.0-13.0-0.97","l","41","Sounds/train_sound.wav","null","1","","","","","","",""
"null","","html-keyboard-response","441","1135215","0.0-13.0-1.97","l","41","<p style=""font-size: 48px;"">+</p>","null","1","","","","","","",""
"580.0099999760278","","image-keyboard-response","442","1135797","0.0-13.0-2.97","l","41","Images/frog_orig.png","76","1","1583445934929","non-match","frog","train","sound","test","false"
"null","","audio-keyboard-response","443","1137806","0.0-13.0-3.97","l","41","Sounds/incorrect.wav","null","1","","","","","","",""
"null","","audio-keyboard-response","444","1139075","0.0-13.0-0.98","l","41","Sounds/train_sound.wav","null","1","","","","","","",""
"null","","html-keyboard-response","445","1140065","0.0-13.0-1.98","l","41","<p style=""font-size: 48px;"">+</p>","null","1","","","","","","",""
"482.8799999668263","","image-keyboard-response","446","1140549","0.0-13.0-2.98","l","41","Images/train_2.png","76","1","1583445939779","match","train","train","sound","test","true"
"null","","audio-keyboard-response","447","1142553","0.0-13.0-3.98","l","41","Sounds/correct.wav","null","1","","","","","","",""
"null","","audio-keyboard-response","448","1143255","0.0-13.0-0.99","l","41","Sounds/whistle_label.wav","null","1","","","","","","",""
"null","","html-keyboard-response","449","1144248","0.0-13.0-1.99","l","41","<p style=""font-size: 48px;"">+</p>","null","1","","","","","","",""
"2395.680000016","","image-keyboard-response","450","1146645","0.0-13.0-2.99","l","41","Images/whistle_2.png","76","1","1583445943962","match","whistle","whistle","label","test","true"
"null","","audio-keyboard-response","451","1148657","0.0-13.0-3.99","l","41","Sounds/correct.wav","null","1","","","","","","",""
"17251.004999969155","","html-keyboard-response","452","1165901","0.0-14.0","l","41","<p>Please take this opportunity to rest your eyes before proceeding.</p><p>When ready, press the enter key to continue to the next set of trials.</p>","76","","","","","","","",""
"null","","audio-keyboard-response","453","1168626","0.0-15.0-0.0","l","41","Sounds/rooster_sound.wav","null","2","","","","","","",""
"null","","html-keyboard-response","454","1169623","0.0-15.0-1.0","l","41","<p style=""font-size: 48px;"">+</p>","null","2","","","","","","",""
"723.9749999716878","","image-keyboard-response","455","1170348","0.0-15.0-2.0","l","41","Images/train_3.png","65","2","1583445969338","non-match","train","rooster","sound","test","true"
"null","","audio-keyboard-response","456","1172362","0.0-15.0-3.0","l","41","Sounds/correct.wav","null","2","","","","","","",""
"null","","audio-keyboard-response","457","1173206","0.0-15.0-0.1","l","41","Sounds/cat_label.wav","null","2","","","","","","",""
"null","","html-keyboard-response","458","1174223","0.0-15.0-1.1","l","41","<p style=""font-size: 48px;"">+</p>","null","2","","","","","","",""
"587.8149999771267","","image-keyboard-response","459","1174812","0.0-15.0-2.1","l","41","Images/cow_2.png","65","2","1583445973938","non-match","cow","cat","label","test","true"
"null","","audio-keyboard-response","460","1176829","0.0-15.0-3.1","l","41","Sounds/correct.wav","null","2","","","","","","",""
"null","","audio-keyboard-response","461","1177846","0.0-15.0-0.2","l","41","Sounds/cow_label.wav","null","2","","","","","","",""
"null","","html-keyboard-response","462","1178840","0.0-15.0-1.2","l","41","<p style=""font-size: 48px;"">+</p>","null","2","","","","","","",""
"579.4499999610707","","image-keyboard-response","463","1179421","0.0-15.0-2.2","l","41","Images/cow_1.png","76","2","1583445978554","match","cow","cow","label","test","true"
"null","","audio-keyboard-response","464","1181431","0.0-15.0-3.2","l","41","Sounds/correct.wav","null","2","","","","","","",""
"null","","audio-keyboard-response","465","1182546","0.0-15.0-0.3","l","41","Sounds/motorcycle_sound.wav","null","2","","","","","","",""
"null","","html-keyboard-response","466","1183540","0.0-15.0-1.3","l","41","<p style=""font-size: 48px;"">+</p>","null","2","","","","","","",""
"1335.1099999854341","","image-keyboard-response","467","1184876","0.0-15.0-2.3","l","41","Images/motorcycle_3.png","76","2","1583445983254","match","motorcycle","motorcycle","sound","test","true"
"null","","audio-keyboard-response","468","1186881","0.0-15.0-3.3","l","41","Sounds/correct.wav","null","2","","","","","","",""
"null","","audio-keyboard-response","469","1187686","0.0-15.0-0.4","l","41","Sounds/cat_label.wav","null","2","","","","","","",""
"null","","html-keyboard-response","470","1188690","0.0-15.0-1.4","l","41","<p style=""font-size: 48px;"">+</p>","null","2","","","","","","",""
"536.9050000444986","","image-keyboard-response","471","1189228","0.0-15.0-2.4","l","41","Images/cat_3.png","76","2","1583445988405","match","cat","cat","label","test","true"
"null","","audio-keyboard-response","472","1191246","0.0-15.0-3.4","l","41","Sounds/correct.wav","null","2","","","","","","",""
"null","","audio-keyboard-response","473","1192066","0.0-15.0-0.5","l","41","Sounds/cat_label.wav","null","2","","","","","","",""
"null","","html-keyboard-response","474","1193057","0.0-15.0-1.5","l","41","<p style=""font-size: 48px;"">+</p>","null","2","","","","","","",""
"650.5050000268966","","image-keyboard-response","475","1193709","0.0-15.0-2.5","l","41","Images/cat_2.png","76","2","1583445992771","match","cat","cat","label","test","true"
"null","","audio-keyboard-response","476","1195712","0.0-15.0-3.5","l","41","Sounds/correct.wav","null","2","","","","","","",""
"null","","audio-keyboard-response","477","1196986","0.0-15.0-0.6","l","41","Sounds/train_label.wav","null","2","","","","","","",""
"null","","html-keyboard-response","478","1197990","0.0-15.0-1.6","l","41","<p style=""font-size: 48px;"">+</p>","null","2","","","","","","",""
"612.4050000216812","","image-keyboard-response","479","1198605","0.0-15.0-2.6","l","41","Images/whistle_cartoon.png","65","2","1583445997705","non-match","whistle","train","label","test","true"
"null","","audio-keyboard-response","480","1200612","0.0-15.0-3.6","l","41","Sounds/correct.wav","null","2","","","","","","",""
"null","","audio-keyboard-response","481","1201686","0.0-15.0-0.7","l","41","Sounds/car_label.wav","null","2","","","","","","",""
"null","","html-keyboard-response","482","1202690","0.0-15.0-1.7","l","41","<p style=""font-size: 48px;"">+</p>","null","2","","","","","","",""
"793.0499999783933","","image-keyboard-response","483","1203485","0.0-15.0-2.7","l","41","Images/car_2.png","76","2","1583446002405","match","car","car","label","test","true"
"null","","audio-keyboard-response","484","1205496","0.0-15.0-3.7","l","41","Sounds/correct.wav","null","2","","","","","","",""
"null","","audio-keyboard-response","485","1206206","0.0-15.0-0.8","l","41","Sounds/dog_sound.wav","null","2","","","","","","",""
"null","","html-keyboard-response","486","1207240","0.0-15.0-1.8","l","41","<p style=""font-size: 48px;"">+</p>","null","2","","","","","","",""
"851.1350000044331","","image-keyboard-response","487","1208093","0.0-15.0-2.8","l","41","Images/cat_orig.png","65","2","1583446006955","non-match","cat","dog","sound","test","true"
"null","","audio-keyboard-response","488","1210096","0.0-15.0-3.8","l","41","Sounds/correct.wav","null","2","","","","","","",""
"null","","audio-keyboard-response","489","1210806","0.0-15.0-0.9","l","41","Sounds/whistle_sound.wav","null","2","","","","","","",""
"null","","html-keyboard-response","490","1211824","0.0-15.0-1.9","l","41","<p style=""font-size: 48px;"">+</p>","null","2","","","","","","",""
"1915.4599999892525","","image-keyboard-response","491","1213740","0.0-15.0-2.9","l","41","Images/gun_1.png","65","2","1583446011538","non-match","gun","whistle","sound","test","true"
"null","","audio-keyboard-response","492","1215746","0.0-15.0-3.9","l","41","Sounds/correct.wav","null","2","","","","","","",""
"null","","audio-keyboard-response","493","1217026","0.0-15.0-0.10","l","41","Sounds/train_label.wav","null","2","","","","","","",""
"null","","html-keyboard-response","494","1218024","0.0-15.0-1.10","l","41","<p style=""font-size: 48px;"">+</p>","null","2","","","","","","",""
"579.6449999907054","","image-keyboard-response","495","1218605","0.0-15.0-2.10","l","41","Images/gun_cartoon.png","65","2","1583446017738","non-match","gun","train","label","test","true"
"null","","audio-keyboard-response","496","1220614","0.0-15.0-3.10","l","41","Sounds/correct.wav","null","2","","","","","","",""
"null","","audio-keyboard-response","497","1221906","0.0-15.0-0.11","l","41","Sounds/train_sound.wav","null","2","","","","","","",""
"null","","html-keyboard-response","498","1222924","0.0-15.0-1.11","l","41","<p style=""font-size: 48px;"">+</p>","null","2","","","","","","",""
"589.9549999739975","","image-keyboard-response","499","1223517","0.0-15.0-2.11","l","41","Images/cat_cartoon.png","65","2","1583446022638","non-match","cat","train","sound","test","true"
"null","","audio-keyboard-response","500","1225530","0.0-15.0-3.11","l","41","Sounds/correct.wav","null","2","","","","","","",""
"null","","audio-keyboard-response","501","1226234","0.0-15.0-0.12","l","41","Sounds/rooster_label.wav","null","2","","","","","","",""
"null","","html-keyboard-response","502","1227233","0.0-15.0-1.12","l","41","<p style=""font-size: 48px;"">+</p>","null","2","","","","","","",""
"2883.414999989327","","image-keyboard-response","503","1230117","0.0-15.0-2.12","l","41","Images/whistle_1.png","65","2","1583446026947","non-match","whistle","rooster","label","test","true"
"null","","audio-keyboard-response","504","1232125","0.0-15.0-3.12","l","41","Sounds/correct.wav","null","2","","","","","","",""
"null","","audio-keyboard-response","505","1232974","0.0-15.0-0.13","l","41","Sounds/cat_sound.wav","null","2","","","","","","",""
"null","","html-keyboard-response","506","1233966","0.0-15.0-1.13","l","41","<p style=""font-size: 48px;"">+</p>","null","2","","","","","","",""
"1493.9550000126474","","image-keyboard-response","507","1235461","0.0-15.0-2.13","l","41","Images/whistle_3.png","65","2","1583446033680","non-match","whistle","cat","sound","test","true"
"null","","audio-keyboard-response","508","1237473","0.0-15.0-3.13","l","41","Sounds/correct.wav","null","2","","","","","","",""
"null","","audio-keyboard-response","509","1238154","0.0-15.0-0.14","l","41","Sounds/rooster_label.wav","null","2","","","","","","",""
"null","","html-keyboard-response","510","1239149","0.0-15.0-1.14","l","41","<p style=""font-size: 48px;"">+</p>","null","2","","","","","","",""
"726.5499999630265","","image-keyboard-response","511","1239877","0.0-15.0-2.14","l","41","Images/car_1.png","65","2","1583446038863","non-match","car","rooster","label","test","true"
"null","","audio-keyboard-response","512","1241886","0.0-15.0-3.14","l","41","Sounds/correct.wav","null","2","","","","","","",""
"null","","audio-keyboard-response","513","1243034","0.0-15.0-0.15","l","41","Sounds/motorcycle_label.wav","null","2","","","","","","",""
"null","","html-keyboard-response","514","1244033","0.0-15.0-1.15","l","41","<p style=""font-size: 48px;"">+</p>","null","2","","","","","","",""
"611.4300000481308","","image-keyboard-response","515","1244645","0.0-15.0-2.15","l","41","Images/train_1.png","65","2","1583446043747","non-match","train","motorcycle","label","test","true"
"null","","audio-keyboard-response","516","1246655","0.0-15.0-3.15","l","41","Sounds/correct.wav","null","2","","","","","","",""
"null","","audio-keyboard-response","517","1247674","0.0-15.0-0.16","l","41","Sounds/cow_label.wav","null","2","","","","","","",""
"null","","html-keyboard-response","518","1248666","0.0-15.0-1.16","l","41","<p style=""font-size: 48px;"">+</p>","null","2","","","","","","",""
"665.7950000371784","","image-keyboard-response","519","1249333","0.0-15.0-2.16","l","41","Images/cow_cartoon.png","76","2","1583446048380","match","cow","cow","label","test","true"
"null","","audio-keyboard-response","520","1251340","0.0-15.0-3.16","l","41","Sounds/correct.wav","null","2","","","","","","",""
"null","","audio-keyboard-response","521","1252234","0.0-15.0-0.17","l","41","Sounds/frog_label.wav","null","2","","","","","","",""
"null","","html-keyboard-response","522","1253233","0.0-15.0-1.17","l","41","<p style=""font-size: 48px;"">+</p>","null","2","","","","","","",""
"563.1249999860302","","image-keyboard-response","523","1253797","0.0-15.0-2.17","l","41","Images/frog_orig.png","76","2","1583446052947","match","frog","frog","label","test","true"
"null","","audio-keyboard-response","524","1255806","0.0-15.0-3.17","l","41","Sounds/correct.wav","null","2","","","","","","",""
"null","","audio-keyboard-response","525","1256394","0.0-15.0-0.18","l","41","Sounds/gun_label.wav","null","2","","","","","","",""
"null","","html-keyboard-response","526","1257383","0.0-15.0-1.18","l","41","<p style=""font-size: 48px;"">+</p>","null","2","","","","","","",""
"589.1350000165403","","image-keyboard-response","527","1257973","0.0-15.0-2.18","l","41","Images/cat_2.png","65","2","1583446057097","non-match","cat","gun","label","test","true"
"null","","audio-keyboard-response","528","1259985","0.0-15.0-3.18","l","41","Sounds/correct.wav","null","2","","","","","","",""
"null","","audio-keyboard-response","529","1261014","0.0-15.0-0.19","l","41","Sounds/cow_sound.wav","null","2","","","","","","",""
"null","","html-keyboard-response","530","1262016","0.0-15.0-1.19","l","41","<p style=""font-size: 48px;"">+</p>","null","2","","","","","","",""
"1091.6100000031292","","image-keyboard-response","531","1263109","0.0-15.0-2.19","l","41","Images/car_cartoon.png","65","2","1583446061731","non-match","car","cow","sound","test","true"
"null","","audio-keyboard-response","532","1265119","0.0-15.0-3.19","l","41","Sounds/correct.wav","null","2","","","","","","",""
"null","","audio-keyboard-response","533","1266414","0.0-15.0-0.20","l","41","Sounds/train_sound.wav","null","2","","","","","","",""
"null","","html-keyboard-response","534","1267416","0.0-15.0-1.20","l","41","<p style=""font-size: 48px;"">+</p>","null","2","","","","","","",""
"1067.620000045281","","image-keyboard-response","535","1268485","0.0-15.0-2.20","l","41","Images/motorcycle_2.png","65","2","1583446067131","non-match","motorcycle","train","sound","test","true"
"null","","audio-keyboard-response","536","1270488","0.0-15.0-3.20","l","41","Sounds/correct.wav","null","2","","","","","","",""
"null","","audio-keyboard-response","537","1271374","0.0-15.0-0.21","l","41","Sounds/frog_label.wav","null","2","","","","","","",""
"null","","html-keyboard-response","538","1272367","0.0-15.0-1.21","l","41","<p style=""font-size: 48px;"">+</p>","null","2","","","","","","",""
"805.3250000230037","","image-keyboard-response","539","1273173","0.0-15.0-2.21","l","41","Images/motorcycle_cartoon.png","65","2","1583446072082","non-match","motorcycle","frog","label","test","true"
"null","","audio-keyboard-response","540","1275187","0.0-15.0-3.21","l","41","Sounds/correct.wav","null","2","","","","","","",""
"null","","audio-keyboard-response","541","1276054","0.0-15.0-0.22","l","41","Sounds/frog_label.wav","null","2","","","","","","",""
"null","","html-keyboard-response","542","1277050","0.0-15.0-1.22","l","41","<p style=""font-size: 48px;"">+</p>","null","2","","","","","","",""
"506.0599999851547","","image-keyboard-response","543","1277557","0.0-15.0-2.22","l","41","Images/frog_1.png","76","2","1583446076764","match","frog","frog","label","test","true"
"null","","audio-keyboard-response","544","1279570","0.0-15.0-3.22","l","41","Sounds/correct.wav","null","2","","","","","","",""
"null","","audio-keyboard-response","545","1280275","0.0-15.0-0.23","l","41","Sounds/whistle_sound.wav","null","2","","","","","","",""
"null","","html-keyboard-response","546","1281267","0.0-15.0-1.23","l","41","<p style=""font-size: 48px;"">+</p>","null","2","","","","","","",""
"2193.6599999899045","","image-keyboard-response","547","1283461","0.0-15.0-2.23","l","41","Images/car_2.png","65","2","1583446080981","non-match","car","whistle","sound","test","true"
"null","","audio-keyboard-response","548","1285476","0.0-15.0-3.23","l","41","Sounds/correct.wav","null","2","","","","","","",""
"null","","audio-keyboard-response","549","1286554","0.0-15.0-0.24","l","41","Sounds/car_sound.wav","null","2","","","","","","",""
"null","","html-keyboard-response","550","1287549","0.0-15.0-1.24","l","41","<p style=""font-size: 48px;"">+</p>","null","2","","","","","","",""
"470.09499999694526","","image-keyboard-response","551","1288021","0.0-15.0-2.24","l","41","Images/dog_1.png","65","2","1583446087264","non-match","dog","car","sound","test","true"
"null","","audio-keyboard-response","552","1290037","0.0-15.0-3.24","l","41","Sounds/correct.wav","null","2","","","","","","",""
"null","","audio-keyboard-response","553","1290734","0.0-15.0-0.25","l","41","Sounds/rooster_label.wav","null","2","","","","","","",""
"null","","html-keyboard-response","554","1291733","0.0-15.0-1.25","l","41","<p style=""font-size: 48px;"">+</p>","null","2","","","","","","",""
"1102.6199999614619","","image-keyboard-response","555","1292837","0.0-15.0-2.25","l","41","Images/rooster_orig.png","76","2","1583446091447","match","rooster","rooster","label","test","true"
"null","","audio-keyboard-response","556","1294853","0.0-15.0-3.25","l","41","Sounds/correct.wav","null","2","","","","","","",""
"null","","audio-keyboard-response","557","1295994","0.0-15.0-0.26","l","41","Sounds/motorcycle_label.wav","null","2","","","","","","",""
"null","","html-keyboard-response","558","1297000","0.0-15.0-1.26","l","41","<p style=""font-size: 48px;"">+</p>","null","2","","","","","","",""
"588.0550000001676","","image-keyboard-response","559","1297589","0.0-15.0-2.26","l","41","Images/cat_3.png","65","2","1583446096714","non-match","cat","motorcycle","label","test","true"
"null","","audio-keyboard-response","560","1299605","0.0-15.0-3.26","l","41","Sounds/correct.wav","null","2","","","","","","",""
"null","","audio-keyboard-response","561","1300654","0.0-15.0-0.27","l","41","Sounds/car_sound.wav","null","2","","","","","","",""
"null","","html-keyboard-response","562","1301650","0.0-15.0-1.27","l","41","<p style=""font-size: 48px;"">+</p>","null","2","","","","","","",""
"881.8050000118092","","image-keyboard-response","563","1302533","0.0-15.0-2.27","l","41","Images/car_3.png","76","2","1583446101364","match","car","car","sound","test","true"
"null","","audio-keyboard-response","564","1304538","0.0-15.0-3.27","l","41","Sounds/correct.wav","null","2","","","","","","",""
"null","","audio-keyboard-response","565","1305554","0.0-15.0-0.28","l","41","Sounds/cow_label.wav","null","2","","","","","","",""
"null","","html-keyboard-response","566","1306550","0.0-15.0-1.28","l","41","<p style=""font-size: 48px;"">+</p>","null","2","","","","","","",""
"2334.00500001153","","image-keyboard-response","567","1308885","0.0-15.0-2.28","l","41","Images/cow_3.png","76","2","1583446106264","match","cow","cow","label","test","true"
"null","","audio-keyboard-response","568","1310893","0.0-15.0-3.28","l","41","Sounds/correct.wav","null","2","","","","","","",""
"null","","audio-keyboard-response","569","1311594","0.0-15.0-0.29","l","41","Sounds/whistle_label.wav","null","2","","","","","","",""
"null","","html-keyboard-response","570","1312583","0.0-15.0-1.29","l","41","<p style=""font-size: 48px;"">+</p>","null","2","","","","","","",""
"3260.390000010375","","image-keyboard-response","571","1315845","0.0-15.0-2.29","l","41","Images/whistle_2.png","76","2","1583446112297","match","whistle","whistle","label","test","true"
"null","","audio-keyboard-response","572","1317858","0.0-15.0-3.29","l","41","Sounds/correct.wav","null","2","","","","","","",""
"null","","audio-keyboard-response","573","1318434","0.0-15.0-0.30","l","41","Sounds/gun_label.wav","null","2","","","","","","",""
"null","","html-keyboard-response","574","1319433","0.0-15.0-1.30","l","41","<p style=""font-size: 48px;"">+</p>","null","2","","","","","","",""
"682.5650000246242","","image-keyboard-response","575","1320117","0.0-15.0-2.30","l","41","Images/train_2.png","65","2","1583446119147","non-match","train","gun","label","test","true"
"null","","audio-keyboard-response","576","1322122","0.0-15.0-3.30","l","41","Sounds/correct.wav","null","2","","","","","","",""
"null","","audio-keyboard-response","577","1323134","0.0-15.0-0.31","l","41","Sounds/cow_sound.wav","null","2","","","","","","",""
"null","","html-keyboard-response","578","1324133","0.0-15.0-1.31","l","41","<p style=""font-size: 48px;"">+</p>","null","2","","","","","","",""
"1150.5100000067614","","image-keyboard-response","579","1325285","0.0-15.0-2.31","l","41","Images/rooster_1.png","65","2","1583446123847","non-match","rooster","cow","sound","test","true"
"null","","audio-keyboard-response","580","1327289","0.0-15.0-3.31","l","41","Sounds/correct.wav","null","2","","","","","","",""
"null","","audio-keyboard-response","581","1327954","0.0-15.0-0.32","l","41","Sounds/whistle_label.wav","null","2","","","","","","",""
"null","","html-keyboard-response","582","1328950","0.0-15.0-1.32","l","41","<p style=""font-size: 48px;"">+</p>","null","2","","","","","","",""
"573.4100000117905","","image-keyboard-response","583","1329524","0.0-15.0-2.32","l","41","Images/whistle_orig.png","76","2","1583446128664","match","whistle","whistle","label","test","true"
"null","","audio-keyboard-response","584","1331541","0.0-15.0-3.32","l","41","Sounds/correct.wav","null","2","","","","","","",""
"null","","audio-keyboard-response","585","1332214","0.0-15.0-0.33","l","41","Sounds/whistle_label.wav","null","2","","","","","","",""
"null","","html-keyboard-response","586","1333217","0.0-15.0-1.33","l","41","<p style=""font-size: 48px;"">+</p>","null","2","","","","","","",""
"482.8550000092946","","image-keyboard-response","587","1333701","0.0-15.0-2.33","l","41","Images/dog_2.png","65","2","1583446132931","non-match","dog","whistle","label","test","true"
"null","","audio-keyboard-response","588","1335705","0.0-15.0-3.33","l","41","Sounds/correct.wav","null","2","","","","","","",""
"null","","audio-keyboard-response","589","1336414","0.0-15.0-0.34","l","41","Sounds/dog_sound.wav","null","2","","","","","","",""
"null","","html-keyboard-response","590","1337417","0.0-15.0-1.34","l","41","<p style=""font-size: 48px;"">+</p>","null","2","","","","","","",""
"714.8599999491125","","image-keyboard-response","591","1338133","0.0-15.0-2.34","l","41","Images/dog_orig.png","76","2","1583446137131","match","dog","dog","sound","test","true"
"null","","audio-keyboard-response","592","1340140","0.0-15.0-3.34","l","41","Sounds/correct.wav","null","2","","","","","","",""
"null","","audio-keyboard-response","593","1341214","0.0-15.0-0.35","l","41","Sounds/car_label.wav","null","2","","","","","","",""
"null","","html-keyboard-response","594","1342217","0.0-15.0-1.35","l","41","<p style=""font-size: 48px;"">+</p>","null","2","","","","","","",""
"2362.9450000007637","","image-keyboard-response","595","1344581","0.0-15.0-2.35","l","41","Images/cow_3.png","65","2","1583446141931","non-match","cow","car","label","test","true"
"null","","audio-keyboard-response","596","1346590","0.0-15.0-3.35","l","41","Sounds/correct.wav","null","2","","","","","","",""
"null","","audio-keyboard-response","597","1347273","0.0-15.0-0.36","l","41","Sounds/dog_sound.wav","null","2","","","","","","",""
"null","","html-keyboard-response","598","1348266","0.0-15.0-1.36","l","41","<p style=""font-size: 48px;"">+</p>","null","2","","","","","","",""
"808.7400000076741","","image-keyboard-response","599","1349076","0.0-15.0-2.36","l","41","Images/dog_2.png","76","2","1583446147980","match","dog","dog","sound","test","true"
"null","","audio-keyboard-response","600","1351086","0.0-15.0-3.36","l","41","Sounds/correct.wav","null","2","","","","","","",""
"null","","audio-keyboard-response","601","1351933","0.0-15.0-0.37","l","41","Sounds/cat_sound.wav","null","2","","","","","","",""
"null","","html-keyboard-response","602","1352933","0.0-15.0-1.37","l","41","<p style=""font-size: 48px;"">+</p>","null","2","","","","","","",""
"638.2900000317022","","image-keyboard-response","603","1353572","0.0-15.0-2.37","l","41","Images/cat_cartoon.png","76","2","1583446152647","match","cat","cat","sound","test","true"
"null","","audio-keyboard-response","604","1355588","0.0-15.0-3.37","l","41","Sounds/correct.wav","null","2","","","","","","",""
"null","","audio-keyboard-response","605","1356293","0.0-15.0-0.38","l","41","Sounds/rooster_sound.wav","null","2","","","","","","",""
"null","","html-keyboard-response","606","1357283","0.0-15.0-1.38","l","41","<p style=""font-size: 48px;"">+</p>","null","2","","","","","","",""
"1504.2000000248663","","image-keyboard-response","607","1358788","0.0-15.0-2.38","l","41","Images/rooster_cartoon.png","76","2","1583446156997","match","rooster","rooster","sound","test","true"
"null","","audio-keyboard-response","608","1360805","0.0-15.0-3.38","l","41","Sounds/correct.wav","null","2","","","","","","",""
"null","","audio-keyboard-response","609","1362113","0.0-15.0-0.39","l","41","Sounds/train_sound.wav","null","2","","","","","","",""
"null","","html-keyboard-response","610","1363116","0.0-15.0-1.39","l","41","<p style=""font-size: 48px;"">+</p>","null","2","","","","","","",""
"790.5100000207312","","image-keyboard-response","611","1363908","0.0-15.0-2.39","l","41","Images/train_orig.png","76","2","1583446162830","match","train","train","sound","test","true"
"null","","audio-keyboard-response","612","1365919","0.0-15.0-3.39","l","41","Sounds/correct.wav","null","2","","","","","","",""
"null","","audio-keyboard-response","613","1366613","0.0-15.0-0.40","l","41","Sounds/whistle_sound.wav","null","2","","","","","","",""
"null","","html-keyboard-response","614","1367616","0.0-15.0-1.40","l","41","<p style=""font-size: 48px;"">+</p>","null","2","","","","","","",""
"850.6850000121631","","image-keyboard-response","615","1368468","0.0-15.0-2.40","l","41","Images/whistle_1.png","76","2","1583446167330","match","whistle","whistle","sound","test","true"
"null","","audio-keyboard-response","616","1370472","0.0-15.0-3.40","l","41","Sounds/correct.wav","null","2","","","","","","",""
"null","","audio-keyboard-response","617","1371173","0.0-15.0-0.41","l","41","Sounds/rooster_label.wav","null","2","","","","","","",""
"null","","html-keyboard-response","618","1372166","0.0-15.0-1.41","l","41","<p style=""font-size: 48px;"">+</p>","null","2","","","","","","",""
"860.5950000346638","","image-keyboard-response","619","1373028","0.0-15.0-2.41","l","41","Images/gun_3.png","65","2","1583446171880","non-match","gun","rooster","label","test","true"
"null","","audio-keyboard-response","620","1375036","0.0-15.0-3.41","l","41","Sounds/correct.wav","null","2","","","","","","",""
"null","","audio-keyboard-response","621","1376053","0.0-15.0-0.42","l","41","Sounds/cow_label.wav","null","2","","","","","","",""
"null","","html-keyboard-response","622","1377050","0.0-15.0-1.42","l","41","<p style=""font-size: 48px;"">+</p>","null","2","","","","","","",""
"905.0999999744818","","image-keyboard-response","623","1377956","0.0-15.0-2.42","l","41","Images/dog_cartoon.png","65","2","1583446176764","non-match","dog","cow","label","test","true"
"null","","audio-keyboard-response","624","1379958","0.0-15.0-3.42","l","41","Sounds/correct.wav","null","2","","","","","","",""
"null","","audio-keyboard-response","625","1381033","0.0-15.0-0.43","l","41","Sounds/car_label.wav","null","2","","","","","","",""
"null","","html-keyboard-response","626","1382033","0.0-15.0-1.43","l","41","<p style=""font-size: 48px;"">+</p>","null","2","","","","","","",""
"626.0599999804981","","image-keyboard-response","627","1382660","0.0-15.0-2.43","l","41","Images/cat_1.png","65","2","1583446181747","non-match","cat","car","label","test","true"
"null","","audio-keyboard-response","628","1384671","0.0-15.0-3.43","l","41","Sounds/correct.wav","null","2","","","","","","",""
"null","","audio-keyboard-response","629","1385253","0.0-15.0-0.44","l","41","Sounds/gun_sound.wav","null","2","","","","","","",""
"null","","html-keyboard-response","630","1386250","0.0-15.0-1.44","l","41","<p style=""font-size: 48px;"">+</p>","null","2","","","","","","",""
"953.1349999597296","","image-keyboard-response","631","1387204","0.0-15.0-2.44","l","41","Images/gun_1.png","76","2","1583446185964","match","gun","gun","sound","test","true"
"null","","audio-keyboard-response","632","1389221","0.0-15.0-3.44","l","41","Sounds/correct.wav","null","2","","","","","","",""
"null","","audio-keyboard-response","633","1390353","0.0-15.0-0.45","l","41","Sounds/motorcycle_label.wav","null","2","","","","","","",""
"null","","html-keyboard-response","634","1391350","0.0-15.0-1.45","l","41","<p style=""font-size: 48px;"">+</p>","null","2","","","","","","",""
"764.7849999484606","","image-keyboard-response","635","1392116","0.0-15.0-2.45","l","41","Images/motorcycle_orig.png","76","2","1583446191064","match","motorcycle","motorcycle","label","test","true"
"null","","audio-keyboard-response","636","1394122","0.0-15.0-3.45","l","41","Sounds/correct.wav","null","2","","","","","","",""
"null","","audio-keyboard-response","637","1395233","0.0-15.0-0.46","l","41","Sounds/motorcycle_sound.wav","null","2","","","","","","",""
"null","","html-keyboard-response","638","1396233","0.0-15.0-1.46","l","41","<p style=""font-size: 48px;"">+</p>","null","2","","","","","","",""
"1241.7049999930896","","image-keyboard-response","639","1397476","0.0-15.0-2.46","l","41","Images/whistle_orig.png","65","2","1583446195947","non-match","whistle","motorcycle","sound","test","true"
"null","","audio-keyboard-response","640","1399492","0.0-15.0-3.46","l","41","Sounds/correct.wav","null","2","","","","","","",""
"null","","audio-keyboard-response","641","1400073","0.0-15.0-0.47","l","41","Sounds/gun_label.wav","null","2","","","","","","",""
"null","","html-keyboard-response","642","1401067","0.0-15.0-1.47","l","41","<p style=""font-size: 48px;"">+</p>","null","2","","","","","","",""
"840.0350000010803","","image-keyboard-response","643","1401908","0.0-15.0-2.47","l","41","Images/rooster_cartoon.png","65","2","1583446200781","non-match","rooster","gun","label","test","true"
"null","","audio-keyboard-response","644","1403920","0.0-15.0-3.47","l","41","Sounds/correct.wav","null","2","","","","","","",""
"null","","audio-keyboard-response","645","1405214","0.0-15.0-0.48","l","41","Sounds/train_sound.wav","null","2","","","","","","",""
"null","","html-keyboard-response","646","1406217","0.0-15.0-1.48","l","41","<p style=""font-size: 48px;"">+</p>","null","2","","","","","","",""
"1897.8050000150688","","image-keyboard-response","647","1408115","0.0-15.0-2.48","l","41","Images/train_1.png","76","2","1583446205931","match","train","train","sound","test","true"
"null","","audio-keyboard-response","648","1410128","0.0-15.0-3.48","l","41","Sounds/correct.wav","null","2","","","","","","",""
"null","","audio-keyboard-response","649","1410673","0.0-15.0-0.49","l","41","Sounds/gun_label.wav","null","2","","","","","","",""
"null","","html-keyboard-response","650","1411666","0.0-15.0-1.49","l","41","<p style=""font-size: 48px;"">+</p>","null","2","","","","","","",""
"703.4650000277907","","image-keyboard-response","651","1412371","0.0-15.0-2.49","l","41","Images/frog_3.png","65","2","1583446211380","non-match","frog","gun","label","test","true"
"null","","audio-keyboard-response","652","1414386","0.0-15.0-3.49","l","41","Sounds/correct.wav","null","2","","","","","","",""
"null","","audio-keyboard-response","653","1415093","0.0-15.0-0.50","l","41","Sounds/whistle_label.wav","null","2","","","","","","",""
"null","","html-keyboard-response","654","1416083","0.0-15.0-1.50","l","41","<p style=""font-size: 48px;"">+</p>","null","2","","","","","","",""
"655.2999999839813","","image-keyboard-response","655","1416739","0.0-15.0-2.50","l","41","Images/whistle_cartoon.png","76","2","1583446215797","match","whistle","whistle","label","test","true"
"null","","audio-keyboard-response","656","1418754","0.0-15.0-3.50","l","41","Sounds/correct.wav","null","2","","","","","","",""
"null","","audio-keyboard-response","657","1419473","0.0-15.0-0.51","l","41","Sounds/dog_sound.wav","null","2","","","","","","",""
"null","","html-keyboard-response","658","1420466","0.0-15.0-1.51","l","41","<p style=""font-size: 48px;"">+</p>","null","2","","","","","","",""
"608.0700000165962","","image-keyboard-response","659","1421075","0.0-15.0-2.51","l","41","Images/motorcycle_orig.png","65","2","1583446220180","non-match","motorcycle","dog","sound","test","true"
