[{"rt":4220.895000034943,"responses":"{\"Q0\":\"41\"}","trial_type":"survey-text","trial_index":0,"time_elapsed":4225,"internal_node_id":"0.0-0.0","match_key":"l","participant_id":"41"},{"rt":99099.80999998515,"stimulus":"<p>Use KEYBOARD 1 (match RIGHT)</p><p>Press MATCH to continue.</p>","key_press":76,"trial_type":"html-keyboard-response","trial_index":1,"time_elapsed":103328,"internal_node_id":"0.0-1.0","match_key":"l","participant_id":"41"},{"rt":396558.7500000256,"stimulus":"<p>Welcome to the experiment.</p>","key_press":76,"trial_type":"html-keyboard-response","trial_index":2,"time_elapsed":499893,"internal_node_id":"0.0-2.0","match_key":"l","participant_id":"41"},{"rt":6984.950000012759,"stimulus":"<p>Thank you for agreeing to participate in this study.</p><p>If during any part of the procedure you must stop for any reason, please inform the researcher that you do not wish to continue.</p>","key_press":76,"trial_type":"html-keyboard-response","trial_index":3,"time_elapsed":506883,"internal_node_id":"0.0-3.0","match_key":"l","participant_id":"41"},{"rt":21583.824999979697,"stimulus":"<p>In this experiment, you will hear various words or sounds and see pictures of various animals and objects.</p><p>Most of the images will be of common everyday objects, such as cars, cats, cows, firearms, frogs, chickens, whistles, trains, motorcycles, and dogs.</p><p>Some of the images will be real-life stills, while others will be cartoons.</p>","key_press":76,"trial_type":"html-keyboard-response","trial_index":4,"time_elapsed":528468,"internal_node_id":"0.0-4.0","match_key":"l","participant_id":"41"},{"rt":20830.54999995511,"stimulus":"<p>Sometimes, the word/sound will match the picture, for example you'll hear a meowing sound and see a cat.</p><p>Other times, the picture will not match the sound or word.</p><p>Your task is to decide as quickly as possible if the word/sound matches the picture or not. </p>","key_press":76,"trial_type":"html-keyboard-response","trial_index":5,"time_elapsed":549297,"internal_node_id":"0.0-5.0","match_key":"l","participant_id":"41"},{"rt":13438.210000051185,"stimulus":"<p>For example, if you hear the word \"cat\" or hear a meowing sound, and then see a picture of a cat, you should press the MATCH key.</p><p> If the sound and image do not match, press the NOT-MATCH key to indicate that there is not a match.</p>","key_press":76,"trial_type":"html-keyboard-response","trial_index":6,"time_elapsed":562737,"internal_node_id":"0.0-6.0","match_key":"l","participant_id":"41"},{"rt":9598.56499999296,"stimulus":"<p>If you make a mistake, you will hear a buzzing sound instead of a more pleasant sound.</p><p> Try to respond as quickly as possible, while making as few errors as possible. If you are making mistakes, you are probably rushing.</p>","key_press":76,"trial_type":"html-keyboard-response","trial_index":7,"time_elapsed":572337,"internal_node_id":"0.0-7.0","match_key":"l","participant_id":"41"},{"rt":9838.86999997776,"stimulus":"<p>Please try to not move or blink your eyes during the presentation of the images. You can move and blink between images.</p><p>During the experiment there will be some breaks during which you can rest your eyes.</p>","key_press":76,"trial_type":"html-keyboard-response","trial_index":8,"time_elapsed":582177,"internal_node_id":"0.0-8.0","match_key":"l","participant_id":"41"},{"rt":5102.4250000482425,"stimulus":"<p>We will begin with 10 practice trials. Please let the experimenter know if you have any questions.</p>","key_press":76,"trial_type":"html-keyboard-response","trial_index":9,"time_elapsed":587280,"internal_node_id":"0.0-9.0","match_key":"l","participant_id":"41"},{"rt":null,"stimulus":"Sounds/cat_label.wav","key_press":null,"block":0,"trial_type":"audio-keyboard-response","trial_index":10,"time_elapsed":588143,"internal_node_id":"0.0-10.0-0.0","match_key":"l","participant_id":"41"},{"rt":null,"stimulus":"<p style=\"font-size: 48px;\">+</p>","key_press":null,"block":0,"trial_type":"html-keyboard-response","trial_index":11,"time_elapsed":589138,"internal_node_id":"0.0-10.0-1.0","match_key":"l","participant_id":"41"},{"rt":2892.630000016652,"stimulus":"Images/cow_cartoon.png","key_press":65,"stim_onset":1583445388853,"block":0,"match_type":"non-match","image_category":"cow","sound_category":"cat","audio_type":"label","phase":"practice","trial_type":"image-keyboard-response","trial_index":12,"time_elapsed":592033,"internal_node_id":"0.0-10.0-2.0","match_key":"l","participant_id":"41","correct":true},{"rt":null,"stimulus":"Sounds/correct.wav","key_press":null,"block":0,"trial_type":"audio-keyboard-response","trial_index":13,"time_elapsed":594049,"internal_node_id":"0.0-10.0-3.0","match_key":"l","participant_id":"41"},{"rt":null,"stimulus":"Sounds/cat_sound.wav","key_press":null,"block":0,"trial_type":"audio-keyboard-response","trial_index":14,"time_elapsed":594882,"internal_node_id":"0.0-10.0-0.1","match_key":"l","participant_id":"41"},{"rt":null,"stimulus":"<p style=\"font-size: 48px;\">+</p>","key_press":null,"block":0,"trial_type":"html-keyboard-response","trial_index":15,"time_elapsed":595871,"internal_node_id":"0.0-10.0-1.1","match_key":"l","participant_id":"41"},{"rt":991.9900000095367,"stimulus":"Images/gun_cartoon.png","key_press":65,"stim_onset":1583445395586,"block":0,"match_type":"non-match","image_category":"gun","sound_category":"cat","audio_type":"sound","phase":"practice","trial_type":"image-keyboard-response","trial_index":16,"time_elapsed":596865,"internal_node_id":"0.0-10.0-2.1","match_key":"l","participant_id":"41","correct":true},{"rt":null,"stimulus":"Sounds/correct.wav","key_press":null,"block":0,"trial_type":"audio-keyboard-response","trial_index":17,"time_elapsed":598874,"internal_node_id":"0.0-10.0-3.1","match_key":"l","participant_id":"41"},{"rt":null,"stimulus":"Sounds/motorcycle_sound.wav","key_press":null,"block":0,"trial_type":"audio-keyboard-response","trial_index":18,"time_elapsed":600002,"internal_node_id":"0.0-10.0-0.2","match_key":"l","participant_id":"41"},{"rt":null,"stimulus":"<p style=\"font-size: 48px;\">+</p>","key_press":null,"block":0,"trial_type":"html-keyboard-response","trial_index":19,"time_elapsed":601005,"internal_node_id":"0.0-10.0-1.2","match_key":"l","participant_id":"41"},{"rt":994.379999989178,"stimulus":"Images/motorcycle_3.png","key_press":76,"stim_onset":1583445400719,"block":0,"match_type":"match","image_category":"motorcycle","sound_category":"motorcycle","audio_type":"sound","phase":"practice","trial_type":"image-keyboard-response","trial_index":20,"time_elapsed":602000,"internal_node_id":"0.0-10.0-2.2","match_key":"l","participant_id":"41","correct":true},{"rt":null,"stimulus":"Sounds/correct.wav","key_press":null,"block":0,"trial_type":"audio-keyboard-response","trial_index":21,"time_elapsed":604009,"internal_node_id":"0.0-10.0-3.2","match_key":"l","participant_id":"41"},{"rt":null,"stimulus":"Sounds/gun_sound.wav","key_press":null,"block":0,"trial_type":"audio-keyboard-response","trial_index":22,"time_elapsed":604582,"internal_node_id":"0.0-10.0-0.3","match_key":"l","participant_id":"41"},{"rt":null,"stimulus":"<p style=\"font-size: 48px;\">+</p>","key_press":null,"block":0,"trial_type":"html-keyboard-response","trial_index":23,"time_elapsed":605571,"internal_node_id":"0.0-10.0-1.3","match_key":"l","participant_id":"41"},{"rt":1003.9700000197627,"stimulus":"Images/car_orig.png","key_press":65,"stim_onset":1583445405286,"block":0,"match_type":"non-match","image_category":"car","sound_category":"gun","audio_type":"sound","phase":"practice","trial_type":"image-keyboard-response","trial_index":24,"time_elapsed":606577,"internal_node_id":"0.0-10.0-2.3","match_key":"l","participant_id":"41","correct":true},{"rt":null,"stimulus":"Sounds/correct.wav","key_press":null,"block":0,"trial_type":"audio-keyboard-response","trial_index":25,"time_elapsed":608592,"internal_node_id":"0.0-10.0-3.3","match_key":"l","participant_id":"41"},{"rt":null,"stimulus":"Sounds/car_sound.wav","key_press":null,"block":0,"trial_type":"audio-keyboard-response","trial_index":26,"time_elapsed":609686,"internal_node_id":"0.0-10.0-0.4","match_key":"l","participant_id":"41"},{"rt":null,"stimulus":"<p style=\"font-size: 48px;\">+</p>","key_press":null,"block":0,"trial_type":"html-keyboard-response","trial_index":27,"time_elapsed":610692,"internal_node_id":"0.0-10.0-1.4","match_key":"l","participant_id":"41"},{"rt":751.2200000346638,"stimulus":"Images/car_3.png","key_press":76,"stim_onset":1583445410406,"block":0,"match_type":"match","image_category":"car","sound_category":"car","audio_type":"sound","phase":"practice","trial_type":"image-keyboard-response","trial_index":28,"time_elapsed":611445,"internal_node_id":"0.0-10.0-2.4","match_key":"l","participant_id":"41","correct":true},{"rt":null,"stimulus":"Sounds/correct.wav","key_press":null,"block":0,"trial_type":"audio-keyboard-response","trial_index":29,"time_elapsed":613449,"internal_node_id":"0.0-10.0-3.4","match_key":"l","participant_id":"41"},{"rt":null,"stimulus":"Sounds/train_label.wav","key_press":null,"block":0,"trial_type":"audio-keyboard-response","trial_index":30,"time_elapsed":614726,"internal_node_id":"0.0-10.0-0.5","match_key":"l","participant_id":"41"},{"rt":null,"stimulus":"<p style=\"font-size: 48px;\">+</p>","key_press":null,"block":0,"trial_type":"html-keyboard-response","trial_index":31,"time_elapsed":615726,"internal_node_id":"0.0-10.0-1.5","match_key":"l","participant_id":"41"},{"rt":2181.5049999859184,"stimulus":"Images/train_orig.png","key_press":76,"stim_onset":1583445415440,"block":0,"match_type":"match","image_category":"train","sound_category":"train","audio_type":"label","phase":"practice","trial_type":"image-keyboard-response","trial_index":32,"time_elapsed":617908,"internal_node_id":"0.0-10.0-2.5","match_key":"l","participant_id":"41","correct":true},{"rt":null,"stimulus":"Sounds/correct.wav","key_press":null,"block":0,"trial_type":"audio-keyboard-response","trial_index":33,"time_elapsed":619917,"internal_node_id":"0.0-10.0-3.5","match_key":"l","participant_id":"41"},{"rt":null,"stimulus":"Sounds/motorcycle_label.wav","key_press":null,"block":0,"trial_type":"audio-keyboard-response","trial_index":34,"time_elapsed":621066,"internal_node_id":"0.0-10.0-0.6","match_key":"l","participant_id":"41"},{"rt":null,"stimulus":"<p style=\"font-size: 48px;\">+</p>","key_press":null,"block":0,"trial_type":"html-keyboard-response","trial_index":35,"time_elapsed":622059,"internal_node_id":"0.0-10.0-1.6","match_key":"l","participant_id":"41"},{"rt":600.5899999872781,"stimulus":"Images/motorcycle_1.png","key_press":76,"stim_onset":1583445421773,"block":0,"match_type":"match","image_category":"motorcycle","sound_category":"motorcycle","audio_type":"label","phase":"practice","trial_type":"image-keyboard-response","trial_index":36,"time_elapsed":622661,"internal_node_id":"0.0-10.0-2.6","match_key":"l","participant_id":"41","correct":true},{"rt":null,"stimulus":"Sounds/correct.wav","key_press":null,"block":0,"trial_type":"audio-keyboard-response","trial_index":37,"time_elapsed":624666,"internal_node_id":"0.0-10.0-3.6","match_key":"l","participant_id":"41"},{"rt":null,"stimulus":"Sounds/cat_label.wav","key_press":null,"block":0,"trial_type":"audio-keyboard-response","trial_index":38,"time_elapsed":625506,"internal_node_id":"0.0-10.0-0.7","match_key":"l","participant_id":"41"},{"rt":null,"stimulus":"<p style=\"font-size: 48px;\">+</p>","key_press":null,"block":0,"trial_type":"html-keyboard-response","trial_index":39,"time_elapsed":626509,"internal_node_id":"0.0-10.0-1.7","match_key":"l","participant_id":"41"},{"rt":966.359999962151,"stimulus":"Images/frog_orig.png","key_press":65,"stim_onset":1583445426223,"block":0,"match_type":"non-match","image_category":"frog","sound_category":"cat","audio_type":"label","phase":"practice","trial_type":"image-keyboard-response","trial_index":40,"time_elapsed":627476,"internal_node_id":"0.0-10.0-2.7","match_key":"l","participant_id":"41","correct":true},{"rt":null,"stimulus":"Sounds/correct.wav","key_press":null,"block":0,"trial_type":"audio-keyboard-response","trial_index":41,"time_elapsed":629483,"internal_node_id":"0.0-10.0-3.7","match_key":"l","participant_id":"41"},{"rt":null,"stimulus":"Sounds/cow_label.wav","key_press":null,"block":0,"trial_type":"audio-keyboard-response","trial_index":42,"time_elapsed":630506,"internal_node_id":"0.0-10.0-0.8","match_key":"l","participant_id":"41"},{"rt":null,"stimulus":"<p style=\"font-size: 48px;\">+</p>","key_press":null,"block":0,"trial_type":"html-keyboard-response","trial_index":43,"time_elapsed":631509,"internal_node_id":"0.0-10.0-1.8","match_key":"l","participant_id":"41"},{"rt":878.2300000311807,"stimulus":"Images/cat_3.png","key_press":65,"stim_onset":1583445431223,"block":0,"match_type":"non-match","image_category":"cat","sound_category":"cow","audio_type":"label","phase":"practice","trial_type":"image-keyboard-response","trial_index":44,"time_elapsed":632388,"internal_node_id":"0.0-10.0-2.8","match_key":"l","participant_id":"41","correct":true},{"rt":null,"stimulus":"Sounds/correct.wav","key_press":null,"block":0,"trial_type":"audio-keyboard-response","trial_index":45,"time_elapsed":634399,"internal_node_id":"0.0-10.0-3.8","match_key":"l","participant_id":"41"},{"rt":null,"stimulus":"Sounds/motorcycle_label.wav","key_press":null,"block":0,"trial_type":"audio-keyboard-response","trial_index":46,"time_elapsed":635506,"internal_node_id":"0.0-10.0-0.9","match_key":"l","participant_id":"41"},{"rt":null,"stimulus":"<p style=\"font-size: 48px;\">+</p>","key_press":null,"block":0,"trial_type":"html-keyboard-response","trial_index":47,"time_elapsed":636509,"internal_node_id":"0.0-10.0-1.9","match_key":"l","participant_id":"41"},{"rt":742.035000002943,"stimulus":"Images/motorcycle_orig.png","key_press":76,"stim_onset":1583445436223,"block":0,"match_type":"match","image_category":"motorcycle","sound_category":"motorcycle","audio_type":"label","phase":"practice","trial_type":"image-keyboard-response","trial_index":48,"time_elapsed":637253,"internal_node_id":"0.0-10.0-2.9","match_key":"l","participant_id":"41","correct":true},{"rt":null,"stimulus":"Sounds/correct.wav","key_press":null,"block":0,"trial_type":"audio-keyboard-response","trial_index":49,"time_elapsed":639263,"internal_node_id":"0.0-10.0-3.9","match_key":"l","participant_id":"41"},{"rt":32229.29500002647,"stimulus":"<p>The rest of the experiment is divided into five blocks with 100 trials in each block. It will take about 45 minutes to complete.</p><p>The experimenter will be in the outer room and you can communicate with them through the monitor if you have any questions or wish to stop the experiment.</p>","key_press":76,"trial_type":"html-keyboard-response","trial_index":50,"time_elapsed":671484,"internal_node_id":"0.0-11.0","match_key":"l","participant_id":"41"},{"rt":5918.730000033975,"stimulus":"<p>Remember, please try not to move or blink your eyes during the presentation of the images. </p><p>At the end of the experiment, we will show you your scores on the task so you can see how you did.</p><p>The experiment will start on the next screen.</p>","key_press":76,"trial_type":"html-keyboard-response","trial_index":51,"time_elapsed":677404,"internal_node_id":"0.0-12.0","match_key":"l","participant_id":"41"},{"rt":null,"stimulus":"Sounds/cat_sound.wav","key_press":null,"block":1,"trial_type":"audio-keyboard-response","trial_index":52,"time_elapsed":680266,"internal_node_id":"0.0-13.0-0.0","match_key":"l","participant_id":"41"},{"rt":null,"stimulus":"<p style=\"font-size: 48px;\">+</p>","key_press":null,"block":1,"trial_type":"html-keyboard-response","trial_index":53,"time_elapsed":681268,"internal_node_id":"0.0-13.0-1.0","match_key":"l","participant_id":"41"},{"rt":935.3000000119209,"stimulus":"Images/cat_2.png","key_press":76,"stim_onset":1583445480982,"block":1,"match_type":"match","image_category":"cat","sound_category":"cat","audio_type":"sound","phase":"test","trial_type":"image-keyboard-response","trial_index":54,"time_elapsed":682205,"internal_node_id":"0.0-13.0-2.0","match_key":"l","participant_id":"41","correct":true},{"rt":null,"stimulus":"Sounds/correct.wav","key_press":null,"block":1,"trial_type":"audio-keyboard-response","trial_index":55,"time_elapsed":684223,"internal_node_id":"0.0-13.0-3.0","match_key":"l","participant_id":"41"},{"rt":null,"stimulus":"Sounds/cat_label.wav","key_press":null,"block":1,"trial_type":"audio-keyboard-response","trial_index":56,"time_elapsed":685066,"internal_node_id":"0.0-13.0-0.1","match_key":"l","participant_id":"41"},{"rt":null,"stimulus":"<p style=\"font-size: 48px;\">+</p>","key_press":null,"block":1,"trial_type":"html-keyboard-response","trial_index":57,"time_elapsed":686068,"internal_node_id":"0.0-13.0-1.1","match_key":"l","participant_id":"41"},{"rt":662.865000020247,"stimulus":"Images/motorcycle_orig.png","key_press":65,"stim_onset":1583445485782,"block":1,"match_type":"non-match","image_category":"motorcycle","sound_category":"cat","audio_type":"label","phase":"test","trial_type":"image-keyboard-response","trial_index":58,"time_elapsed":686732,"internal_node_id":"0.0-13.0-2.1","match_key":"l","participant_id":"41","correct":true},{"rt":null,"stimulus":"Sounds/correct.wav","key_press":null,"block":1,"trial_type":"audio-keyboard-response","trial_index":59,"time_elapsed":688740,"internal_node_id":"0.0-13.0-3.1","match_key":"l","participant_id":"41"},{"rt":null,"stimulus":"Sounds/cat_label.wav","key_press":null,"block":1,"trial_type":"audio-keyboard-response","trial_index":60,"time_elapsed":689546,"internal_node_id":"0.0-13.0-0.2","match_key":"l","participant_id":"41"},{"rt":null,"stimulus":"<p style=\"font-size: 48px;\">+</p>","key_press":null,"block":1,"trial_type":"html-keyboard-response","trial_index":61,"time_elapsed":690534,"internal_node_id":"0.0-13.0-1.2","match_key":"l","participant_id":"41"},{"rt":692.2800000174902,"stimulus":"Images/rooster_orig.png","key_press":65,"stim_onset":1583445490249,"block":1,"match_type":"non-match","image_category":"rooster","sound_category":"cat","audio_type":"label","phase":"test","trial_type":"image-keyboard-response","trial_index":62,"time_elapsed":691228,"internal_node_id":"0.0-13.0-2.2","match_key":"l","participant_id":"41","correct":true},{"rt":null,"stimulus":"Sounds/correct.wav","key_press":null,"block":1,"trial_type":"audio-keyboard-response","trial_index":63,"time_elapsed":693238,"internal_node_id":"0.0-13.0-3.2","match_key":"l","participant_id":"41"},{"rt":null,"stimulus":"Sounds/car_sound.wav","key_press":null,"block":1,"trial_type":"audio-keyboard-response","trial_index":64,"time_elapsed":694326,"internal_node_id":"0.0-13.0-0.3","match_key":"l","participant_id":"41"},{"rt":null,"stimulus":"<p style=\"font-size: 48px;\">+</p>","key_press":null,"block":1,"trial_type":"html-keyboard-response","trial_index":65,"time_elapsed":695318,"internal_node_id":"0.0-13.0-1.3","match_key":"l","participant_id":"41"},{"rt":1108.6650000070222,"stimulus":"Images/train_1.png","key_press":65,"stim_onset":1583445495032,"block":1,"match_type":"non-match","image_category":"train","sound_category":"car","audio_type":"sound","phase":"test","trial_type":"image-keyboard-response","trial_index":66,"time_elapsed":696428,"internal_node_id":"0.0-13.0-2.3","match_key":"l","participant_id":"41","correct":true},{"rt":null,"stimulus":"Sounds/correct.wav","key_press":null,"block":1,"trial_type":"audio-keyboard-response","trial_index":67,"time_elapsed":698440,"internal_node_id":"0.0-13.0-3.3","match_key":"l","participant_id":"41"},{"rt":null,"stimulus":"Sounds/cat_sound.wav","key_press":null,"block":1,"trial_type":"audio-keyboard-response","trial_index":68,"time_elapsed":699266,"internal_node_id":"0.0-13.0-0.4","match_key":"l","participant_id":"41"},{"rt":null,"stimulus":"<p style=\"font-size: 48px;\">+</p>","key_press":null,"block":1,"trial_type":"html-keyboard-response","trial_index":69,"time_elapsed":700268,"internal_node_id":"0.0-13.0-1.4","match_key":"l","participant_id":"41"},{"rt":862.9000000073574,"stimulus":"Images/gun_1.png","key_press":65,"stim_onset":1583445499982,"block":1,"match_type":"non-match","image_category":"gun","sound_category":"cat","audio_type":"sound","phase":"test","trial_type":"image-keyboard-response","trial_index":70,"time_elapsed":701132,"internal_node_id":"0.0-13.0-2.4","match_key":"l","participant_id":"41","correct":true},{"rt":null,"stimulus":"Sounds/correct.wav","key_press":null,"block":1,"trial_type":"audio-keyboard-response","trial_index":71,"time_elapsed":703141,"internal_node_id":"0.0-13.0-3.4","match_key":"l","participant_id":"41"},{"rt":null,"stimulus":"Sounds/frog_sound.wav","key_press":null,"block":1,"trial_type":"audio-keyboard-response","trial_index":72,"time_elapsed":704046,"internal_node_id":"0.0-13.0-0.5","match_key":"l","participant_id":"41"},{"rt":null,"stimulus":"<p style=\"font-size: 48px;\">+</p>","key_press":null,"block":1,"trial_type":"html-keyboard-response","trial_index":73,"time_elapsed":705035,"internal_node_id":"0.0-13.0-1.5","match_key":"l","participant_id":"41"},{"rt":1216.0349999903701,"stimulus":"Images/frog_3.png","key_press":76,"stim_onset":1583445504749,"block":1,"match_type":"match","image_category":"frog","sound_category":"frog","audio_type":"sound","phase":"test","trial_type":"image-keyboard-response","trial_index":74,"time_elapsed":706252,"internal_node_id":"0.0-13.0-2.5","match_key":"l","participant_id":"41","correct":true},{"rt":null,"stimulus":"Sounds/correct.wav","key_press":null,"block":1,"trial_type":"audio-keyboard-response","trial_index":75,"time_elapsed":708256,"internal_node_id":"0.0-13.0-3.5","match_key":"l","participant_id":"41"},{"rt":null,"stimulus":"Sounds/whistle_sound.wav","key_press":null,"block":1,"trial_type":"audio-keyboard-response","trial_index":76,"time_elapsed":708966,"internal_node_id":"0.0-13.0-0.6","match_key":"l","participant_id":"41"},{"rt":null,"stimulus":"<p style=\"font-size: 48px;\">+</p>","key_press":null,"block":1,"trial_type":"html-keyboard-response","trial_index":77,"time_elapsed":709968,"internal_node_id":"0.0-13.0-1.6","match_key":"l","participant_id":"41"},{"rt":1066.9099999940954,"stimulus":"Images/whistle_cartoon.png","key_press":76,"stim_onset":1583445509683,"block":1,"match_type":"match","image_category":"whistle","sound_category":"whistle","audio_type":"sound","phase":"test","trial_type":"image-keyboard-response","trial_index":78,"time_elapsed":711036,"internal_node_id":"0.0-13.0-2.6","match_key":"l","participant_id":"41","correct":true},{"rt":null,"stimulus":"Sounds/correct.wav","key_press":null,"block":1,"trial_type":"audio-keyboard-response","trial_index":79,"time_elapsed":713043,"internal_node_id":"0.0-13.0-3.6","match_key":"l","participant_id":"41"},{"rt":null,"stimulus":"Sounds/rooster_label.wav","key_press":null,"block":1,"trial_type":"audio-keyboard-response","trial_index":80,"time_elapsed":713746,"internal_node_id":"0.0-13.0-0.7","match_key":"l","participant_id":"41"},{"rt":null,"stimulus":"<p style=\"font-size: 48px;\">+</p>","key_press":null,"block":1,"trial_type":"html-keyboard-response","trial_index":81,"time_elapsed":714735,"internal_node_id":"0.0-13.0-1.7","match_key":"l","participant_id":"41"},{"rt":1020.0799999875017,"stimulus":"Images/rooster_1.png","key_press":65,"stim_onset":1583445514449,"block":1,"match_type":"match","image_category":"rooster","sound_category":"rooster","audio_type":"label","phase":"test","trial_type":"image-keyboard-response","trial_index":82,"time_elapsed":715756,"internal_node_id":"0.0-13.0-2.7","match_key":"l","participant_id":"41","correct":false},{"rt":null,"stimulus":"Sounds/incorrect.wav","key_press":null,"block":1,"trial_type":"audio-keyboard-response","trial_index":83,"time_elapsed":717772,"internal_node_id":"0.0-13.0-3.7","match_key":"l","participant_id":"41"},{"rt":null,"stimulus":"Sounds/motorcycle_label.wav","key_press":null,"block":1,"trial_type":"audio-keyboard-response","trial_index":84,"time_elapsed":718906,"internal_node_id":"0.0-13.0-0.8","match_key":"l","participant_id":"41"},{"rt":null,"stimulus":"<p style=\"font-size: 48px;\">+</p>","key_press":null,"block":1,"trial_type":"html-keyboard-response","trial_index":85,"time_elapsed":719902,"internal_node_id":"0.0-13.0-1.8","match_key":"l","participant_id":"41"},{"rt":1069.1950000473298,"stimulus":"Images/motorcycle_3.png","key_press":76,"stim_onset":1583445519616,"block":1,"match_type":"match","image_category":"motorcycle","sound_category":"motorcycle","audio_type":"label","phase":"test","trial_type":"image-keyboard-response","trial_index":86,"time_elapsed":720972,"internal_node_id":"0.0-13.0-2.8","match_key":"l","participant_id":"41","correct":true},{"rt":null,"stimulus":"Sounds/correct.wav","key_press":null,"block":1,"trial_type":"audio-keyboard-response","trial_index":87,"time_elapsed":722988,"internal_node_id":"0.0-13.0-3.8","match_key":"l","participant_id":"41"},{"rt":null,"stimulus":"Sounds/train_sound.wav","key_press":null,"block":1,"trial_type":"audio-keyboard-response","trial_index":88,"time_elapsed":724286,"internal_node_id":"0.0-13.0-0.9","match_key":"l","participant_id":"41"},{"rt":null,"stimulus":"<p style=\"font-size: 48px;\">+</p>","key_press":null,"block":1,"trial_type":"html-keyboard-response","trial_index":89,"time_elapsed":725285,"internal_node_id":"0.0-13.0-1.9","match_key":"l","participant_id":"41"},{"rt":1270.1550000347197,"stimulus":"Images/train_1.png","key_press":76,"stim_onset":1583445524999,"block":1,"match_type":"match","image_category":"train","sound_category":"train","audio_type":"sound","phase":"test","trial_type":"image-keyboard-response","trial_index":90,"time_elapsed":726556,"internal_node_id":"0.0-13.0-2.9","match_key":"l","participant_id":"41","correct":true},{"rt":null,"stimulus":"Sounds/correct.wav","key_press":null,"block":1,"trial_type":"audio-keyboard-response","trial_index":91,"time_elapsed":728558,"internal_node_id":"0.0-13.0-3.9","match_key":"l","participant_id":"41"},{"rt":null,"stimulus":"Sounds/rooster_label.wav","key_press":null,"block":1,"trial_type":"audio-keyboard-response","trial_index":92,"time_elapsed":729226,"internal_node_id":"0.0-13.0-0.10","match_key":"l","participant_id":"41"},{"rt":null,"stimulus":"<p style=\"font-size: 48px;\">+</p>","key_press":null,"block":1,"trial_type":"html-keyboard-response","trial_index":93,"time_elapsed":730218,"internal_node_id":"0.0-13.0-1.10","match_key":"l","participant_id":"41"},{"rt":1072.4250000203028,"stimulus":"Images/whistle_3.png","key_press":65,"stim_onset":1583445529933,"block":1,"match_type":"non-match","image_category":"whistle","sound_category":"rooster","audio_type":"label","phase":"test","trial_type":"image-keyboard-response","trial_index":94,"time_elapsed":731292,"internal_node_id":"0.0-13.0-2.10","match_key":"l","participant_id":"41","correct":true},{"rt":null,"stimulus":"Sounds/correct.wav","key_press":null,"block":1,"trial_type":"audio-keyboard-response","trial_index":95,"time_elapsed":733316,"internal_node_id":"0.0-13.0-3.10","match_key":"l","participant_id":"41"},{"rt":null,"stimulus":"Sounds/gun_label.wav","key_press":null,"block":1,"trial_type":"audio-keyboard-response","trial_index":96,"time_elapsed":733894,"internal_node_id":"0.0-13.0-0.11","match_key":"l","participant_id":"41"},{"rt":null,"stimulus":"<p style=\"font-size: 48px;\">+</p>","key_press":null,"block":1,"trial_type":"html-keyboard-response","trial_index":97,"time_elapsed":734893,"internal_node_id":"0.0-13.0-1.11","match_key":"l","participant_id":"41"},{"rt":805.835000006482,"stimulus":"Images/whistle_cartoon.png","key_press":65,"stim_onset":1583445534607,"block":1,"match_type":"non-match","image_category":"whistle","sound_category":"gun","audio_type":"label","phase":"test","trial_type":"image-keyboard-response","trial_index":98,"time_elapsed":735700,"internal_node_id":"0.0-13.0-2.11","match_key":"l","participant_id":"41","correct":true},{"rt":null,"stimulus":"Sounds/correct.wav","key_press":null,"block":1,"trial_type":"audio-keyboard-response","trial_index":99,"time_elapsed":737715,"internal_node_id":"0.0-13.0-3.11","match_key":"l","participant_id":"41"},{"rt":null,"stimulus":"Sounds/cow_label.wav","key_press":null,"block":1,"trial_type":"audio-keyboard-response","trial_index":100,"time_elapsed":738734,"internal_node_id":"0.0-13.0-0.12","match_key":"l","participant_id":"41"},{"rt":null,"stimulus":"<p style=\"font-size: 48px;\">+</p>","key_press":null,"block":1,"trial_type":"html-keyboard-response","trial_index":101,"time_elapsed":739726,"internal_node_id":"0.0-13.0-1.12","match_key":"l","participant_id":"41"},{"rt":597.0950000337325,"stimulus":"Images/cow_cartoon.png","key_press":76,"stim_onset":1583445539441,"block":1,"match_type":"match","image_category":"cow","sound_category":"cow","audio_type":"label","phase":"test","trial_type":"image-keyboard-response","trial_index":102,"time_elapsed":740325,"internal_node_id":"0.0-13.0-2.12","match_key":"l","participant_id":"41","correct":true},{"rt":null,"stimulus":"Sounds/correct.wav","key_press":null,"block":1,"trial_type":"audio-keyboard-response","trial_index":103,"time_elapsed":742332,"internal_node_id":"0.0-13.0-3.12","match_key":"l","participant_id":"41"},{"rt":null,"stimulus":"Sounds/frog_label.wav","key_press":null,"block":1,"trial_type":"audio-keyboard-response","trial_index":104,"time_elapsed":743234,"internal_node_id":"0.0-13.0-0.13","match_key":"l","participant_id":"41"},{"rt":null,"stimulus":"<p style=\"font-size: 48px;\">+</p>","key_press":null,"block":1,"trial_type":"html-keyboard-response","trial_index":105,"time_elapsed":744227,"internal_node_id":"0.0-13.0-1.13","match_key":"l","participant_id":"41"},{"rt":1152.3099999758415,"stimulus":"Images/frog_1.png","key_press":76,"stim_onset":1583445543941,"block":1,"match_type":"match","image_category":"frog","sound_category":"frog","audio_type":"label","phase":"test","trial_type":"image-keyboard-response","trial_index":106,"time_elapsed":745380,"internal_node_id":"0.0-13.0-2.13","match_key":"l","participant_id":"41","correct":true},{"rt":null,"stimulus":"Sounds/correct.wav","key_press":null,"block":1,"trial_type":"audio-keyboard-response","trial_index":107,"time_elapsed":747397,"internal_node_id":"0.0-13.0-3.13","match_key":"l","participant_id":"41"},{"rt":null,"stimulus":"Sounds/cow_sound.wav","key_press":null,"block":1,"trial_type":"audio-keyboard-response","trial_index":108,"time_elapsed":748414,"internal_node_id":"0.0-13.0-0.14","match_key":"l","participant_id":"41"},{"rt":null,"stimulus":"<p style=\"font-size: 48px;\">+</p>","key_press":null,"block":1,"trial_type":"html-keyboard-response","trial_index":109,"time_elapsed":749410,"internal_node_id":"0.0-13.0-1.14","match_key":"l","participant_id":"41"},{"rt":737.0300000184216,"stimulus":"Images/cat_2.png","key_press":65,"stim_onset":1583445549124,"block":1,"match_type":"non-match","image_category":"cat","sound_category":"cow","audio_type":"sound","phase":"test","trial_type":"image-keyboard-response","trial_index":110,"time_elapsed":750148,"internal_node_id":"0.0-13.0-2.14","match_key":"l","participant_id":"41","correct":true},{"rt":null,"stimulus":"Sounds/correct.wav","key_press":null,"block":1,"trial_type":"audio-keyboard-response","trial_index":111,"time_elapsed":752164,"internal_node_id":"0.0-13.0-3.14","match_key":"l","participant_id":"41"},{"rt":null,"stimulus":"Sounds/frog_label.wav","key_press":null,"block":1,"trial_type":"audio-keyboard-response","trial_index":112,"time_elapsed":753034,"internal_node_id":"0.0-13.0-0.15","match_key":"l","participant_id":"41"},{"rt":null,"stimulus":"<p style=\"font-size: 48px;\">+</p>","key_press":null,"block":1,"trial_type":"html-keyboard-response","trial_index":113,"time_elapsed":754027,"internal_node_id":"0.0-13.0-1.15","match_key":"l","participant_id":"41"},{"rt":696.4400000288151,"stimulus":"Images/motorcycle_cartoon.png","key_press":65,"stim_onset":1583445553741,"block":1,"match_type":"non-match","image_category":"motorcycle","sound_category":"frog","audio_type":"label","phase":"test","trial_type":"image-keyboard-response","trial_index":114,"time_elapsed":754724,"internal_node_id":"0.0-13.0-2.15","match_key":"l","participant_id":"41","correct":true},{"rt":null,"stimulus":"Sounds/correct.wav","key_press":null,"block":1,"trial_type":"audio-keyboard-response","trial_index":115,"time_elapsed":756734,"internal_node_id":"0.0-13.0-3.15","match_key":"l","participant_id":"41"},{"rt":null,"stimulus":"Sounds/rooster_label.wav","key_press":null,"block":1,"trial_type":"audio-keyboard-response","trial_index":116,"time_elapsed":757434,"internal_node_id":"0.0-13.0-0.16","match_key":"l","participant_id":"41"},{"rt":null,"stimulus":"<p style=\"font-size: 48px;\">+</p>","key_press":null,"block":1,"trial_type":"html-keyboard-response","trial_index":117,"time_elapsed":758427,"internal_node_id":"0.0-13.0-1.16","match_key":"l","participant_id":"41"},{"rt":744.234999991022,"stimulus":"Images/dog_cartoon.png","key_press":65,"stim_onset":1583445558141,"block":1,"match_type":"non-match","image_category":"dog","sound_category":"rooster","audio_type":"label","phase":"test","trial_type":"image-keyboard-response","trial_index":118,"time_elapsed":759172,"internal_node_id":"0.0-13.0-2.16","match_key":"l","participant_id":"41","correct":true},{"rt":null,"stimulus":"Sounds/correct.wav","key_press":null,"block":1,"trial_type":"audio-keyboard-response","trial_index":119,"time_elapsed":761182,"internal_node_id":"0.0-13.0-3.16","match_key":"l","participant_id":"41"},{"rt":null,"stimulus":"Sounds/cow_label.wav","key_press":null,"block":1,"trial_type":"audio-keyboard-response","trial_index":120,"time_elapsed":762194,"internal_node_id":"0.0-13.0-0.17","match_key":"l","participant_id":"41"},{"rt":null,"stimulus":"<p style=\"font-size: 48px;\">+</p>","key_press":null,"block":1,"trial_type":"html-keyboard-response","trial_index":121,"time_elapsed":763193,"internal_node_id":"0.0-13.0-1.17","match_key":"l","participant_id":"41"},{"rt":569.420000014361,"stimulus":"Images/cow_1.png","key_press":76,"stim_onset":1583445562908,"block":1,"match_type":"match","image_category":"cow","sound_category":"cow","audio_type":"label","phase":"test","trial_type":"image-keyboard-response","trial_index":122,"time_elapsed":763764,"internal_node_id":"0.0-13.0-2.17","match_key":"l","participant_id":"41","correct":true},{"rt":null,"stimulus":"Sounds/correct.wav","key_press":null,"block":1,"trial_type":"audio-keyboard-response","trial_index":123,"time_elapsed":765781,"internal_node_id":"0.0-13.0-3.17","match_key":"l","participant_id":"41"},{"rt":null,"stimulus":"Sounds/frog_sound.wav","key_press":null,"block":1,"trial_type":"audio-keyboard-response","trial_index":124,"time_elapsed":766694,"internal_node_id":"0.0-13.0-0.18","match_key":"l","participant_id":"41"},{"rt":null,"stimulus":"<p style=\"font-size: 48px;\">+</p>","key_press":null,"block":1,"trial_type":"html-keyboard-response","trial_index":125,"time_elapsed":767694,"internal_node_id":"0.0-13.0-1.18","match_key":"l","participant_id":"41"},{"rt":517.5699999672361,"stimulus":"Images/rooster_1.png","key_press":65,"stim_onset":1583445567408,"block":1,"match_type":"non-match","image_category":"rooster","sound_category":"frog","audio_type":"sound","phase":"test","trial_type":"image-keyboard-response","trial_index":126,"time_elapsed":768212,"internal_node_id":"0.0-13.0-2.18","match_key":"l","participant_id":"41","correct":true},{"rt":null,"stimulus":"Sounds/correct.wav","key_press":null,"block":1,"trial_type":"audio-keyboard-response","trial_index":127,"time_elapsed":770215,"internal_node_id":"0.0-13.0-3.18","match_key":"l","participant_id":"41"},{"rt":null,"stimulus":"Sounds/cat_label.wav","key_press":null,"block":1,"trial_type":"audio-keyboard-response","trial_index":128,"time_elapsed":771054,"internal_node_id":"0.0-13.0-0.19","match_key":"l","participant_id":"41"},{"rt":null,"stimulus":"<p style=\"font-size: 48px;\">+</p>","key_press":null,"block":1,"trial_type":"html-keyboard-response","trial_index":129,"time_elapsed":772043,"internal_node_id":"0.0-13.0-1.19","match_key":"l","participant_id":"41"},{"rt":679.6350000076927,"stimulus":"Images/cow_orig.png","key_press":65,"stim_onset":1583445571758,"block":1,"match_type":"non-match","image_category":"cow","sound_category":"cat","audio_type":"label","phase":"test","trial_type":"image-keyboard-response","trial_index":130,"time_elapsed":772724,"internal_node_id":"0.0-13.0-2.19","match_key":"l","participant_id":"41","correct":true},{"rt":null,"stimulus":"Sounds/correct.wav","key_press":null,"block":1,"trial_type":"audio-keyboard-response","trial_index":131,"time_elapsed":774732,"internal_node_id":"0.0-13.0-3.19","match_key":"l","participant_id":"41"},{"rt":null,"stimulus":"Sounds/whistle_sound.wav","key_press":null,"block":1,"trial_type":"audio-keyboard-response","trial_index":132,"time_elapsed":775434,"internal_node_id":"0.0-13.0-0.20","match_key":"l","participant_id":"41"},{"rt":null,"stimulus":"<p style=\"font-size: 48px;\">+</p>","key_press":null,"block":1,"trial_type":"html-keyboard-response","trial_index":133,"time_elapsed":776427,"internal_node_id":"0.0-13.0-1.20","match_key":"l","participant_id":"41"},{"rt":872.2600000328384,"stimulus":"Images/frog_cartoon.png","key_press":65,"stim_onset":1583445576141,"block":1,"match_type":"non-match","image_category":"frog","sound_category":"whistle","audio_type":"sound","phase":"test","trial_type":"image-keyboard-response","trial_index":134,"time_elapsed":777300,"internal_node_id":"0.0-13.0-2.20","match_key":"l","participant_id":"41","correct":true},{"rt":null,"stimulus":"Sounds/correct.wav","key_press":null,"block":1,"trial_type":"audio-keyboard-response","trial_index":135,"time_elapsed":779316,"internal_node_id":"0.0-13.0-3.20","match_key":"l","participant_id":"41"},{"rt":null,"stimulus":"Sounds/car_label.wav","key_press":null,"block":1,"trial_type":"audio-keyboard-response","trial_index":136,"time_elapsed":780394,"internal_node_id":"0.0-13.0-0.21","match_key":"l","participant_id":"41"},{"rt":null,"stimulus":"<p style=\"font-size: 48px;\">+</p>","key_press":null,"block":1,"trial_type":"html-keyboard-response","trial_index":137,"time_elapsed":781394,"internal_node_id":"0.0-13.0-1.21","match_key":"l","participant_id":"41"},{"rt":881.2950000283308,"stimulus":"Images/car_1.png","key_press":76,"stim_onset":1583445581108,"block":1,"match_type":"match","image_category":"car","sound_category":"car","audio_type":"label","phase":"test","trial_type":"image-keyboard-response","trial_index":138,"time_elapsed":782276,"internal_node_id":"0.0-13.0-2.21","match_key":"l","participant_id":"41","correct":true},{"rt":null,"stimulus":"Sounds/correct.wav","key_press":null,"block":1,"trial_type":"audio-keyboard-response","trial_index":139,"time_elapsed":784282,"internal_node_id":"0.0-13.0-3.21","match_key":"l","participant_id":"41"},{"rt":null,"stimulus":"Sounds/frog_label.wav","key_press":null,"block":1,"trial_type":"audio-keyboard-response","trial_index":140,"time_elapsed":785194,"internal_node_id":"0.0-13.0-0.22","match_key":"l","participant_id":"41"},{"rt":null,"stimulus":"<p style=\"font-size: 48px;\">+</p>","key_press":null,"block":1,"trial_type":"html-keyboard-response","trial_index":141,"time_elapsed":786194,"internal_node_id":"0.0-13.0-1.22","match_key":"l","participant_id":"41"},{"rt":1137.604999996256,"stimulus":"Images/cat_3.png","key_press":65,"stim_onset":1583445585908,"block":1,"match_type":"non-match","image_category":"cat","sound_category":"frog","audio_type":"label","phase":"test","trial_type":"image-keyboard-response","trial_index":142,"time_elapsed":787332,"internal_node_id":"0.0-13.0-2.22","match_key":"l","participant_id":"41","correct":true},{"rt":null,"stimulus":"Sounds/correct.wav","key_press":null,"block":1,"trial_type":"audio-keyboard-response","trial_index":143,"time_elapsed":789343,"internal_node_id":"0.0-13.0-3.22","match_key":"l","participant_id":"41"},{"rt":null,"stimulus":"Sounds/gun_label.wav","key_press":null,"block":1,"trial_type":"audio-keyboard-response","trial_index":144,"time_elapsed":789914,"internal_node_id":"0.0-13.0-0.23","match_key":"l","participant_id":"41"},{"rt":null,"stimulus":"<p style=\"font-size: 48px;\">+</p>","key_press":null,"block":1,"trial_type":"html-keyboard-response","trial_index":145,"time_elapsed":790910,"internal_node_id":"0.0-13.0-1.23","match_key":"l","participant_id":"41"},{"rt":516.5149999666028,"stimulus":"Images/gun_orig.png","key_press":76,"stim_onset":1583445590625,"block":1,"match_type":"match","image_category":"gun","sound_category":"gun","audio_type":"label","phase":"test","trial_type":"image-keyboard-response","trial_index":146,"time_elapsed":791428,"internal_node_id":"0.0-13.0-2.23","match_key":"l","participant_id":"41","correct":true},{"rt":null,"stimulus":"Sounds/correct.wav","key_press":null,"block":1,"trial_type":"audio-keyboard-response","trial_index":147,"time_elapsed":793432,"internal_node_id":"0.0-13.0-3.23","match_key":"l","participant_id":"41"},{"rt":null,"stimulus":"Sounds/whistle_sound.wav","key_press":null,"block":1,"trial_type":"audio-keyboard-response","trial_index":148,"time_elapsed":794134,"internal_node_id":"0.0-13.0-0.24","match_key":"l","participant_id":"41"},{"rt":null,"stimulus":"<p style=\"font-size: 48px;\">+</p>","key_press":null,"block":1,"trial_type":"html-keyboard-response","trial_index":149,"time_elapsed":795127,"internal_node_id":"0.0-13.0-1.24","match_key":"l","participant_id":"41"},{"rt":716.0499999881722,"stimulus":"Images/whistle_3.png","key_press":76,"stim_onset":1583445594842,"block":1,"match_type":"match","image_category":"whistle","sound_category":"whistle","audio_type":"sound","phase":"test","trial_type":"image-keyboard-response","trial_index":150,"time_elapsed":795845,"internal_node_id":"0.0-13.0-2.24","match_key":"l","participant_id":"41","correct":true},{"rt":null,"stimulus":"Sounds/correct.wav","key_press":null,"block":1,"trial_type":"audio-keyboard-response","trial_index":151,"time_elapsed":797851,"internal_node_id":"0.0-13.0-3.24","match_key":"l","participant_id":"41"},{"rt":null,"stimulus":"Sounds/cow_label.wav","key_press":null,"block":1,"trial_type":"audio-keyboard-response","trial_index":152,"time_elapsed":798874,"internal_node_id":"0.0-13.0-0.25","match_key":"l","participant_id":"41"},{"rt":null,"stimulus":"<p style=\"font-size: 48px;\">+</p>","key_press":null,"block":1,"trial_type":"html-keyboard-response","trial_index":153,"time_elapsed":799877,"internal_node_id":"0.0-13.0-1.25","match_key":"l","participant_id":"41"},{"rt":414.0400000032969,"stimulus":"Images/gun_cartoon.png","key_press":65,"stim_onset":1583445599592,"block":1,"match_type":"non-match","image_category":"gun","sound_category":"cow","audio_type":"label","phase":"test","trial_type":"image-keyboard-response","trial_index":154,"time_elapsed":800292,"internal_node_id":"0.0-13.0-2.25","match_key":"l","participant_id":"41","correct":true},{"rt":null,"stimulus":"Sounds/correct.wav","key_press":null,"block":1,"trial_type":"audio-keyboard-response","trial_index":155,"time_elapsed":802300,"internal_node_id":"0.0-13.0-3.25","match_key":"l","participant_id":"41"},{"rt":null,"stimulus":"Sounds/whistle_label.wav","key_press":null,"block":1,"trial_type":"audio-keyboard-response","trial_index":156,"time_elapsed":802994,"internal_node_id":"0.0-13.0-0.26","match_key":"l","participant_id":"41"},{"rt":null,"stimulus":"<p style=\"font-size: 48px;\">+</p>","key_press":null,"block":1,"trial_type":"html-keyboard-response","trial_index":157,"time_elapsed":803994,"internal_node_id":"0.0-13.0-1.26","match_key":"l","participant_id":"41"},{"rt":681.125000002794,"stimulus":"Images/whistle_orig.png","key_press":76,"stim_onset":1583445603709,"block":1,"match_type":"match","image_category":"whistle","sound_category":"whistle","audio_type":"label","phase":"test","trial_type":"image-keyboard-response","trial_index":158,"time_elapsed":804676,"internal_node_id":"0.0-13.0-2.26","match_key":"l","participant_id":"41","correct":true},{"rt":null,"stimulus":"Sounds/correct.wav","key_press":null,"block":1,"trial_type":"audio-keyboard-response","trial_index":159,"time_elapsed":806683,"internal_node_id":"0.0-13.0-3.26","match_key":"l","participant_id":"41"},{"rt":null,"stimulus":"Sounds/motorcycle_sound.wav","key_press":null,"block":1,"trial_type":"audio-keyboard-response","trial_index":160,"time_elapsed":807814,"internal_node_id":"0.0-13.0-0.27","match_key":"l","participant_id":"41"},{"rt":null,"stimulus":"<p style=\"font-size: 48px;\">+</p>","key_press":null,"block":1,"trial_type":"html-keyboard-response","trial_index":161,"time_elapsed":808811,"internal_node_id":"0.0-13.0-1.27","match_key":"l","participant_id":"41"},{"rt":616.5449999971315,"stimulus":"Images/whistle_2.png","key_press":65,"stim_onset":1583445608525,"block":1,"match_type":"non-match","image_category":"whistle","sound_category":"motorcycle","audio_type":"sound","phase":"test","trial_type":"image-keyboard-response","trial_index":162,"time_elapsed":809429,"internal_node_id":"0.0-13.0-2.27","match_key":"l","participant_id":"41","correct":true},{"rt":null,"stimulus":"Sounds/correct.wav","key_press":null,"block":1,"trial_type":"audio-keyboard-response","trial_index":163,"time_elapsed":811433,"internal_node_id":"0.0-13.0-3.27","match_key":"l","participant_id":"41"},{"rt":null,"stimulus":"Sounds/motorcycle_sound.wav","key_press":null,"block":1,"trial_type":"audio-keyboard-response","trial_index":164,"time_elapsed":812534,"internal_node_id":"0.0-13.0-0.28","match_key":"l","participant_id":"41"},{"rt":null,"stimulus":"<p style=\"font-size: 48px;\">+</p>","key_press":null,"block":1,"trial_type":"html-keyboard-response","trial_index":165,"time_elapsed":813528,"internal_node_id":"0.0-13.0-1.28","match_key":"l","participant_id":"41"},{"rt":491.6549999616109,"stimulus":"Images/motorcycle_cartoon.png","key_press":76,"stim_onset":1583445613242,"block":1,"match_type":"match","image_category":"motorcycle","sound_category":"motorcycle","audio_type":"sound","phase":"test","trial_type":"image-keyboard-response","trial_index":166,"time_elapsed":814020,"internal_node_id":"0.0-13.0-2.28","match_key":"l","participant_id":"41","correct":true},{"rt":null,"stimulus":"Sounds/correct.wav","key_press":null,"block":1,"trial_type":"audio-keyboard-response","trial_index":167,"time_elapsed":816030,"internal_node_id":"0.0-13.0-3.28","match_key":"l","participant_id":"41"},{"rt":null,"stimulus":"Sounds/train_label.wav","key_press":null,"block":1,"trial_type":"audio-keyboard-response","trial_index":168,"time_elapsed":817314,"internal_node_id":"0.0-13.0-0.29","match_key":"l","participant_id":"41"},{"rt":null,"stimulus":"<p style=\"font-size: 48px;\">+</p>","key_press":null,"block":1,"trial_type":"html-keyboard-response","trial_index":169,"time_elapsed":818311,"internal_node_id":"0.0-13.0-1.29","match_key":"l","participant_id":"41"},{"rt":668.4099999838509,"stimulus":"Images/train_3.png","key_press":76,"stim_onset":1583445618025,"block":1,"match_type":"match","image_category":"train","sound_category":"train","audio_type":"label","phase":"test","trial_type":"image-keyboard-response","trial_index":170,"time_elapsed":818980,"internal_node_id":"0.0-13.0-2.29","match_key":"l","participant_id":"41","correct":true},{"rt":null,"stimulus":"Sounds/correct.wav","key_press":null,"block":1,"trial_type":"audio-keyboard-response","trial_index":171,"time_elapsed":820983,"internal_node_id":"0.0-13.0-3.29","match_key":"l","participant_id":"41"},{"rt":null,"stimulus":"Sounds/cow_sound.wav","key_press":null,"block":1,"trial_type":"audio-keyboard-response","trial_index":172,"time_elapsed":822014,"internal_node_id":"0.0-13.0-0.30","match_key":"l","participant_id":"41"},{"rt":null,"stimulus":"<p style=\"font-size: 48px;\">+</p>","key_press":null,"block":1,"trial_type":"html-keyboard-response","trial_index":173,"time_elapsed":823011,"internal_node_id":"0.0-13.0-1.30","match_key":"l","participant_id":"41"},{"rt":736.5149999968708,"stimulus":"Images/cow_2.png","key_press":76,"stim_onset":1583445622725,"block":1,"match_type":"match","image_category":"cow","sound_category":"cow","audio_type":"sound","phase":"test","trial_type":"image-keyboard-response","trial_index":174,"time_elapsed":823749,"internal_node_id":"0.0-13.0-2.30","match_key":"l","participant_id":"41","correct":true},{"rt":null,"stimulus":"Sounds/correct.wav","key_press":null,"block":1,"trial_type":"audio-keyboard-response","trial_index":175,"time_elapsed":825765,"internal_node_id":"0.0-13.0-3.30","match_key":"l","participant_id":"41"},{"rt":null,"stimulus":"Sounds/car_label.wav","key_press":null,"block":1,"trial_type":"audio-keyboard-response","trial_index":176,"time_elapsed":826854,"internal_node_id":"0.0-13.0-0.31","match_key":"l","participant_id":"41"},{"rt":null,"stimulus":"<p style=\"font-size: 48px;\">+</p>","key_press":null,"block":1,"trial_type":"html-keyboard-response","trial_index":177,"time_elapsed":827844,"internal_node_id":"0.0-13.0-1.31","match_key":"l","participant_id":"41"},{"rt":719.0350000164472,"stimulus":"Images/cat_1.png","key_press":65,"stim_onset":1583445627559,"block":1,"match_type":"non-match","image_category":"cat","sound_category":"car","audio_type":"label","phase":"test","trial_type":"image-keyboard-response","trial_index":178,"time_elapsed":828564,"internal_node_id":"0.0-13.0-2.31","match_key":"l","participant_id":"41","correct":true},{"rt":null,"stimulus":"Sounds/correct.wav","key_press":null,"block":1,"trial_type":"audio-keyboard-response","trial_index":179,"time_elapsed":830568,"internal_node_id":"0.0-13.0-3.31","match_key":"l","participant_id":"41"},{"rt":null,"stimulus":"Sounds/gun_label.wav","key_press":null,"block":1,"trial_type":"audio-keyboard-response","trial_index":180,"time_elapsed":831154,"internal_node_id":"0.0-13.0-0.32","match_key":"l","participant_id":"41"},{"rt":null,"stimulus":"<p style=\"font-size: 48px;\">+</p>","key_press":null,"block":1,"trial_type":"html-keyboard-response","trial_index":181,"time_elapsed":832144,"internal_node_id":"0.0-13.0-1.32","match_key":"l","participant_id":"41"},{"rt":642.8050000104122,"stimulus":"Images/gun_1.png","key_press":76,"stim_onset":1583445631859,"block":1,"match_type":"match","image_category":"gun","sound_category":"gun","audio_type":"label","phase":"test","trial_type":"image-keyboard-response","trial_index":182,"time_elapsed":832788,"internal_node_id":"0.0-13.0-2.32","match_key":"l","participant_id":"41","correct":true},{"rt":null,"stimulus":"Sounds/correct.wav","key_press":null,"block":1,"trial_type":"audio-keyboard-response","trial_index":183,"time_elapsed":834798,"internal_node_id":"0.0-13.0-3.32","match_key":"l","participant_id":"41"},{"rt":null,"stimulus":"Sounds/car_label.wav","key_press":null,"block":1,"trial_type":"audio-keyboard-response","trial_index":184,"time_elapsed":835854,"internal_node_id":"0.0-13.0-0.33","match_key":"l","participant_id":"41"},{"rt":null,"stimulus":"<p style=\"font-size: 48px;\">+</p>","key_press":null,"block":1,"trial_type":"html-keyboard-response","trial_index":185,"time_elapsed":836845,"internal_node_id":"0.0-13.0-1.33","match_key":"l","participant_id":"41"},{"rt":774.9949999852106,"stimulus":"Images/gun_2.png","key_press":65,"stim_onset":1583445636559,"block":1,"match_type":"non-match","image_category":"gun","sound_category":"car","audio_type":"label","phase":"test","trial_type":"image-keyboard-response","trial_index":186,"time_elapsed":837621,"internal_node_id":"0.0-13.0-2.33","match_key":"l","participant_id":"41","correct":true},{"rt":null,"stimulus":"Sounds/correct.wav","key_press":null,"block":1,"trial_type":"audio-keyboard-response","trial_index":187,"time_elapsed":839631,"internal_node_id":"0.0-13.0-3.33","match_key":"l","participant_id":"41"},{"rt":null,"stimulus":"Sounds/car_sound.wav","key_press":null,"block":1,"trial_type":"audio-keyboard-response","trial_index":188,"time_elapsed":840714,"internal_node_id":"0.0-13.0-0.34","match_key":"l","participant_id":"41"},{"rt":null,"stimulus":"<p style=\"font-size: 48px;\">+</p>","key_press":null,"block":1,"trial_type":"html-keyboard-response","trial_index":189,"time_elapsed":841711,"internal_node_id":"0.0-13.0-1.34","match_key":"l","participant_id":"41"},{"rt":2531.955000013113,"stimulus":"Images/car_3.png","key_press":76,"stim_onset":1583445641425,"block":1,"match_type":"match","image_category":"car","sound_category":"car","audio_type":"sound","phase":"test","trial_type":"image-keyboard-response","trial_index":190,"time_elapsed":844244,"internal_node_id":"0.0-13.0-2.34","match_key":"l","participant_id":"41","correct":true},{"rt":null,"stimulus":"Sounds/correct.wav","key_press":null,"block":1,"trial_type":"audio-keyboard-response","trial_index":191,"time_elapsed":846253,"internal_node_id":"0.0-13.0-3.34","match_key":"l","participant_id":"41"},{"rt":null,"stimulus":"Sounds/dog_sound.wav","key_press":null,"block":1,"trial_type":"audio-keyboard-response","trial_index":192,"time_elapsed":846974,"internal_node_id":"0.0-13.0-0.35","match_key":"l","participant_id":"41"},{"rt":null,"stimulus":"<p style=\"font-size: 48px;\">+</p>","key_press":null,"block":1,"trial_type":"html-keyboard-response","trial_index":193,"time_elapsed":847978,"internal_node_id":"0.0-13.0-1.35","match_key":"l","participant_id":"41"},{"rt":505.4999999701977,"stimulus":"Images/dog_cartoon.png","key_press":76,"stim_onset":1583445647692,"block":1,"match_type":"match","image_category":"dog","sound_category":"dog","audio_type":"sound","phase":"test","trial_type":"image-keyboard-response","trial_index":194,"time_elapsed":848485,"internal_node_id":"0.0-13.0-2.35","match_key":"l","participant_id":"41","correct":true},{"rt":null,"stimulus":"Sounds/correct.wav","key_press":null,"block":1,"trial_type":"audio-keyboard-response","trial_index":195,"time_elapsed":850499,"internal_node_id":"0.0-13.0-3.35","match_key":"l","participant_id":"41"},{"rt":null,"stimulus":"Sounds/gun_sound.wav","key_press":null,"block":1,"trial_type":"audio-keyboard-response","trial_index":196,"time_elapsed":851074,"internal_node_id":"0.0-13.0-0.36","match_key":"l","participant_id":"41"},{"rt":null,"stimulus":"<p style=\"font-size: 48px;\">+</p>","key_press":null,"block":1,"trial_type":"html-keyboard-response","trial_index":197,"time_elapsed":852078,"internal_node_id":"0.0-13.0-1.36","match_key":"l","participant_id":"41"},{"rt":597.3000000230968,"stimulus":"Images/motorcycle_1.png","key_press":65,"stim_onset":1583445651792,"block":1,"match_type":"non-match","image_category":"motorcycle","sound_category":"gun","audio_type":"sound","phase":"test","trial_type":"image-keyboard-response","trial_index":198,"time_elapsed":852676,"internal_node_id":"0.0-13.0-2.36","match_key":"l","participant_id":"41","correct":true},{"rt":null,"stimulus":"Sounds/correct.wav","key_press":null,"block":1,"trial_type":"audio-keyboard-response","trial_index":199,"time_elapsed":854687,"internal_node_id":"0.0-13.0-3.36","match_key":"l","participant_id":"41"},{"rt":null,"stimulus":"Sounds/frog_sound.wav","key_press":null,"block":1,"trial_type":"audio-keyboard-response","trial_index":200,"time_elapsed":855594,"internal_node_id":"0.0-13.0-0.37","match_key":"l","participant_id":"41"},{"rt":null,"stimulus":"<p style=\"font-size: 48px;\">+</p>","key_press":null,"block":1,"trial_type":"html-keyboard-response","trial_index":201,"time_elapsed":856595,"internal_node_id":"0.0-13.0-1.37","match_key":"l","participant_id":"41"},{"rt":448.55999998981133,"stimulus":"Images/frog_2.png","key_press":76,"stim_onset":1583445656309,"block":1,"match_type":"match","image_category":"frog","sound_category":"frog","audio_type":"sound","phase":"test","trial_type":"image-keyboard-response","trial_index":202,"time_elapsed":857044,"internal_node_id":"0.0-13.0-2.37","match_key":"l","participant_id":"41","correct":true},{"rt":null,"stimulus":"Sounds/correct.wav","key_press":null,"block":1,"trial_type":"audio-keyboard-response","trial_index":203,"time_elapsed":859052,"internal_node_id":"0.0-13.0-3.37","match_key":"l","participant_id":"41"},{"rt":null,"stimulus":"Sounds/train_label.wav","key_press":null,"block":1,"trial_type":"audio-keyboard-response","trial_index":204,"time_elapsed":860335,"internal_node_id":"0.0-13.0-0.38","match_key":"l","participant_id":"41"},{"rt":null,"stimulus":"<p style=\"font-size: 48px;\">+</p>","key_press":null,"block":1,"trial_type":"html-keyboard-response","trial_index":205,"time_elapsed":861328,"internal_node_id":"0.0-13.0-1.38","match_key":"l","participant_id":"41"},{"rt":1203.2949999556877,"stimulus":"Images/train_cartoon.png","key_press":76,"stim_onset":1583445661042,"block":1,"match_type":"match","image_category":"train","sound_category":"train","audio_type":"label","phase":"test","trial_type":"image-keyboard-response","trial_index":206,"time_elapsed":862533,"internal_node_id":"0.0-13.0-2.38","match_key":"l","participant_id":"41","correct":true},{"rt":null,"stimulus":"Sounds/correct.wav","key_press":null,"block":1,"trial_type":"audio-keyboard-response","trial_index":207,"time_elapsed":864538,"internal_node_id":"0.0-13.0-3.38","match_key":"l","participant_id":"41"},{"rt":null,"stimulus":"Sounds/cat_sound.wav","key_press":null,"block":1,"trial_type":"audio-keyboard-response","trial_index":208,"time_elapsed":865374,"internal_node_id":"0.0-13.0-0.39","match_key":"l","participant_id":"41"},{"rt":null,"stimulus":"<p style=\"font-size: 48px;\">+</p>","key_press":null,"block":1,"trial_type":"html-keyboard-response","trial_index":209,"time_elapsed":866378,"internal_node_id":"0.0-13.0-1.39","match_key":"l","participant_id":"41"},{"rt":552.8899999917485,"stimulus":"Images/cat_1.png","key_press":76,"stim_onset":1583445666092,"block":1,"match_type":"match","image_category":"cat","sound_category":"cat","audio_type":"sound","phase":"test","trial_type":"image-keyboard-response","trial_index":210,"time_elapsed":866933,"internal_node_id":"0.0-13.0-2.39","match_key":"l","participant_id":"41","correct":true},{"rt":null,"stimulus":"Sounds/correct.wav","key_press":null,"block":1,"trial_type":"audio-keyboard-response","trial_index":211,"time_elapsed":868949,"internal_node_id":"0.0-13.0-3.39","match_key":"l","participant_id":"41"},{"rt":null,"stimulus":"Sounds/dog_label.wav","key_press":null,"block":1,"trial_type":"audio-keyboard-response","trial_index":212,"time_elapsed":869614,"internal_node_id":"0.0-13.0-0.40","match_key":"l","participant_id":"41"},{"rt":null,"stimulus":"<p style=\"font-size: 48px;\">+</p>","key_press":null,"block":1,"trial_type":"html-keyboard-response","trial_index":213,"time_elapsed":870612,"internal_node_id":"0.0-13.0-1.40","match_key":"l","participant_id":"41"},{"rt":655.9299999498762,"stimulus":"Images/car_cartoon.png","key_press":65,"stim_onset":1583445670326,"block":1,"match_type":"non-match","image_category":"car","sound_category":"dog","audio_type":"label","phase":"test","trial_type":"image-keyboard-response","trial_index":214,"time_elapsed":871269,"internal_node_id":"0.0-13.0-2.40","match_key":"l","participant_id":"41","correct":true},{"rt":null,"stimulus":"Sounds/correct.wav","key_press":null,"block":1,"trial_type":"audio-keyboard-response","trial_index":215,"time_elapsed":873284,"internal_node_id":"0.0-13.0-3.40","match_key":"l","participant_id":"41"},{"rt":null,"stimulus":"Sounds/train_sound.wav","key_press":null,"block":1,"trial_type":"audio-keyboard-response","trial_index":216,"time_elapsed":874594,"internal_node_id":"0.0-13.0-0.41","match_key":"l","participant_id":"41"},{"rt":null,"stimulus":"<p style=\"font-size: 48px;\">+</p>","key_press":null,"block":1,"trial_type":"html-keyboard-response","trial_index":217,"time_elapsed":875612,"internal_node_id":"0.0-13.0-1.41","match_key":"l","participant_id":"41"},{"rt":648.1399999465793,"stimulus":"Images/whistle_1.png","key_press":65,"stim_onset":1583445675326,"block":1,"match_type":"non-match","image_category":"whistle","sound_category":"train","audio_type":"sound","phase":"test","trial_type":"image-keyboard-response","trial_index":218,"time_elapsed":876261,"internal_node_id":"0.0-13.0-2.41","match_key":"l","participant_id":"41","correct":true},{"rt":null,"stimulus":"Sounds/correct.wav","key_press":null,"block":1,"trial_type":"audio-keyboard-response","trial_index":219,"time_elapsed":878270,"internal_node_id":"0.0-13.0-3.41","match_key":"l","participant_id":"41"},{"rt":null,"stimulus":"Sounds/car_label.wav","key_press":null,"block":1,"trial_type":"audio-keyboard-response","trial_index":220,"time_elapsed":879354,"internal_node_id":"0.0-13.0-0.42","match_key":"l","participant_id":"41"},{"rt":null,"stimulus":"<p style=\"font-size: 48px;\">+</p>","key_press":null,"block":1,"trial_type":"html-keyboard-response","trial_index":221,"time_elapsed":880345,"internal_node_id":"0.0-13.0-1.42","match_key":"l","participant_id":"41"},{"rt":874.5400000480004,"stimulus":"Images/car_cartoon.png","key_press":65,"stim_onset":1583445680059,"block":1,"match_type":"match","image_category":"car","sound_category":"car","audio_type":"label","phase":"test","trial_type":"image-keyboard-response","trial_index":222,"time_elapsed":881221,"internal_node_id":"0.0-13.0-2.42","match_key":"l","participant_id":"41","correct":false},{"rt":null,"stimulus":"Sounds/incorrect.wav","key_press":null,"block":1,"trial_type":"audio-keyboard-response","trial_index":223,"time_elapsed":883232,"internal_node_id":"0.0-13.0-3.42","match_key":"l","participant_id":"41"},{"rt":null,"stimulus":"Sounds/dog_sound.wav","key_press":null,"block":1,"trial_type":"audio-keyboard-response","trial_index":224,"time_elapsed":883934,"internal_node_id":"0.0-13.0-0.43","match_key":"l","participant_id":"41"},{"rt":null,"stimulus":"<p style=\"font-size: 48px;\">+</p>","key_press":null,"block":1,"trial_type":"html-keyboard-response","trial_index":225,"time_elapsed":884929,"internal_node_id":"0.0-13.0-1.43","match_key":"l","participant_id":"41"},{"rt":1539.1099999542348,"stimulus":"Images/cow_1.png","key_press":65,"stim_onset":1583445684643,"block":1,"match_type":"non-match","image_category":"cow","sound_category":"dog","audio_type":"sound","phase":"test","trial_type":"image-keyboard-response","trial_index":226,"time_elapsed":886469,"internal_node_id":"0.0-13.0-2.43","match_key":"l","participant_id":"41","correct":true},{"rt":null,"stimulus":"Sounds/correct.wav","key_press":null,"block":1,"trial_type":"audio-keyboard-response","trial_index":227,"time_elapsed":888473,"internal_node_id":"0.0-13.0-3.43","match_key":"l","participant_id":"41"},{"rt":null,"stimulus":"Sounds/motorcycle_sound.wav","key_press":null,"block":1,"trial_type":"audio-keyboard-response","trial_index":228,"time_elapsed":889594,"internal_node_id":"0.0-13.0-0.44","match_key":"l","participant_id":"41"},{"rt":null,"stimulus":"<p style=\"font-size: 48px;\">+</p>","key_press":null,"block":1,"trial_type":"html-keyboard-response","trial_index":229,"time_elapsed":890629,"internal_node_id":"0.0-13.0-1.44","match_key":"l","participant_id":"41"},{"rt":1054.8100000014529,"stimulus":"Images/motorcycle_2.png","key_press":65,"stim_onset":1583445690343,"block":1,"match_type":"match","image_category":"motorcycle","sound_category":"motorcycle","audio_type":"sound","phase":"test","trial_type":"image-keyboard-response","trial_index":230,"time_elapsed":891684,"internal_node_id":"0.0-13.0-2.44","match_key":"l","participant_id":"41","correct":false},{"rt":null,"stimulus":"Sounds/incorrect.wav","key_press":null,"block":1,"trial_type":"audio-keyboard-response","trial_index":231,"time_elapsed":893699,"internal_node_id":"0.0-13.0-3.44","match_key":"l","participant_id":"41"},{"rt":null,"stimulus":"Sounds/dog_sound.wav","key_press":null,"block":1,"trial_type":"audio-keyboard-response","trial_index":232,"time_elapsed":894394,"internal_node_id":"0.0-13.0-0.45","match_key":"l","participant_id":"41"},{"rt":null,"stimulus":"<p style=\"font-size: 48px;\">+</p>","key_press":null,"block":1,"trial_type":"html-keyboard-response","trial_index":233,"time_elapsed":895429,"internal_node_id":"0.0-13.0-1.45","match_key":"l","participant_id":"41"},{"rt":606.8649999797344,"stimulus":"Images/dog_orig.png","key_press":76,"stim_onset":1583445695143,"block":1,"match_type":"match","image_category":"dog","sound_category":"dog","audio_type":"sound","phase":"test","trial_type":"image-keyboard-response","trial_index":234,"time_elapsed":896037,"internal_node_id":"0.0-13.0-2.45","match_key":"l","participant_id":"41","correct":true},{"rt":null,"stimulus":"Sounds/correct.wav","key_press":null,"block":1,"trial_type":"audio-keyboard-response","trial_index":235,"time_elapsed":898050,"internal_node_id":"0.0-13.0-3.45","match_key":"l","participant_id":"41"},{"rt":null,"stimulus":"Sounds/dog_label.wav","key_press":null,"block":1,"trial_type":"audio-keyboard-response","trial_index":236,"time_elapsed":898714,"internal_node_id":"0.0-13.0-0.46","match_key":"l","participant_id":"41"},{"rt":null,"stimulus":"<p style=\"font-size: 48px;\">+</p>","key_press":null,"block":1,"trial_type":"html-keyboard-response","trial_index":237,"time_elapsed":899713,"internal_node_id":"0.0-13.0-1.46","match_key":"l","participant_id":"41"},{"rt":802.399999985937,"stimulus":"Images/dog_2.png","key_press":76,"stim_onset":1583445699426,"block":1,"match_type":"match","image_category":"dog","sound_category":"dog","audio_type":"label","phase":"test","trial_type":"image-keyboard-response","trial_index":238,"time_elapsed":900517,"internal_node_id":"0.0-13.0-2.46","match_key":"l","participant_id":"41","correct":true},{"rt":null,"stimulus":"Sounds/correct.wav","key_press":null,"block":1,"trial_type":"audio-keyboard-response","trial_index":239,"time_elapsed":902533,"internal_node_id":"0.0-13.0-3.46","match_key":"l","participant_id":"41"},{"rt":null,"stimulus":"Sounds/cow_sound.wav","key_press":null,"block":1,"trial_type":"audio-keyboard-response","trial_index":240,"time_elapsed":903555,"internal_node_id":"0.0-13.0-0.47","match_key":"l","participant_id":"41"},{"rt":null,"stimulus":"<p style=\"font-size: 48px;\">+</p>","key_press":null,"block":1,"trial_type":"html-keyboard-response","trial_index":241,"time_elapsed":904545,"internal_node_id":"0.0-13.0-1.47","match_key":"l","participant_id":"41"},{"rt":497.9200000525452,"stimulus":"Images/frog_3.png","key_press":65,"stim_onset":1583445704260,"block":1,"match_type":"non-match","image_category":"frog","sound_category":"cow","audio_type":"sound","phase":"test","trial_type":"image-keyboard-response","trial_index":242,"time_elapsed":905044,"internal_node_id":"0.0-13.0-2.47","match_key":"l","participant_id":"41","correct":true},{"rt":null,"stimulus":"Sounds/correct.wav","key_press":null,"block":1,"trial_type":"audio-keyboard-response","trial_index":243,"time_elapsed":907052,"internal_node_id":"0.0-13.0-3.47","match_key":"l","participant_id":"41"},{"rt":null,"stimulus":"Sounds/whistle_label.wav","key_press":null,"block":1,"trial_type":"audio-keyboard-response","trial_index":244,"time_elapsed":907754,"internal_node_id":"0.0-13.0-0.48","match_key":"l","participant_id":"41"},{"rt":null,"stimulus":"<p style=\"font-size: 48px;\">+</p>","key_press":null,"block":1,"trial_type":"html-keyboard-response","trial_index":245,"time_elapsed":908745,"internal_node_id":"0.0-13.0-1.48","match_key":"l","participant_id":"41"},{"rt":1450.0349999871105,"stimulus":"Images/car_orig.png","key_press":65,"stim_onset":1583445708460,"block":1,"match_type":"non-match","image_category":"car","sound_category":"whistle","audio_type":"label","phase":"test","trial_type":"image-keyboard-response","trial_index":246,"time_elapsed":910197,"internal_node_id":"0.0-13.0-2.48","match_key":"l","participant_id":"41","correct":true},{"rt":null,"stimulus":"Sounds/correct.wav","key_press":null,"block":1,"trial_type":"audio-keyboard-response","trial_index":247,"time_elapsed":912207,"internal_node_id":"0.0-13.0-3.48","match_key":"l","participant_id":"41"},{"rt":null,"stimulus":"Sounds/dog_label.wav","key_press":null,"block":1,"trial_type":"audio-keyboard-response","trial_index":248,"time_elapsed":912834,"internal_node_id":"0.0-13.0-0.49","match_key":"l","participant_id":"41"},{"rt":null,"stimulus":"<p style=\"font-size: 48px;\">+</p>","key_press":null,"block":1,"trial_type":"html-keyboard-response","trial_index":249,"time_elapsed":913829,"internal_node_id":"0.0-13.0-1.49","match_key":"l","participant_id":"41"},{"rt":526.6949999495409,"stimulus":"Images/rooster_cartoon.png","key_press":65,"stim_onset":1583445713543,"block":1,"match_type":"non-match","image_category":"rooster","sound_category":"dog","audio_type":"label","phase":"test","trial_type":"image-keyboard-response","trial_index":250,"time_elapsed":914357,"internal_node_id":"0.0-13.0-2.49","match_key":"l","participant_id":"41","correct":true},{"rt":null,"stimulus":"Sounds/correct.wav","key_press":null,"block":1,"trial_type":"audio-keyboard-response","trial_index":251,"time_elapsed":916365,"internal_node_id":"0.0-13.0-3.49","match_key":"l","participant_id":"41"},{"rt":null,"stimulus":"Sounds/whistle_sound.wav","key_press":null,"block":1,"trial_type":"audio-keyboard-response","trial_index":252,"time_elapsed":917074,"internal_node_id":"0.0-13.0-0.50","match_key":"l","participant_id":"41"},{"rt":null,"stimulus":"<p style=\"font-size: 48px;\">+</p>","key_press":null,"block":1,"trial_type":"html-keyboard-response","trial_index":253,"time_elapsed":918079,"internal_node_id":"0.0-13.0-1.50","match_key":"l","participant_id":"41"},{"rt":420.20499997306615,"stimulus":"Images/dog_2.png","key_press":65,"stim_onset":1583445717793,"block":1,"match_type":"non-match","image_category":"dog","sound_category":"whistle","audio_type":"sound","phase":"test","trial_type":"image-keyboard-response","trial_index":254,"time_elapsed":918500,"internal_node_id":"0.0-13.0-2.50","match_key":"l","participant_id":"41","correct":true},{"rt":null,"stimulus":"Sounds/correct.wav","key_press":null,"block":1,"trial_type":"audio-keyboard-response","trial_index":255,"time_elapsed":920518,"internal_node_id":"0.0-13.0-3.50","match_key":"l","participant_id":"41"},{"rt":null,"stimulus":"Sounds/car_label.wav","key_press":null,"block":1,"trial_type":"audio-keyboard-response","trial_index":256,"time_elapsed":921594,"internal_node_id":"0.0-13.0-0.51","match_key":"l","participant_id":"41"},{"rt":null,"stimulus":"<p style=\"font-size: 48px;\">+</p>","key_press":null,"block":1,"trial_type":"html-keyboard-response","trial_index":257,"time_elapsed":922612,"internal_node_id":"0.0-13.0-1.51","match_key":"l","participant_id":"41"},{"rt":671.3549999985844,"stimulus":"Images/whistle_orig.png","key_press":65,"stim_onset":1583445722326,"block":1,"match_type":"non-match","image_category":"whistle","sound_category":"car","audio_type":"label","phase":"test","trial_type":"image-keyboard-response","trial_index":258,"time_elapsed":923285,"internal_node_id":"0.0-13.0-2.51","match_key":"l","participant_id":"41","correct":true},{"rt":null,"stimulus":"Sounds/correct.wav","key_press":null,"block":1,"trial_type":"audio-keyboard-response","trial_index":259,"time_elapsed":925301,"internal_node_id":"0.0-13.0-3.51","match_key":"l","participant_id":"41"},{"rt":null,"stimulus":"Sounds/car_label.wav","key_press":null,"block":1,"trial_type":"audio-keyboard-response","trial_index":260,"time_elapsed":926354,"internal_node_id":"0.0-13.0-0.52","match_key":"l","participant_id":"41"},{"rt":null,"stimulus":"<p style=\"font-size: 48px;\">+</p>","key_press":null,"block":1,"trial_type":"html-keyboard-response","trial_index":261,"time_elapsed":927346,"internal_node_id":"0.0-13.0-1.52","match_key":"l","participant_id":"41"},{"rt":481.9450000068173,"stimulus":"Images/car_2.png","key_press":76,"stim_onset":1583445727060,"block":1,"match_type":"match","image_category":"car","sound_category":"car","audio_type":"label","phase":"test","trial_type":"image-keyboard-response","trial_index":262,"time_elapsed":927829,"internal_node_id":"0.0-13.0-2.52","match_key":"l","participant_id":"41","correct":true},{"rt":null,"stimulus":"Sounds/correct.wav","key_press":null,"block":1,"trial_type":"audio-keyboard-response","trial_index":263,"time_elapsed":929836,"internal_node_id":"0.0-13.0-3.52","match_key":"l","participant_id":"41"},{"rt":null,"stimulus":"Sounds/dog_sound.wav","key_press":null,"block":1,"trial_type":"audio-keyboard-response","trial_index":264,"time_elapsed":930554,"internal_node_id":"0.0-13.0-0.53","match_key":"l","participant_id":"41"},{"rt":null,"stimulus":"<p style=\"font-size: 48px;\">+</p>","key_press":null,"block":1,"trial_type":"html-keyboard-response","trial_index":265,"time_elapsed":931546,"internal_node_id":"0.0-13.0-1.53","match_key":"l","participant_id":"41"},{"rt":921.909999975469,"stimulus":"Images/motorcycle_2.png","key_press":65,"stim_onset":1583445731260,"block":1,"match_type":"non-match","image_category":"motorcycle","sound_category":"dog","audio_type":"sound","phase":"test","trial_type":"image-keyboard-response","trial_index":266,"time_elapsed":932469,"internal_node_id":"0.0-13.0-2.53","match_key":"l","participant_id":"41","correct":true},{"rt":null,"stimulus":"Sounds/correct.wav","key_press":null,"block":1,"trial_type":"audio-keyboard-response","trial_index":267,"time_elapsed":934484,"internal_node_id":"0.0-13.0-3.53","match_key":"l","participant_id":"41"},{"rt":null,"stimulus":"Sounds/car_label.wav","key_press":null,"block":1,"trial_type":"audio-keyboard-response","trial_index":268,"time_elapsed":935534,"internal_node_id":"0.0-13.0-0.54","match_key":"l","participant_id":"41"},{"rt":null,"stimulus":"<p style=\"font-size: 48px;\">+</p>","key_press":null,"block":1,"trial_type":"html-keyboard-response","trial_index":269,"time_elapsed":936529,"internal_node_id":"0.0-13.0-1.54","match_key":"l","participant_id":"41"},{"rt":578.3000000519678,"stimulus":"Images/cow_2.png","key_press":65,"stim_onset":1583445736243,"block":1,"match_type":"non-match","image_category":"cow","sound_category":"car","audio_type":"label","phase":"test","trial_type":"image-keyboard-response","trial_index":270,"time_elapsed":937109,"internal_node_id":"0.0-13.0-2.54","match_key":"l","participant_id":"41","correct":true},{"rt":null,"stimulus":"Sounds/correct.wav","key_press":null,"block":1,"trial_type":"audio-keyboard-response","trial_index":271,"time_elapsed":939119,"internal_node_id":"0.0-13.0-3.54","match_key":"l","participant_id":"41"},{"rt":null,"stimulus":"Sounds/motorcycle_sound.wav","key_press":null,"block":1,"trial_type":"audio-keyboard-response","trial_index":272,"time_elapsed":940234,"internal_node_id":"0.0-13.0-0.55","match_key":"l","participant_id":"41"},{"rt":null,"stimulus":"<p style=\"font-size: 48px;\">+</p>","key_press":null,"block":1,"trial_type":"html-keyboard-response","trial_index":273,"time_elapsed":941229,"internal_node_id":"0.0-13.0-1.55","match_key":"l","participant_id":"41"},{"rt":790.2400000020862,"stimulus":"Images/cat_cartoon.png","key_press":65,"stim_onset":1583445740943,"block":1,"match_type":"non-match","image_category":"cat","sound_category":"motorcycle","audio_type":"sound","phase":"test","trial_type":"image-keyboard-response","trial_index":274,"time_elapsed":942021,"internal_node_id":"0.0-13.0-2.55","match_key":"l","participant_id":"41","correct":true},{"rt":null,"stimulus":"Sounds/correct.wav","key_press":null,"block":1,"trial_type":"audio-keyboard-response","trial_index":275,"time_elapsed":944038,"internal_node_id":"0.0-13.0-3.55","match_key":"l","participant_id":"41"},{"rt":null,"stimulus":"Sounds/car_sound.wav","key_press":null,"block":1,"trial_type":"audio-keyboard-response","trial_index":276,"time_elapsed":945114,"internal_node_id":"0.0-13.0-0.56","match_key":"l","participant_id":"41"},{"rt":null,"stimulus":"<p style=\"font-size: 48px;\">+</p>","key_press":null,"block":1,"trial_type":"html-keyboard-response","trial_index":277,"time_elapsed":946112,"internal_node_id":"0.0-13.0-1.56","match_key":"l","participant_id":"41"},{"rt":578.9749999530613,"stimulus":"Images/car_orig.png","key_press":76,"stim_onset":1583445745827,"block":1,"match_type":"match","image_category":"car","sound_category":"car","audio_type":"sound","phase":"test","trial_type":"image-keyboard-response","trial_index":278,"time_elapsed":946693,"internal_node_id":"0.0-13.0-2.56","match_key":"l","participant_id":"41","correct":true},{"rt":null,"stimulus":"Sounds/correct.wav","key_press":null,"block":1,"trial_type":"audio-keyboard-response","trial_index":279,"time_elapsed":948703,"internal_node_id":"0.0-13.0-3.56","match_key":"l","participant_id":"41"},{"rt":null,"stimulus":"Sounds/cat_label.wav","key_press":null,"block":1,"trial_type":"audio-keyboard-response","trial_index":280,"time_elapsed":949534,"internal_node_id":"0.0-13.0-0.57","match_key":"l","participant_id":"41"},{"rt":null,"stimulus":"<p style=\"font-size: 48px;\">+</p>","key_press":null,"block":1,"trial_type":"html-keyboard-response","trial_index":281,"time_elapsed":950529,"internal_node_id":"0.0-13.0-1.57","match_key":"l","participant_id":"41"},{"rt":658.2199999829754,"stimulus":"Images/cat_orig.png","key_press":76,"stim_onset":1583445750243,"block":1,"match_type":"match","image_category":"cat","sound_category":"cat","audio_type":"label","phase":"test","trial_type":"image-keyboard-response","trial_index":282,"time_elapsed":951189,"internal_node_id":"0.0-13.0-2.57","match_key":"l","participant_id":"41","correct":true},{"rt":null,"stimulus":"Sounds/correct.wav","key_press":null,"block":1,"trial_type":"audio-keyboard-response","trial_index":283,"time_elapsed":953201,"internal_node_id":"0.0-13.0-3.57","match_key":"l","participant_id":"41"},{"rt":null,"stimulus":"Sounds/gun_sound.wav","key_press":null,"block":1,"trial_type":"audio-keyboard-response","trial_index":284,"time_elapsed":953774,"internal_node_id":"0.0-13.0-0.58","match_key":"l","participant_id":"41"},{"rt":null,"stimulus":"<p style=\"font-size: 48px;\">+</p>","key_press":null,"block":1,"trial_type":"html-keyboard-response","trial_index":285,"time_elapsed":954779,"internal_node_id":"0.0-13.0-1.58","match_key":"l","participant_id":"41"},{"rt":1080.1149999606423,"stimulus":"Images/gun_3.png","key_press":76,"stim_onset":1583445754494,"block":1,"match_type":"match","image_category":"gun","sound_category":"gun","audio_type":"sound","phase":"test","trial_type":"image-keyboard-response","trial_index":286,"time_elapsed":955861,"internal_node_id":"0.0-13.0-2.58","match_key":"l","participant_id":"41","correct":true},{"rt":null,"stimulus":"Sounds/correct.wav","key_press":null,"block":1,"trial_type":"audio-keyboard-response","trial_index":287,"time_elapsed":957868,"internal_node_id":"0.0-13.0-3.58","match_key":"l","participant_id":"41"},{"rt":null,"stimulus":"Sounds/frog_label.wav","key_press":null,"block":1,"trial_type":"audio-keyboard-response","trial_index":288,"time_elapsed":958775,"internal_node_id":"0.0-13.0-0.59","match_key":"l","participant_id":"41"},{"rt":null,"stimulus":"<p style=\"font-size: 48px;\">+</p>","key_press":null,"block":1,"trial_type":"html-keyboard-response","trial_index":289,"time_elapsed":959779,"internal_node_id":"0.0-13.0-1.59","match_key":"l","participant_id":"41"},{"rt":672.1499999985099,"stimulus":"Images/gun_3.png","key_press":65,"stim_onset":1583445759494,"block":1,"match_type":"non-match","image_category":"gun","sound_category":"frog","audio_type":"label","phase":"test","trial_type":"image-keyboard-response","trial_index":290,"time_elapsed":960453,"internal_node_id":"0.0-13.0-2.59","match_key":"l","participant_id":"41","correct":true},{"rt":null,"stimulus":"Sounds/correct.wav","key_press":null,"block":1,"trial_type":"audio-keyboard-response","trial_index":291,"time_elapsed":962467,"internal_node_id":"0.0-13.0-3.59","match_key":"l","participant_id":"41"},{"rt":null,"stimulus":"Sounds/train_label.wav","key_press":null,"block":1,"trial_type":"audio-keyboard-response","trial_index":292,"time_elapsed":963754,"internal_node_id":"0.0-13.0-0.60","match_key":"l","participant_id":"41"},{"rt":null,"stimulus":"<p style=\"font-size: 48px;\">+</p>","key_press":null,"block":1,"trial_type":"html-keyboard-response","trial_index":293,"time_elapsed":964746,"internal_node_id":"0.0-13.0-1.60","match_key":"l","participant_id":"41"},{"rt":616.855000029318,"stimulus":"Images/dog_orig.png","key_press":65,"stim_onset":1583445764460,"block":1,"match_type":"non-match","image_category":"dog","sound_category":"train","audio_type":"label","phase":"test","trial_type":"image-keyboard-response","trial_index":294,"time_elapsed":965365,"internal_node_id":"0.0-13.0-2.60","match_key":"l","participant_id":"41","correct":true},{"rt":null,"stimulus":"Sounds/correct.wav","key_press":null,"block":1,"trial_type":"audio-keyboard-response","trial_index":295,"time_elapsed":967369,"internal_node_id":"0.0-13.0-3.60","match_key":"l","participant_id":"41"},{"rt":null,"stimulus":"Sounds/rooster_sound.wav","key_press":null,"block":1,"trial_type":"audio-keyboard-response","trial_index":296,"time_elapsed":968074,"internal_node_id":"0.0-13.0-0.61","match_key":"l","participant_id":"41"},{"rt":null,"stimulus":"<p style=\"font-size: 48px;\">+</p>","key_press":null,"block":1,"trial_type":"html-keyboard-response","trial_index":297,"time_elapsed":969063,"internal_node_id":"0.0-13.0-1.61","match_key":"l","participant_id":"41"},{"rt":732.9300000565127,"stimulus":"Images/rooster_3.png","key_press":76,"stim_onset":1583445768777,"block":1,"match_type":"match","image_category":"rooster","sound_category":"rooster","audio_type":"sound","phase":"test","trial_type":"image-keyboard-response","trial_index":298,"time_elapsed":969797,"internal_node_id":"0.0-13.0-2.61","match_key":"l","participant_id":"41","correct":true},{"rt":null,"stimulus":"Sounds/correct.wav","key_press":null,"block":1,"trial_type":"audio-keyboard-response","trial_index":299,"time_elapsed":971802,"internal_node_id":"0.0-13.0-3.61","match_key":"l","participant_id":"41"},{"rt":null,"stimulus":"Sounds/cow_sound.wav","key_press":null,"block":1,"trial_type":"audio-keyboard-response","trial_index":300,"time_elapsed":972815,"internal_node_id":"0.0-13.0-0.62","match_key":"l","participant_id":"41"},{"rt":null,"stimulus":"<p style=\"font-size: 48px;\">+</p>","key_press":null,"block":1,"trial_type":"html-keyboard-response","trial_index":301,"time_elapsed":973813,"internal_node_id":"0.0-13.0-1.62","match_key":"l","participant_id":"41"},{"rt":526.6549999942072,"stimulus":"Images/rooster_2.png","key_press":65,"stim_onset":1583445773527,"block":1,"match_type":"non-match","image_category":"rooster","sound_category":"cow","audio_type":"sound","phase":"test","trial_type":"image-keyboard-response","trial_index":302,"time_elapsed":974341,"internal_node_id":"0.0-13.0-2.62","match_key":"l","participant_id":"41","correct":true},{"rt":null,"stimulus":"Sounds/correct.wav","key_press":null,"block":1,"trial_type":"audio-keyboard-response","trial_index":303,"time_elapsed":976349,"internal_node_id":"0.0-13.0-3.62","match_key":"l","participant_id":"41"},{"rt":null,"stimulus":"Sounds/motorcycle_label.wav","key_press":null,"block":1,"trial_type":"audio-keyboard-response","trial_index":304,"time_elapsed":977494,"internal_node_id":"0.0-13.0-0.63","match_key":"l","participant_id":"41"},{"rt":null,"stimulus":"<p style=\"font-size: 48px;\">+</p>","key_press":null,"block":1,"trial_type":"html-keyboard-response","trial_index":305,"time_elapsed":978496,"internal_node_id":"0.0-13.0-1.63","match_key":"l","participant_id":"41"},{"rt":531.2799999956042,"stimulus":"Images/motorcycle_orig.png","key_press":76,"stim_onset":1583445778210,"block":1,"match_type":"match","image_category":"motorcycle","sound_category":"motorcycle","audio_type":"label","phase":"test","trial_type":"image-keyboard-response","trial_index":306,"time_elapsed":979029,"internal_node_id":"0.0-13.0-2.63","match_key":"l","participant_id":"41","correct":true},{"rt":null,"stimulus":"Sounds/correct.wav","key_press":null,"block":1,"trial_type":"audio-keyboard-response","trial_index":307,"time_elapsed":981038,"internal_node_id":"0.0-13.0-3.63","match_key":"l","participant_id":"41"},{"rt":null,"stimulus":"Sounds/rooster_label.wav","key_press":null,"block":1,"trial_type":"audio-keyboard-response","trial_index":308,"time_elapsed":981734,"internal_node_id":"0.0-13.0-0.64","match_key":"l","participant_id":"41"},{"rt":null,"stimulus":"<p style=\"font-size: 48px;\">+</p>","key_press":null,"block":1,"trial_type":"html-keyboard-response","trial_index":309,"time_elapsed":982730,"internal_node_id":"0.0-13.0-1.64","match_key":"l","participant_id":"41"},{"rt":1545.9549999795854,"stimulus":"Images/rooster_cartoon.png","key_press":76,"stim_onset":1583445782444,"block":1,"match_type":"match","image_category":"rooster","sound_category":"rooster","audio_type":"label","phase":"test","trial_type":"image-keyboard-response","trial_index":310,"time_elapsed":984277,"internal_node_id":"0.0-13.0-2.64","match_key":"l","participant_id":"41","correct":true},{"rt":null,"stimulus":"Sounds/correct.wav","key_press":null,"block":1,"trial_type":"audio-keyboard-response","trial_index":311,"time_elapsed":986288,"internal_node_id":"0.0-13.0-3.64","match_key":"l","participant_id":"41"},{"rt":null,"stimulus":"Sounds/cat_sound.wav","key_press":null,"block":1,"trial_type":"audio-keyboard-response","trial_index":312,"time_elapsed":987134,"internal_node_id":"0.0-13.0-0.65","match_key":"l","participant_id":"41"},{"rt":null,"stimulus":"<p style=\"font-size: 48px;\">+</p>","key_press":null,"block":1,"trial_type":"html-keyboard-response","trial_index":313,"time_elapsed":988130,"internal_node_id":"0.0-13.0-1.65","match_key":"l","participant_id":"41"},{"rt":481.75500001525506,"stimulus":"Images/cat_cartoon.png","key_press":76,"stim_onset":1583445787844,"block":1,"match_type":"match","image_category":"cat","sound_category":"cat","audio_type":"sound","phase":"test","trial_type":"image-keyboard-response","trial_index":314,"time_elapsed":988612,"internal_node_id":"0.0-13.0-2.65","match_key":"l","participant_id":"41","correct":true},{"rt":null,"stimulus":"Sounds/correct.wav","key_press":null,"block":1,"trial_type":"audio-keyboard-response","trial_index":315,"time_elapsed":990619,"internal_node_id":"0.0-13.0-3.65","match_key":"l","participant_id":"41"},{"rt":null,"stimulus":"Sounds/rooster_sound.wav","key_press":null,"block":1,"trial_type":"audio-keyboard-response","trial_index":316,"time_elapsed":991314,"internal_node_id":"0.0-13.0-0.66","match_key":"l","participant_id":"41"},{"rt":null,"stimulus":"<p style=\"font-size: 48px;\">+</p>","key_press":null,"block":1,"trial_type":"html-keyboard-response","trial_index":317,"time_elapsed":992313,"internal_node_id":"0.0-13.0-1.66","match_key":"l","participant_id":"41"},{"rt":762.4400000204332,"stimulus":"Images/car_3.png","key_press":65,"stim_onset":1583445792027,"block":1,"match_type":"non-match","image_category":"car","sound_category":"rooster","audio_type":"sound","phase":"test","trial_type":"image-keyboard-response","trial_index":318,"time_elapsed":993077,"internal_node_id":"0.0-13.0-2.66","match_key":"l","participant_id":"41","correct":true},{"rt":null,"stimulus":"Sounds/correct.wav","key_press":null,"block":1,"trial_type":"audio-keyboard-response","trial_index":319,"time_elapsed":995085,"internal_node_id":"0.0-13.0-3.66","match_key":"l","participant_id":"41"},{"rt":null,"stimulus":"Sounds/motorcycle_label.wav","key_press":null,"block":1,"trial_type":"audio-keyboard-response","trial_index":320,"time_elapsed":996215,"internal_node_id":"0.0-13.0-0.67","match_key":"l","participant_id":"41"},{"rt":null,"stimulus":"<p style=\"font-size: 48px;\">+</p>","key_press":null,"block":1,"trial_type":"html-keyboard-response","trial_index":321,"time_elapsed":997213,"internal_node_id":"0.0-13.0-1.67","match_key":"l","participant_id":"41"},{"rt":822.5450000027195,"stimulus":"Images/train_3.png","key_press":65,"stim_onset":1583445796927,"block":1,"match_type":"non-match","image_category":"train","sound_category":"motorcycle","audio_type":"label","phase":"test","trial_type":"image-keyboard-response","trial_index":322,"time_elapsed":998037,"internal_node_id":"0.0-13.0-2.67","match_key":"l","participant_id":"41","correct":true},{"rt":null,"stimulus":"Sounds/correct.wav","key_press":null,"block":1,"trial_type":"audio-keyboard-response","trial_index":323,"time_elapsed":1000052,"internal_node_id":"0.0-13.0-3.67","match_key":"l","participant_id":"41"},{"rt":null,"stimulus":"Sounds/train_sound.wav","key_press":null,"block":1,"trial_type":"audio-keyboard-response","trial_index":324,"time_elapsed":1001355,"internal_node_id":"0.0-13.0-0.68","match_key":"l","participant_id":"41"},{"rt":null,"stimulus":"<p style=\"font-size: 48px;\">+</p>","key_press":null,"block":1,"trial_type":"html-keyboard-response","trial_index":325,"time_elapsed":1002346,"internal_node_id":"0.0-13.0-1.68","match_key":"l","participant_id":"41"},{"rt":1064.8500000243075,"stimulus":"Images/train_orig.png","key_press":76,"stim_onset":1583445802061,"block":1,"match_type":"match","image_category":"train","sound_category":"train","audio_type":"sound","phase":"test","trial_type":"image-keyboard-response","trial_index":326,"time_elapsed":1003413,"internal_node_id":"0.0-13.0-2.68","match_key":"l","participant_id":"41","correct":true},{"rt":null,"stimulus":"Sounds/correct.wav","key_press":null,"block":1,"trial_type":"audio-keyboard-response","trial_index":327,"time_elapsed":1005421,"internal_node_id":"0.0-13.0-3.68","match_key":"l","participant_id":"41"},{"rt":null,"stimulus":"Sounds/cow_sound.wav","key_press":null,"block":1,"trial_type":"audio-keyboard-response","trial_index":328,"time_elapsed":1006435,"internal_node_id":"0.0-13.0-0.69","match_key":"l","participant_id":"41"},{"rt":null,"stimulus":"<p style=\"font-size: 48px;\">+</p>","key_press":null,"block":1,"trial_type":"html-keyboard-response","trial_index":329,"time_elapsed":1007430,"internal_node_id":"0.0-13.0-1.69","match_key":"l","participant_id":"41"},{"rt":637.8849999746308,"stimulus":"Images/cow_orig.png","key_press":76,"stim_onset":1583445807144,"block":1,"match_type":"match","image_category":"cow","sound_category":"cow","audio_type":"sound","phase":"test","trial_type":"image-keyboard-response","trial_index":330,"time_elapsed":1008069,"internal_node_id":"0.0-13.0-2.69","match_key":"l","participant_id":"41","correct":true},{"rt":null,"stimulus":"Sounds/correct.wav","key_press":null,"block":1,"trial_type":"audio-keyboard-response","trial_index":331,"time_elapsed":1010084,"internal_node_id":"0.0-13.0-3.69","match_key":"l","participant_id":"41"},{"rt":null,"stimulus":"Sounds/train_label.wav","key_press":null,"block":1,"trial_type":"audio-keyboard-response","trial_index":332,"time_elapsed":1011375,"internal_node_id":"0.0-13.0-0.70","match_key":"l","participant_id":"41"},{"rt":null,"stimulus":"<p style=\"font-size: 48px;\">+</p>","key_press":null,"block":1,"trial_type":"html-keyboard-response","trial_index":333,"time_elapsed":1012380,"internal_node_id":"0.0-13.0-1.70","match_key":"l","participant_id":"41"},{"rt":567.2500000218861,"stimulus":"Images/cat_orig.png","key_press":65,"stim_onset":1583445812094,"block":1,"match_type":"non-match","image_category":"cat","sound_category":"train","audio_type":"label","phase":"test","trial_type":"image-keyboard-response","trial_index":334,"time_elapsed":1012949,"internal_node_id":"0.0-13.0-2.70","match_key":"l","participant_id":"41","correct":true},{"rt":null,"stimulus":"Sounds/correct.wav","key_press":null,"block":1,"trial_type":"audio-keyboard-response","trial_index":335,"time_elapsed":1014952,"internal_node_id":"0.0-13.0-3.70","match_key":"l","participant_id":"41"},{"rt":null,"stimulus":"Sounds/cow_sound.wav","key_press":null,"block":1,"trial_type":"audio-keyboard-response","trial_index":336,"time_elapsed":1015935,"internal_node_id":"0.0-13.0-0.71","match_key":"l","participant_id":"41"},{"rt":null,"stimulus":"<p style=\"font-size: 48px;\">+</p>","key_press":null,"block":1,"trial_type":"html-keyboard-response","trial_index":337,"time_elapsed":1016930,"internal_node_id":"0.0-13.0-1.71","match_key":"l","participant_id":"41"},{"rt":625.6750000175089,"stimulus":"Images/cow_3.png","key_press":76,"stim_onset":1583445816644,"block":1,"match_type":"match","image_category":"cow","sound_category":"cow","audio_type":"sound","phase":"test","trial_type":"image-keyboard-response","trial_index":338,"time_elapsed":1017557,"internal_node_id":"0.0-13.0-2.71","match_key":"l","participant_id":"41","correct":true},{"rt":null,"stimulus":"Sounds/correct.wav","key_press":null,"block":1,"trial_type":"audio-keyboard-response","trial_index":339,"time_elapsed":1019567,"internal_node_id":"0.0-13.0-3.71","match_key":"l","participant_id":"41"},{"rt":null,"stimulus":"Sounds/dog_label.wav","key_press":null,"block":1,"trial_type":"audio-keyboard-response","trial_index":340,"time_elapsed":1020235,"internal_node_id":"0.0-13.0-0.72","match_key":"l","participant_id":"41"},{"rt":null,"stimulus":"<p style=\"font-size: 48px;\">+</p>","key_press":null,"block":1,"trial_type":"html-keyboard-response","trial_index":341,"time_elapsed":1021230,"internal_node_id":"0.0-13.0-1.72","match_key":"l","participant_id":"41"},{"rt":469.8199999984354,"stimulus":"Images/dog_1.png","key_press":76,"stim_onset":1583445820944,"block":1,"match_type":"match","image_category":"dog","sound_category":"dog","audio_type":"label","phase":"test","trial_type":"image-keyboard-response","trial_index":342,"time_elapsed":1021701,"internal_node_id":"0.0-13.0-2.72","match_key":"l","participant_id":"41","correct":true},{"rt":null,"stimulus":"Sounds/correct.wav","key_press":null,"block":1,"trial_type":"audio-keyboard-response","trial_index":343,"time_elapsed":1023703,"internal_node_id":"0.0-13.0-3.72","match_key":"l","participant_id":"41"},{"rt":null,"stimulus":"Sounds/gun_sound.wav","key_press":null,"block":1,"trial_type":"audio-keyboard-response","trial_index":344,"time_elapsed":1024295,"internal_node_id":"0.0-13.0-0.73","match_key":"l","participant_id":"41"},{"rt":null,"stimulus":"<p style=\"font-size: 48px;\">+</p>","key_press":null,"block":1,"trial_type":"html-keyboard-response","trial_index":345,"time_elapsed":1025297,"internal_node_id":"0.0-13.0-1.73","match_key":"l","participant_id":"41"},{"rt":514.7049999795854,"stimulus":"Images/gun_2.png","key_press":76,"stim_onset":1583445825011,"block":1,"match_type":"match","image_category":"gun","sound_category":"gun","audio_type":"sound","phase":"test","trial_type":"image-keyboard-response","trial_index":346,"time_elapsed":1025813,"internal_node_id":"0.0-13.0-2.73","match_key":"l","participant_id":"41","correct":true},{"rt":null,"stimulus":"Sounds/correct.wav","key_press":null,"block":1,"trial_type":"audio-keyboard-response","trial_index":347,"time_elapsed":1027820,"internal_node_id":"0.0-13.0-3.73","match_key":"l","participant_id":"41"},{"rt":null,"stimulus":"Sounds/rooster_label.wav","key_press":null,"block":1,"trial_type":"audio-keyboard-response","trial_index":348,"time_elapsed":1028514,"internal_node_id":"0.0-13.0-0.74","match_key":"l","participant_id":"41"},{"rt":null,"stimulus":"<p style=\"font-size: 48px;\">+</p>","key_press":null,"block":1,"trial_type":"html-keyboard-response","trial_index":349,"time_elapsed":1029514,"internal_node_id":"0.0-13.0-1.74","match_key":"l","participant_id":"41"},{"rt":505.9349999646656,"stimulus":"Images/train_cartoon.png","key_press":65,"stim_onset":1583445829228,"block":1,"match_type":"non-match","image_category":"train","sound_category":"rooster","audio_type":"label","phase":"test","trial_type":"image-keyboard-response","trial_index":350,"time_elapsed":1030021,"internal_node_id":"0.0-13.0-2.74","match_key":"l","participant_id":"41","correct":true},{"rt":null,"stimulus":"Sounds/correct.wav","key_press":null,"block":1,"trial_type":"audio-keyboard-response","trial_index":351,"time_elapsed":1032037,"internal_node_id":"0.0-13.0-3.74","match_key":"l","participant_id":"41"},{"rt":null,"stimulus":"Sounds/gun_sound.wav","key_press":null,"block":1,"trial_type":"audio-keyboard-response","trial_index":352,"time_elapsed":1032595,"internal_node_id":"0.0-13.0-0.75","match_key":"l","participant_id":"41"},{"rt":null,"stimulus":"<p style=\"font-size: 48px;\">+</p>","key_press":null,"block":1,"trial_type":"html-keyboard-response","trial_index":353,"time_elapsed":1033597,"internal_node_id":"0.0-13.0-1.75","match_key":"l","participant_id":"41"},{"rt":487.0050000026822,"stimulus":"Images/car_1.png","key_press":65,"stim_onset":1583445833311,"block":1,"match_type":"non-match","image_category":"car","sound_category":"gun","audio_type":"sound","phase":"test","trial_type":"image-keyboard-response","trial_index":354,"time_elapsed":1034085,"internal_node_id":"0.0-13.0-2.75","match_key":"l","participant_id":"41","correct":true},{"rt":null,"stimulus":"Sounds/correct.wav","key_press":null,"block":1,"trial_type":"audio-keyboard-response","trial_index":355,"time_elapsed":1036101,"internal_node_id":"0.0-13.0-3.75","match_key":"l","participant_id":"41"},{"rt":null,"stimulus":"Sounds/rooster_sound.wav","key_press":null,"block":1,"trial_type":"audio-keyboard-response","trial_index":356,"time_elapsed":1036815,"internal_node_id":"0.0-13.0-0.76","match_key":"l","participant_id":"41"},{"rt":null,"stimulus":"<p style=\"font-size: 48px;\">+</p>","key_press":null,"block":1,"trial_type":"html-keyboard-response","trial_index":357,"time_elapsed":1037814,"internal_node_id":"0.0-13.0-1.76","match_key":"l","participant_id":"41"},{"rt":654.0200000163168,"stimulus":"Images/frog_1.png","key_press":65,"stim_onset":1583445837528,"block":1,"match_type":"non-match","image_category":"frog","sound_category":"rooster","audio_type":"sound","phase":"test","trial_type":"image-keyboard-response","trial_index":358,"time_elapsed":1038469,"internal_node_id":"0.0-13.0-2.76","match_key":"l","participant_id":"41","correct":true},{"rt":null,"stimulus":"Sounds/correct.wav","key_press":null,"block":1,"trial_type":"audio-keyboard-response","trial_index":359,"time_elapsed":1040484,"internal_node_id":"0.0-13.0-3.76","match_key":"l","participant_id":"41"},{"rt":null,"stimulus":"Sounds/motorcycle_label.wav","key_press":null,"block":1,"trial_type":"audio-keyboard-response","trial_index":360,"time_elapsed":1041635,"internal_node_id":"0.0-13.0-0.77","match_key":"l","participant_id":"41"},{"rt":null,"stimulus":"<p style=\"font-size: 48px;\">+</p>","key_press":null,"block":1,"trial_type":"html-keyboard-response","trial_index":361,"time_elapsed":1042631,"internal_node_id":"0.0-13.0-1.77","match_key":"l","participant_id":"41"},{"rt":525.2850000397302,"stimulus":"Images/gun_orig.png","key_press":65,"stim_onset":1583445842345,"block":1,"match_type":"non-match","image_category":"gun","sound_category":"motorcycle","audio_type":"label","phase":"test","trial_type":"image-keyboard-response","trial_index":362,"time_elapsed":1043157,"internal_node_id":"0.0-13.0-2.77","match_key":"l","participant_id":"41","correct":true},{"rt":null,"stimulus":"Sounds/correct.wav","key_press":null,"block":1,"trial_type":"audio-keyboard-response","trial_index":363,"time_elapsed":1045167,"internal_node_id":"0.0-13.0-3.77","match_key":"l","participant_id":"41"},{"rt":null,"stimulus":"Sounds/cat_label.wav","key_press":null,"block":1,"trial_type":"audio-keyboard-response","trial_index":364,"time_elapsed":1046015,"internal_node_id":"0.0-13.0-0.78","match_key":"l","participant_id":"41"},{"rt":null,"stimulus":"<p style=\"font-size: 48px;\">+</p>","key_press":null,"block":1,"trial_type":"html-keyboard-response","trial_index":365,"time_elapsed":1047014,"internal_node_id":"0.0-13.0-1.78","match_key":"l","participant_id":"41"},{"rt":589.9550000322051,"stimulus":"Images/dog_1.png","key_press":65,"stim_onset":1583445846728,"block":1,"match_type":"non-match","image_category":"dog","sound_category":"cat","audio_type":"label","phase":"test","trial_type":"image-keyboard-response","trial_index":366,"time_elapsed":1047605,"internal_node_id":"0.0-13.0-2.78","match_key":"l","participant_id":"