[{"rt":3855.03500001505,"responses":"{\"Q0\":\"05\"}","trial_type":"survey-text","trial_index":0,"time_elapsed":3888,"internal_node_id":"0.0-0.0","match_key":"a","participant_id":"05"},{"rt":31814.860000042245,"stimulus":"<p>Use KEYBOARD 2 (match LEFT)</p><p>Press MATCH to continue.</p>","key_press":65,"trial_type":"html-keyboard-response","trial_index":1,"time_elapsed":35714,"internal_node_id":"0.0-1.0","match_key":"a","participant_id":"05"},{"rt":14423.990000039339,"stimulus":"<p>Welcome to the experiment.</p>","key_press":122,"trial_type":"html-keyboard-response","trial_index":2,"time_elapsed":50140,"internal_node_id":"0.0-2.0","match_key":"a","participant_id":"05"},{"rt":33840.5849999981,"stimulus":"<p>Thank you for agreeing to participate in this study.</p><p>If during any part of the procedure you must stop for any reason, please inform the researcher that you do not wish to continue.</p>","key_press":32,"trial_type":"html-keyboard-response","trial_index":3,"time_elapsed":83984,"internal_node_id":"0.0-3.0","match_key":"a","participant_id":"05"},{"rt":1645.5049999058247,"stimulus":"<p>In this experiment, you will hear various words or sounds and see pictures of various animals and objects.</p><p>Most of the images will be of common everyday objects, such as cars, cats, cows, firearms, frogs, chickens, whistles, trains, motorcycles, and dogs.</p><p>Some of the images will be real-life stills, while others will be cartoons.</p>","key_press":32,"trial_type":"html-keyboard-response","trial_index":4,"time_elapsed":85631,"internal_node_id":"0.0-4.0","match_key":"a","participant_id":"05"},{"rt":1822.9200000641868,"stimulus":"<p>Sometimes, the word/sound will match the picture, for example you'll hear a meowing sound and see a cat.</p><p>Other times, the picture will not match the sound or word.</p><p>Your task is to decide as quickly as possible if the word/sound matches the picture or not. </p>","key_press":32,"trial_type":"html-keyboard-response","trial_index":5,"time_elapsed":87455,"internal_node_id":"0.0-5.0","match_key":"a","participant_id":"05"},{"rt":1150.9649999206886,"stimulus":"<p>For example, if you hear the word \"cat\" or hear a meowing sound, and then see a picture of a cat, you should press the MATCH key.</p><p> If the sound and image do not match, press the NOT-MATCH key to indicate that there is not a match.</p>","key_press":32,"trial_type":"html-keyboard-response","trial_index":6,"time_elapsed":88607,"internal_node_id":"0.0-6.0","match_key":"a","participant_id":"05"},{"rt":1702.7049999451265,"stimulus":"<p>If you make a mistake, you will hear a buzzing sound instead of a more pleasant sound.</p><p> Try to respond as quickly as possible, while making as few errors as possible. If you are making mistakes, you are probably rushing.</p>","key_press":32,"trial_type":"html-keyboard-response","trial_index":7,"time_elapsed":90311,"internal_node_id":"0.0-7.0","match_key":"a","participant_id":"05"},{"rt":1990.9099999349564,"stimulus":"<p>Please try to not move or blink your eyes during the presentation of the images. You can move and blink between images.</p><p>During the experiment there will be some breaks during which you can rest your eyes.</p>","key_press":32,"trial_type":"html-keyboard-response","trial_index":8,"time_elapsed":92303,"internal_node_id":"0.0-8.0","match_key":"a","participant_id":"05"},{"rt":1879.4350000098348,"stimulus":"<p>We will begin with 10 practice trials. Please let the experimenter know if you have any questions.</p>","key_press":32,"trial_type":"html-keyboard-response","trial_index":9,"time_elapsed":94183,"internal_node_id":"0.0-9.0","match_key":"a","participant_id":"05"},{"rt":null,"stimulus":"Sounds/cow_label.wav","key_press":null,"block":0,"trial_type":"audio-keyboard-response","trial_index":10,"time_elapsed":95215,"internal_node_id":"0.0-10.0-0.0","match_key":"a","participant_id":"05"},{"rt":null,"stimulus":"<p style=\"font-size: 48px;\">+</p>","key_press":null,"block":0,"trial_type":"html-keyboard-response","trial_index":11,"time_elapsed":96219,"internal_node_id":"0.0-10.0-1.0","match_key":"a","participant_id":"05"},{"rt":4418.259999947622,"stimulus":"Images/cow_orig.png","key_press":65,"stim_onset":1581378964698,"block":0,"match_type":"match","image_category":"cow","sound_category":"cow","audio_type":"label","phase":"practice","trial_type":"image-keyboard-response","trial_index":12,"time_elapsed":100640,"internal_node_id":"0.0-10.0-2.0","match_key":"a","participant_id":"05","correct":true},{"rt":null,"stimulus":"Sounds/correct.wav","key_press":null,"block":0,"trial_type":"audio-keyboard-response","trial_index":13,"time_elapsed":102659,"internal_node_id":"0.0-10.0-3.0","match_key":"a","participant_id":"05"},{"rt":null,"stimulus":"Sounds/cow_label.wav","key_press":null,"block":0,"trial_type":"audio-keyboard-response","trial_index":14,"time_elapsed":103654,"internal_node_id":"0.0-10.0-0.1","match_key":"a","participant_id":"05"},{"rt":null,"stimulus":"<p style=\"font-size: 48px;\">+</p>","key_press":null,"block":0,"trial_type":"html-keyboard-response","trial_index":15,"time_elapsed":104652,"internal_node_id":"0.0-10.0-1.1","match_key":"a","participant_id":"05"},{"rt":1577.4550000205636,"stimulus":"Images/cat_orig.png","key_press":76,"stim_onset":1581378973132,"block":0,"match_type":"non-match","image_category":"cat","sound_category":"cow","audio_type":"label","phase":"practice","trial_type":"image-keyboard-response","trial_index":16,"time_elapsed":106231,"internal_node_id":"0.0-10.0-2.1","match_key":"a","participant_id":"05","correct":true},{"rt":null,"stimulus":"Sounds/correct.wav","key_press":null,"block":0,"trial_type":"audio-keyboard-response","trial_index":17,"time_elapsed":108242,"internal_node_id":"0.0-10.0-3.1","match_key":"a","participant_id":"05"},{"rt":null,"stimulus":"Sounds/dog_label.wav","key_press":null,"block":0,"trial_type":"audio-keyboard-response","trial_index":18,"time_elapsed":108894,"internal_node_id":"0.0-10.0-0.2","match_key":"a","participant_id":"05"},{"rt":null,"stimulus":"<p style=\"font-size: 48px;\">+</p>","key_press":null,"block":0,"trial_type":"html-keyboard-response","trial_index":19,"time_elapsed":109886,"internal_node_id":"0.0-10.0-1.2","match_key":"a","participant_id":"05"},{"rt":848.009999957867,"stimulus":"Images/dog_orig.png","key_press":65,"stim_onset":1581378978365,"block":0,"match_type":"match","image_category":"dog","sound_category":"dog","audio_type":"label","phase":"practice","trial_type":"image-keyboard-response","trial_index":20,"time_elapsed":110735,"internal_node_id":"0.0-10.0-2.2","match_key":"a","participant_id":"05","correct":true},{"rt":null,"stimulus":"Sounds/correct.wav","key_press":null,"block":0,"trial_type":"audio-keyboard-response","trial_index":21,"time_elapsed":112744,"internal_node_id":"0.0-10.0-3.2","match_key":"a","participant_id":"05"},{"rt":null,"stimulus":"Sounds/frog_sound.wav","key_press":null,"block":0,"trial_type":"audio-keyboard-response","trial_index":22,"time_elapsed":113654,"internal_node_id":"0.0-10.0-0.3","match_key":"a","participant_id":"05"},{"rt":null,"stimulus":"<p style=\"font-size: 48px;\">+</p>","key_press":null,"block":0,"trial_type":"html-keyboard-response","trial_index":23,"time_elapsed":114653,"internal_node_id":"0.0-10.0-1.3","match_key":"a","participant_id":"05"},{"rt":1145.1099999248981,"stimulus":"Images/frog_3.png","key_press":65,"stim_onset":1581378983132,"block":0,"match_type":"match","image_category":"frog","sound_category":"frog","audio_type":"sound","phase":"practice","trial_type":"image-keyboard-response","trial_index":24,"time_elapsed":115799,"internal_node_id":"0.0-10.0-2.3","match_key":"a","participant_id":"05","correct":true},{"rt":null,"stimulus":"Sounds/correct.wav","key_press":null,"block":0,"trial_type":"audio-keyboard-response","trial_index":25,"time_elapsed":117808,"internal_node_id":"0.0-10.0-3.3","match_key":"a","participant_id":"05"},{"rt":null,"stimulus":"Sounds/dog_label.wav","key_press":null,"block":0,"trial_type":"audio-keyboard-response","trial_index":26,"time_elapsed":118434,"internal_node_id":"0.0-10.0-0.4","match_key":"a","participant_id":"05"},{"rt":null,"stimulus":"<p style=\"font-size: 48px;\">+</p>","key_press":null,"block":0,"trial_type":"html-keyboard-response","trial_index":27,"time_elapsed":119453,"internal_node_id":"0.0-10.0-1.4","match_key":"a","participant_id":"05"},{"rt":1057.435000082478,"stimulus":"Images/dog_1.png","key_press":65,"stim_onset":1581378987932,"block":0,"match_type":"match","image_category":"dog","sound_category":"dog","audio_type":"label","phase":"practice","trial_type":"image-keyboard-response","trial_index":28,"time_elapsed":120511,"internal_node_id":"0.0-10.0-2.4","match_key":"a","participant_id":"05","correct":true},{"rt":null,"stimulus":"Sounds/correct.wav","key_press":null,"block":0,"trial_type":"audio-keyboard-response","trial_index":29,"time_elapsed":122522,"internal_node_id":"0.0-10.0-3.4","match_key":"a","participant_id":"05"},{"rt":null,"stimulus":"Sounds/gun_label.wav","key_press":null,"block":0,"trial_type":"audio-keyboard-response","trial_index":30,"time_elapsed":123094,"internal_node_id":"0.0-10.0-0.5","match_key":"a","participant_id":"05"},{"rt":null,"stimulus":"<p style=\"font-size: 48px;\">+</p>","key_press":null,"block":0,"trial_type":"html-keyboard-response","trial_index":31,"time_elapsed":124086,"internal_node_id":"0.0-10.0-1.5","match_key":"a","participant_id":"05"},{"rt":783.945000031963,"stimulus":"Images/gun_orig.png","key_press":65,"stim_onset":1581378992565,"block":0,"match_type":"match","image_category":"gun","sound_category":"gun","audio_type":"label","phase":"practice","trial_type":"image-keyboard-response","trial_index":32,"time_elapsed":124871,"internal_node_id":"0.0-10.0-2.5","match_key":"a","participant_id":"05","correct":true},{"rt":null,"stimulus":"Sounds/correct.wav","key_press":null,"block":0,"trial_type":"audio-keyboard-response","trial_index":33,"time_elapsed":126876,"internal_node_id":"0.0-10.0-3.5","match_key":"a","participant_id":"05"},{"rt":null,"stimulus":"Sounds/train_label.wav","key_press":null,"block":0,"trial_type":"audio-keyboard-response","trial_index":34,"time_elapsed":128154,"internal_node_id":"0.0-10.0-0.6","match_key":"a","participant_id":"05"},{"rt":null,"stimulus":"<p style=\"font-size: 48px;\">+</p>","key_press":null,"block":0,"trial_type":"html-keyboard-response","trial_index":35,"time_elapsed":129153,"internal_node_id":"0.0-10.0-1.6","match_key":"a","participant_id":"05"},{"rt":956.7849999293685,"stimulus":"Images/train_3.png","key_press":65,"stim_onset":1581378997632,"block":0,"match_type":"match","image_category":"train","sound_category":"train","audio_type":"label","phase":"practice","trial_type":"image-keyboard-response","trial_index":36,"time_elapsed":130111,"internal_node_id":"0.0-10.0-2.6","match_key":"a","participant_id":"05","correct":true},{"rt":null,"stimulus":"Sounds/correct.wav","key_press":null,"block":0,"trial_type":"audio-keyboard-response","trial_index":37,"time_elapsed":132124,"internal_node_id":"0.0-10.0-3.6","match_key":"a","participant_id":"05"},{"rt":null,"stimulus":"Sounds/cat_sound.wav","key_press":null,"block":0,"trial_type":"audio-keyboard-response","trial_index":38,"time_elapsed":132954,"internal_node_id":"0.0-10.0-0.7","match_key":"a","participant_id":"05"},{"rt":null,"stimulus":"<p style=\"font-size: 48px;\">+</p>","key_press":null,"block":0,"trial_type":"html-keyboard-response","trial_index":39,"time_elapsed":133953,"internal_node_id":"0.0-10.0-1.7","match_key":"a","participant_id":"05"},{"rt":941.3950000889599,"stimulus":"Images/dog_3.png","key_press":76,"stim_onset":1581379002432,"block":0,"match_type":"non-match","image_category":"dog","sound_category":"cat","audio_type":"sound","phase":"practice","trial_type":"image-keyboard-response","trial_index":40,"time_elapsed":134895,"internal_node_id":"0.0-10.0-2.7","match_key":"a","participant_id":"05","correct":true},{"rt":null,"stimulus":"Sounds/correct.wav","key_press":null,"block":0,"trial_type":"audio-keyboard-response","trial_index":41,"time_elapsed":136907,"internal_node_id":"0.0-10.0-3.7","match_key":"a","participant_id":"05"},{"rt":null,"stimulus":"Sounds/gun_sound.wav","key_press":null,"block":0,"trial_type":"audio-keyboard-response","trial_index":42,"time_elapsed":137494,"internal_node_id":"0.0-10.0-0.8","match_key":"a","participant_id":"05"},{"rt":null,"stimulus":"<p style=\"font-size: 48px;\">+</p>","key_press":null,"block":0,"trial_type":"html-keyboard-response","trial_index":43,"time_elapsed":138486,"internal_node_id":"0.0-10.0-1.8","match_key":"a","participant_id":"05"},{"rt":1623.9249999634922,"stimulus":"Images/whistle_2.png","key_press":76,"stim_onset":1581379006965,"block":0,"match_type":"non-match","image_category":"whistle","sound_category":"gun","audio_type":"sound","phase":"practice","trial_type":"image-keyboard-response","trial_index":44,"time_elapsed":140111,"internal_node_id":"0.0-10.0-2.8","match_key":"a","participant_id":"05","correct":true},{"rt":null,"stimulus":"Sounds/correct.wav","key_press":null,"block":0,"trial_type":"audio-keyboard-response","trial_index":45,"time_elapsed":142114,"internal_node_id":"0.0-10.0-3.8","match_key":"a","participant_id":"05"},{"rt":null,"stimulus":"Sounds/cat_label.wav","key_press":null,"block":0,"trial_type":"audio-keyboard-response","trial_index":46,"time_elapsed":142954,"internal_node_id":"0.0-10.0-0.9","match_key":"a","participant_id":"05"},{"rt":null,"stimulus":"<p style=\"font-size: 48px;\">+</p>","key_press":null,"block":0,"trial_type":"html-keyboard-response","trial_index":47,"time_elapsed":143953,"internal_node_id":"0.0-10.0-1.9","match_key":"a","participant_id":"05"},{"rt":573.439999949187,"stimulus":"Images/cat_1.png","key_press":65,"stim_onset":1581379012432,"block":0,"match_type":"match","image_category":"cat","sound_category":"cat","audio_type":"label","phase":"practice","trial_type":"image-keyboard-response","trial_index":48,"time_elapsed":144528,"internal_node_id":"0.0-10.0-2.9","match_key":"a","participant_id":"05","correct":true},{"rt":null,"stimulus":"Sounds/correct.wav","key_press":null,"block":0,"trial_type":"audio-keyboard-response","trial_index":49,"time_elapsed":146541,"internal_node_id":"0.0-10.0-3.9","match_key":"a","participant_id":"05"},{"rt":16938.005000003614,"stimulus":"<p>The rest of the experiment is divided into five blocks with 100 trials in each block. It will take about 45 minutes to complete.</p><p>The experimenter will be in the outer room and you can communicate with them through the monitor if you have any questions or wish to stop the experiment.</p>","key_press":32,"trial_type":"html-keyboard-response","trial_index":50,"time_elapsed":163480,"internal_node_id":"0.0-11.0","match_key":"a","participant_id":"05"},{"rt":96887.05500005744,"stimulus":"<p>Remember, please try not to move or blink your eyes during the presentation of the images. </p><p>At the end of the experiment, we will show you your scores on the task so you can see how you did.</p><p>The experiment will start on the next screen.</p>","key_press":32,"trial_type":"html-keyboard-response","trial_index":51,"time_elapsed":260367,"internal_node_id":"0.0-12.0","match_key":"a","participant_id":"05"},{"rt":null,"stimulus":"Sounds/gun_label.wav","key_press":null,"block":1,"trial_type":"audio-keyboard-response","trial_index":52,"time_elapsed":262967,"internal_node_id":"0.0-13.0-0.0","match_key":"a","participant_id":"05"},{"rt":null,"stimulus":"<p style=\"font-size: 48px;\">+</p>","key_press":null,"block":1,"trial_type":"html-keyboard-response","trial_index":53,"time_elapsed":263970,"internal_node_id":"0.0-13.0-1.0","match_key":"a","participant_id":"05"},{"rt":787.2199999401346,"stimulus":"Images/frog_1.png","key_press":76,"stim_onset":1581379132449,"block":1,"match_type":"non-match","image_category":"frog","sound_category":"gun","audio_type":"label","phase":"test","trial_type":"image-keyboard-response","trial_index":54,"time_elapsed":264758,"internal_node_id":"0.0-13.0-2.0","match_key":"a","participant_id":"05","correct":true},{"rt":null,"stimulus":"Sounds/correct.wav","key_press":null,"block":1,"trial_type":"audio-keyboard-response","trial_index":55,"time_elapsed":266775,"internal_node_id":"0.0-13.0-3.0","match_key":"a","participant_id":"05"},{"rt":null,"stimulus":"Sounds/motorcycle_sound.wav","key_press":null,"block":1,"trial_type":"audio-keyboard-response","trial_index":56,"time_elapsed":267888,"internal_node_id":"0.0-13.0-0.1","match_key":"a","participant_id":"05"},{"rt":null,"stimulus":"<p style=\"font-size: 48px;\">+</p>","key_press":null,"block":1,"trial_type":"html-keyboard-response","trial_index":57,"time_elapsed":268886,"internal_node_id":"0.0-13.0-1.1","match_key":"a","participant_id":"05"},{"rt":1542.8150000516325,"stimulus":"Images/train_3.png","key_press":76,"stim_onset":1581379137366,"block":1,"match_type":"non-match","image_category":"train","sound_category":"motorcycle","audio_type":"sound","phase":"test","trial_type":"image-keyboard-response","trial_index":58,"time_elapsed":270430,"internal_node_id":"0.0-13.0-2.1","match_key":"a","participant_id":"05","correct":true},{"rt":null,"stimulus":"Sounds/correct.wav","key_press":null,"block":1,"trial_type":"audio-keyboard-response","trial_index":59,"time_elapsed":272443,"internal_node_id":"0.0-13.0-3.1","match_key":"a","participant_id":"05"},{"rt":null,"stimulus":"Sounds/rooster_label.wav","key_press":null,"block":1,"trial_type":"audio-keyboard-response","trial_index":60,"time_elapsed":273147,"internal_node_id":"0.0-13.0-0.2","match_key":"a","participant_id":"05"},{"rt":null,"stimulus":"<p style=\"font-size: 48px;\">+</p>","key_press":null,"block":1,"trial_type":"html-keyboard-response","trial_index":61,"time_elapsed":274137,"internal_node_id":"0.0-13.0-1.2","match_key":"a","participant_id":"05"},{"rt":508.59500002115965,"stimulus":"Images/rooster_cartoon.png","key_press":65,"stim_onset":1581379142616,"block":1,"match_type":"match","image_category":"rooster","sound_category":"rooster","audio_type":"label","phase":"test","trial_type":"image-keyboard-response","trial_index":62,"time_elapsed":274646,"internal_node_id":"0.0-13.0-2.2","match_key":"a","participant_id":"05","correct":true},{"rt":null,"stimulus":"Sounds/correct.wav","key_press":null,"block":1,"trial_type":"audio-keyboard-response","trial_index":63,"time_elapsed":276659,"internal_node_id":"0.0-13.0-3.2","match_key":"a","participant_id":"05"},{"rt":null,"stimulus":"Sounds/whistle_label.wav","key_press":null,"block":1,"trial_type":"audio-keyboard-response","trial_index":64,"time_elapsed":277367,"internal_node_id":"0.0-13.0-0.3","match_key":"a","participant_id":"05"},{"rt":null,"stimulus":"<p style=\"font-size: 48px;\">+</p>","key_press":null,"block":1,"trial_type":"html-keyboard-response","trial_index":65,"time_elapsed":278370,"internal_node_id":"0.0-13.0-1.3","match_key":"a","participant_id":"05"},{"rt":506.98500010184944,"stimulus":"Images/whistle_orig.png","key_press":65,"stim_onset":1581379146849,"block":1,"match_type":"match","image_category":"whistle","sound_category":"whistle","audio_type":"label","phase":"test","trial_type":"image-keyboard-response","trial_index":66,"time_elapsed":278878,"internal_node_id":"0.0-13.0-2.3","match_key":"a","participant_id":"05","correct":true},{"rt":null,"stimulus":"Sounds/correct.wav","key_press":null,"block":1,"trial_type":"audio-keyboard-response","trial_index":67,"time_elapsed":280892,"internal_node_id":"0.0-13.0-3.3","match_key":"a","participant_id":"05"},{"rt":null,"stimulus":"Sounds/rooster_sound.wav","key_press":null,"block":1,"trial_type":"audio-keyboard-response","trial_index":68,"time_elapsed":281587,"internal_node_id":"0.0-13.0-0.4","match_key":"a","participant_id":"05"},{"rt":null,"stimulus":"<p style=\"font-size: 48px;\">+</p>","key_press":null,"block":1,"trial_type":"html-keyboard-response","trial_index":69,"time_elapsed":282587,"internal_node_id":"0.0-13.0-1.4","match_key":"a","participant_id":"05"},{"rt":762.5949999783188,"stimulus":"Images/whistle_orig.png","key_press":76,"stim_onset":1581379151066,"block":1,"match_type":"non-match","image_category":"whistle","sound_category":"rooster","audio_type":"sound","phase":"test","trial_type":"image-keyboard-response","trial_index":70,"time_elapsed":283350,"internal_node_id":"0.0-13.0-2.4","match_key":"a","participant_id":"05","correct":true},{"rt":null,"stimulus":"Sounds/correct.wav","key_press":null,"block":1,"trial_type":"audio-keyboard-response","trial_index":71,"time_elapsed":285358,"internal_node_id":"0.0-13.0-3.4","match_key":"a","participant_id":"05"},{"rt":null,"stimulus":"Sounds/whistle_label.wav","key_press":null,"block":1,"trial_type":"audio-keyboard-response","trial_index":72,"time_elapsed":286027,"internal_node_id":"0.0-13.0-0.5","match_key":"a","participant_id":"05"},{"rt":null,"stimulus":"<p style=\"font-size: 48px;\">+</p>","key_press":null,"block":1,"trial_type":"html-keyboard-response","trial_index":73,"time_elapsed":287020,"internal_node_id":"0.0-13.0-1.5","match_key":"a","participant_id":"05"},{"rt":553.0649999855086,"stimulus":"Images/whistle_1.png","key_press":65,"stim_onset":1581379155499,"block":1,"match_type":"match","image_category":"whistle","sound_category":"whistle","audio_type":"label","phase":"test","trial_type":"image-keyboard-response","trial_index":74,"time_elapsed":287574,"internal_node_id":"0.0-13.0-2.5","match_key":"a","participant_id":"05","correct":true},{"rt":null,"stimulus":"Sounds/correct.wav","key_press":null,"block":1,"trial_type":"audio-keyboard-response","trial_index":75,"time_elapsed":289591,"internal_node_id":"0.0-13.0-3.5","match_key":"a","participant_id":"05"},{"rt":null,"stimulus":"Sounds/motorcycle_sound.wav","key_press":null,"block":1,"trial_type":"audio-keyboard-response","trial_index":76,"time_elapsed":290707,"internal_node_id":"0.0-13.0-0.6","match_key":"a","participant_id":"05"},{"rt":null,"stimulus":"<p style=\"font-size: 48px;\">+</p>","key_press":null,"block":1,"trial_type":"html-keyboard-response","trial_index":77,"time_elapsed":291704,"internal_node_id":"0.0-13.0-1.6","match_key":"a","participant_id":"05"},{"rt":837.5850000884384,"stimulus":"Images/gun_cartoon.png","key_press":76,"stim_onset":1581379160183,"block":1,"match_type":"non-match","image_category":"gun","sound_category":"motorcycle","audio_type":"sound","phase":"test","trial_type":"image-keyboard-response","trial_index":78,"time_elapsed":292542,"internal_node_id":"0.0-13.0-2.6","match_key":"a","participant_id":"05","correct":true},{"rt":null,"stimulus":"Sounds/correct.wav","key_press":null,"block":1,"trial_type":"audio-keyboard-response","trial_index":79,"time_elapsed":294557,"internal_node_id":"0.0-13.0-3.6","match_key":"a","participant_id":"05"},{"rt":null,"stimulus":"Sounds/car_sound.wav","key_press":null,"block":1,"trial_type":"audio-keyboard-response","trial_index":80,"time_elapsed":295627,"internal_node_id":"0.0-13.0-0.7","match_key":"a","participant_id":"05"},{"rt":null,"stimulus":"<p style=\"font-size: 48px;\">+</p>","key_press":null,"block":1,"trial_type":"html-keyboard-response","trial_index":81,"time_elapsed":296620,"internal_node_id":"0.0-13.0-1.7","match_key":"a","participant_id":"05"},{"rt":521.1100000888109,"stimulus":"Images/car_2.png","key_press":65,"stim_onset":1581379165099,"block":1,"match_type":"match","image_category":"car","sound_category":"car","audio_type":"sound","phase":"test","trial_type":"image-keyboard-response","trial_index":82,"time_elapsed":297142,"internal_node_id":"0.0-13.0-2.7","match_key":"a","participant_id":"05","correct":true},{"rt":null,"stimulus":"Sounds/correct.wav","key_press":null,"block":1,"trial_type":"audio-keyboard-response","trial_index":83,"time_elapsed":299158,"internal_node_id":"0.0-13.0-3.7","match_key":"a","participant_id":"05"},{"rt":null,"stimulus":"Sounds/whistle_sound.wav","key_press":null,"block":1,"trial_type":"audio-keyboard-response","trial_index":84,"time_elapsed":299867,"internal_node_id":"0.0-13.0-0.8","match_key":"a","participant_id":"05"},{"rt":null,"stimulus":"<p style=\"font-size: 48px;\">+</p>","key_press":null,"block":1,"trial_type":"html-keyboard-response","trial_index":85,"time_elapsed":300870,"internal_node_id":"0.0-13.0-1.8","match_key":"a","participant_id":"05"},{"rt":614.8800000082701,"stimulus":"Images/whistle_2.png","key_press":65,"stim_onset":1581379169349,"block":1,"match_type":"match","image_category":"whistle","sound_category":"whistle","audio_type":"sound","phase":"test","trial_type":"image-keyboard-response","trial_index":86,"time_elapsed":301486,"internal_node_id":"0.0-13.0-2.8","match_key":"a","participant_id":"05","correct":true},{"rt":null,"stimulus":"Sounds/correct.wav","key_press":null,"block":1,"trial_type":"audio-keyboard-response","trial_index":87,"time_elapsed":303493,"internal_node_id":"0.0-13.0-3.8","match_key":"a","participant_id":"05"},{"rt":null,"stimulus":"Sounds/cat_sound.wav","key_press":null,"block":1,"trial_type":"audio-keyboard-response","trial_index":88,"time_elapsed":304327,"internal_node_id":"0.0-13.0-0.9","match_key":"a","participant_id":"05"},{"rt":null,"stimulus":"<p style=\"font-size: 48px;\">+</p>","key_press":null,"block":1,"trial_type":"html-keyboard-response","trial_index":89,"time_elapsed":305320,"internal_node_id":"0.0-13.0-1.9","match_key":"a","participant_id":"05"},{"rt":452.7749998960644,"stimulus":"Images/cat_1.png","key_press":65,"stim_onset":1581379173800,"block":1,"match_type":"match","image_category":"cat","sound_category":"cat","audio_type":"sound","phase":"test","trial_type":"image-keyboard-response","trial_index":90,"time_elapsed":305774,"internal_node_id":"0.0-13.0-2.9","match_key":"a","participant_id":"05","correct":true},{"rt":null,"stimulus":"Sounds/correct.wav","key_press":null,"block":1,"trial_type":"audio-keyboard-response","trial_index":91,"time_elapsed":307791,"internal_node_id":"0.0-13.0-3.9","match_key":"a","participant_id":"05"},{"rt":null,"stimulus":"Sounds/cat_label.wav","key_press":null,"block":1,"trial_type":"audio-keyboard-response","trial_index":92,"time_elapsed":308627,"internal_node_id":"0.0-13.0-0.10","match_key":"a","participant_id":"05"},{"rt":null,"stimulus":"<p style=\"font-size: 48px;\">+</p>","key_press":null,"block":1,"trial_type":"html-keyboard-response","trial_index":93,"time_elapsed":309620,"internal_node_id":"0.0-13.0-1.10","match_key":"a","participant_id":"05"},{"rt":497.05000000540167,"stimulus":"Images/cat_cartoon.png","key_press":65,"stim_onset":1581379178100,"block":1,"match_type":"match","image_category":"cat","sound_category":"cat","audio_type":"label","phase":"test","trial_type":"image-keyboard-response","trial_index":94,"time_elapsed":310118,"internal_node_id":"0.0-13.0-2.10","match_key":"a","participant_id":"05","correct":true},{"rt":null,"stimulus":"Sounds/correct.wav","key_press":null,"block":1,"trial_type":"audio-keyboard-response","trial_index":95,"time_elapsed":312126,"internal_node_id":"0.0-13.0-3.10","match_key":"a","participant_id":"05"},{"rt":null,"stimulus":"Sounds/cow_label.wav","key_press":null,"block":1,"trial_type":"audio-keyboard-response","trial_index":96,"time_elapsed":313147,"internal_node_id":"0.0-13.0-0.11","match_key":"a","participant_id":"05"},{"rt":null,"stimulus":"<p style=\"font-size: 48px;\">+</p>","key_press":null,"block":1,"trial_type":"html-keyboard-response","trial_index":97,"time_elapsed":314137,"internal_node_id":"0.0-13.0-1.11","match_key":"a","participant_id":"05"},{"rt":700.0700000207871,"stimulus":"Images/cow_2.png","key_press":65,"stim_onset":1581379182616,"block":1,"match_type":"match","image_category":"cow","sound_category":"cow","audio_type":"label","phase":"test","trial_type":"image-keyboard-response","trial_index":98,"time_elapsed":314838,"internal_node_id":"0.0-13.0-2.11","match_key":"a","participant_id":"05","correct":true},{"rt":null,"stimulus":"Sounds/correct.wav","key_press":null,"block":1,"trial_type":"audio-keyboard-response","trial_index":99,"time_elapsed":316845,"internal_node_id":"0.0-13.0-3.11","match_key":"a","participant_id":"05"},{"rt":null,"stimulus":"Sounds/train_label.wav","key_press":null,"block":1,"trial_type":"audio-keyboard-response","trial_index":100,"time_elapsed":318127,"internal_node_id":"0.0-13.0-0.12","match_key":"a","participant_id":"05"},{"rt":null,"stimulus":"<p style=\"font-size: 48px;\">+</p>","key_press":null,"block":1,"trial_type":"html-keyboard-response","trial_index":101,"time_elapsed":319121,"internal_node_id":"0.0-13.0-1.12","match_key":"a","participant_id":"05"},{"rt":828.8050000555813,"stimulus":"Images/whistle_1.png","key_press":76,"stim_onset":1581379187600,"block":1,"match_type":"non-match","image_category":"whistle","sound_category":"train","audio_type":"label","phase":"test","trial_type":"image-keyboard-response","trial_index":102,"time_elapsed":319950,"internal_node_id":"0.0-13.0-2.12","match_key":"a","participant_id":"05","correct":true},{"rt":null,"stimulus":"Sounds/correct.wav","key_press":null,"block":1,"trial_type":"audio-keyboard-response","trial_index":103,"time_elapsed":321960,"internal_node_id":"0.0-13.0-3.12","match_key":"a","participant_id":"05"},{"rt":null,"stimulus":"Sounds/dog_sound.wav","key_press":null,"block":1,"trial_type":"audio-keyboard-response","trial_index":104,"time_elapsed":322667,"internal_node_id":"0.0-13.0-0.13","match_key":"a","participant_id":"05"},{"rt":null,"stimulus":"<p style=\"font-size: 48px;\">+</p>","key_press":null,"block":1,"trial_type":"html-keyboard-response","trial_index":105,"time_elapsed":323671,"internal_node_id":"0.0-13.0-1.13","match_key":"a","participant_id":"05"},{"rt":686.5699999034405,"stimulus":"Images/motorcycle_cartoon.png","key_press":76,"stim_onset":1581379192150,"block":1,"match_type":"non-match","image_category":"motorcycle","sound_category":"dog","audio_type":"sound","phase":"test","trial_type":"image-keyboard-response","trial_index":106,"time_elapsed":324363,"internal_node_id":"0.0-13.0-2.13","match_key":"a","participant_id":"05","correct":true},{"rt":null,"stimulus":"Sounds/correct.wav","key_press":null,"block":1,"trial_type":"audio-keyboard-response","trial_index":107,"time_elapsed":326379,"internal_node_id":"0.0-13.0-3.13","match_key":"a","participant_id":"05"},{"rt":null,"stimulus":"Sounds/rooster_sound.wav","key_press":null,"block":1,"trial_type":"audio-keyboard-response","trial_index":108,"time_elapsed":327072,"internal_node_id":"0.0-13.0-0.14","match_key":"a","participant_id":"05"},{"rt":null,"stimulus":"<p style=\"font-size: 48px;\">+</p>","key_press":null,"block":1,"trial_type":"html-keyboard-response","trial_index":109,"time_elapsed":328076,"internal_node_id":"0.0-13.0-1.14","match_key":"a","participant_id":"05"},{"rt":877.7400000253692,"stimulus":"Images/rooster_orig.png","key_press":65,"stim_onset":1581379196555,"block":1,"match_type":"match","image_category":"rooster","sound_category":"rooster","audio_type":"sound","phase":"test","trial_type":"image-keyboard-response","trial_index":110,"time_elapsed":328955,"internal_node_id":"0.0-13.0-2.14","match_key":"a","participant_id":"05","correct":true},{"rt":null,"stimulus":"Sounds/correct.wav","key_press":null,"block":1,"trial_type":"audio-keyboard-response","trial_index":111,"time_elapsed":330966,"internal_node_id":"0.0-13.0-3.14","match_key":"a","participant_id":"05"},{"rt":null,"stimulus":"Sounds/whistle_sound.wav","key_press":null,"block":1,"trial_type":"audio-keyboard-response","trial_index":112,"time_elapsed":331672,"internal_node_id":"0.0-13.0-0.15","match_key":"a","participant_id":"05"},{"rt":null,"stimulus":"<p style=\"font-size: 48px;\">+</p>","key_press":null,"block":1,"trial_type":"html-keyboard-response","trial_index":113,"time_elapsed":332676,"internal_node_id":"0.0-13.0-1.15","match_key":"a","participant_id":"05"},{"rt":742.4850000534207,"stimulus":"Images/whistle_cartoon.png","key_press":65,"stim_onset":1581379201155,"block":1,"match_type":"match","image_category":"whistle","sound_category":"whistle","audio_type":"sound","phase":"test","trial_type":"image-keyboard-response","trial_index":114,"time_elapsed":333419,"internal_node_id":"0.0-13.0-2.15","match_key":"a","participant_id":"05","correct":true},{"rt":null,"stimulus":"Sounds/correct.wav","key_press":null,"block":1,"trial_type":"audio-keyboard-response","trial_index":115,"time_elapsed":335429,"internal_node_id":"0.0-13.0-3.15","match_key":"a","participant_id":"05"},{"rt":null,"stimulus":"Sounds/cat_label.wav","key_press":null,"block":1,"trial_type":"audio-keyboard-response","trial_index":116,"time_elapsed":336272,"internal_node_id":"0.0-13.0-0.16","match_key":"a","participant_id":"05"},{"rt":null,"stimulus":"<p style=\"font-size: 48px;\">+</p>","key_press":null,"block":1,"trial_type":"html-keyboard-response","trial_index":117,"time_elapsed":337276,"internal_node_id":"0.0-13.0-1.16","match_key":"a","participant_id":"05"},{"rt":654.3149999342859,"stimulus":"Images/cat_3.png","key_press":65,"stim_onset":1581379205755,"block":1,"match_type":"match","image_category":"cat","sound_category":"cat","audio_type":"label","phase":"test","trial_type":"image-keyboard-response","trial_index":118,"time_elapsed":337931,"internal_node_id":"0.0-13.0-2.16","match_key":"a","participant_id":"05","correct":true},{"rt":null,"stimulus":"Sounds/correct.wav","key_press":null,"block":1,"trial_type":"audio-keyboard-response","trial_index":119,"time_elapsed":339948,"internal_node_id":"0.0-13.0-3.16","match_key":"a","participant_id":"05"},{"rt":null,"stimulus":"Sounds/whistle_label.wav","key_press":null,"block":1,"trial_type":"audio-keyboard-response","trial_index":120,"time_elapsed":340652,"internal_node_id":"0.0-13.0-0.17","match_key":"a","participant_id":"05"},{"rt":null,"stimulus":"<p style=\"font-size: 48px;\">+</p>","key_press":null,"block":1,"trial_type":"html-keyboard-response","trial_index":121,"time_elapsed":341642,"internal_node_id":"0.0-13.0-1.17","match_key":"a","participant_id":"05"},{"rt":543.7150000361726,"stimulus":"Images/motorcycle_3.png","key_press":76,"stim_onset":1581379210122,"block":1,"match_type":"non-match","image_category":"motorcycle","sound_category":"whistle","audio_type":"label","phase":"test","trial_type":"image-keyboard-response","trial_index":122,"time_elapsed":342187,"internal_node_id":"0.0-13.0-2.17","match_key":"a","participant_id":"05","correct":true},{"rt":null,"stimulus":"Sounds/correct.wav","key_press":null,"block":1,"trial_type":"audio-keyboard-response","trial_index":123,"time_elapsed":344199,"internal_node_id":"0.0-13.0-3.17","match_key":"a","participant_id":"05"},{"rt":null,"stimulus":"Sounds/cat_label.wav","key_press":null,"block":1,"trial_type":"audio-keyboard-response","trial_index":124,"time_elapsed":345012,"internal_node_id":"0.0-13.0-0.18","match_key":"a","participant_id":"05"},{"rt":null,"stimulus":"<p style=\"font-size: 48px;\">+</p>","key_press":null,"block":1,"trial_type":"html-keyboard-response","trial_index":125,"time_elapsed":346009,"internal_node_id":"0.0-13.0-1.18","match_key":"a","participant_id":"05"},{"rt":729.0650000795722,"stimulus":"Images/cow_2.png","key_press":76,"stim_onset":1581379214488,"block":1,"match_type":"non-match","image_category":"cow","sound_category":"cat","audio_type":"label","phase":"test","trial_type":"image-keyboard-response","trial_index":126,"time_elapsed":346739,"internal_node_id":"0.0-13.0-2.18","match_key":"a","participant_id":"05","correct":true},{"rt":null,"stimulus":"Sounds/correct.wav","key_press":null,"block":1,"trial_type":"audio-keyboard-response","trial_index":127,"time_elapsed":348748,"internal_node_id":"0.0-13.0-3.18","match_key":"a","participant_id":"05"},{"rt":null,"stimulus":"Sounds/gun_sound.wav","key_press":null,"block":1,"trial_type":"audio-keyboard-response","trial_index":128,"time_elapsed":349332,"internal_node_id":"0.0-13.0-0.19","match_key":"a","participant_id":"05"},{"rt":null,"stimulus":"<p style=\"font-size: 48px;\">+</p>","key_press":null,"block":1,"trial_type":"html-keyboard-response","trial_index":129,"time_elapsed":350326,"internal_node_id":"0.0-13.0-1.19","match_key":"a","participant_id":"05"},{"rt":612.6800000201911,"stimulus":"Images/whistle_2.png","key_press":76,"stim_onset":1581379218805,"block":1,"match_type":"non-match","image_category":"whistle","sound_category":"gun","audio_type":"sound","phase":"test","trial_type":"image-keyboard-response","trial_index":130,"time_elapsed":350939,"internal_node_id":"0.0-13.0-2.19","match_key":"a","participant_id":"05","correct":true},{"rt":null,"stimulus":"Sounds/correct.wav","key_press":null,"block":1,"trial_type":"audio-keyboard-response","trial_index":131,"time_elapsed":352950,"internal_node_id":"0.0-13.0-3.19","match_key":"a","participant_id":"05"},{"rt":null,"stimulus":"Sounds/car_sound.wav","key_press":null,"block":1,"trial_type":"audio-keyboard-response","trial_index":132,"time_elapsed":354032,"internal_node_id":"0.0-13.0-0.20","match_key":"a","participant_id":"05"},{"rt":null,"stimulus":"<p style=\"font-size: 48px;\">+</p>","key_press":null,"block":1,"trial_type":"html-keyboard-response","trial_index":133,"time_elapsed":355026,"internal_node_id":"0.0-13.0-1.20","match_key":"a","participant_id":"05"},{"rt":472.319999942556,"stimulus":"Images/cow_cartoon.png","key_press":76,"stim_onset":1581379223505,"block":1,"match_type":"non-match","image_category":"cow","sound_category":"car","audio_type":"sound","phase":"test","trial_type":"image-keyboard-response","trial_index":134,"time_elapsed":355499,"internal_node_id":"0.0-13.0-2.20","match_key":"a","participant_id":"05","correct":true},{"rt":null,"stimulus":"Sounds/correct.wav","key_press":null,"block":1,"trial_type":"audio-keyboard-response","trial_index":135,"time_elapsed":357513,"internal_node_id":"0.0-13.0-3.20","match_key":"a","participant_id":"05"},{"rt":null,"stimulus":"Sounds/gun_label.wav","key_press":null,"block":1,"trial_type":"audio-keyboard-response","trial_index":136,"time_elapsed":358092,"internal_node_id":"0.0-13.0-0.21","match_key":"a","participant_id":"05"},{"rt":null,"stimulus":"<p style=\"font-size: 48px;\">+</p>","key_press":null,"block":1,"trial_type":"html-keyboard-response","trial_index":137,"time_elapsed":359109,"internal_node_id":"0.0-13.0-1.21","match_key":"a","participant_id":"05"},{"rt":373.06999997235835,"stimulus":"Images/gun_orig.png","key_press":65,"stim_onset":1581379227588,"block":1,"match_type":"match","image_category":"gun","sound_category":"gun","audio_type":"label","phase":"test","trial_type":"image-keyboard-response","trial_index":138,"time_elapsed":359483,"internal_node_id":"0.0-13.0-2.21","match_key":"a","participant_id":"05","correct":true},{"rt":null,"stimulus":"Sounds/correct.wav","key_press":null,"block":1,"trial_type":"audio-keyboard-response","trial_index":139,"time_elapsed":361494,"internal_node_id":"0.0-13.0-3.21","match_key":"a","participant_id":"05"},{"rt":null,"stimulus":"Sounds/car_sound.wav","key_press":null,"block":1,"trial_type":"audio-keyboard-response","trial_index":140,"time_elapsed":362552,"internal_node_id":"0.0-13.0-0.22","match_key":"a","participant_id":"05"},{"rt":null,"stimulus":"<p style=\"font-size: 48px;\">+</p>","key_press":null,"block":1,"trial_type":"html-keyboard-response","trial_index":141,"time_elapsed":363543,"internal_node_id":"0.0-13.0-1.22","match_key":"a","participant_id":"05"},{"rt":579.8299999441952,"stimulus":"Images/car_3.png","key_press":65,"stim_onset":1581379232022,"block":1,"match_type":"match","image_category":"car","sound_category":"car","audio_type":"sound","phase":"test","trial_type":"image-keyboard-response","trial_index":142,"time_elapsed":364123,"internal_node_id":"0.0-13.0-2.22","match_key":"a","participant_id":"05","correct":true},{"rt":null,"stimulus":"Sounds/correct.wav","key_press":null,"block":1,"trial_type":"audio-keyboard-response","trial_index":143,"time_elapsed":366131,"internal_node_id":"0.0-13.0-3.22","match_key":"a","participant_id":"05"},{"rt":null,"stimulus":"Sounds/motorcycle_label.wav","key_press":null,"block":1,"trial_type":"audio-keyboard-response","trial_index":144,"time_elapsed":367272,"internal_node_id":"0.0-13.0-0.23","match_key":"a","participant_id":"05"},{"rt":null,"stimulus":"<p style=\"font-size: 48px;\">+</p>","key_press":null,"block":1,"trial_type":"html-keyboard-response","trial_index":145,"time_elapsed":368276,"internal_node_id":"0.0-13.0-1.23","match_key":"a","participant_id":"05"},{"rt":565.8950000070035,"stimulus":"Images/motorcycle_cartoon.png","key_press":65,"stim_onset":1581379236755,"block":1,"match_type":"match","image_category":"motorcycle","sound_category":"motorcycle","audio_type":"label","phase":"test","trial_type":"image-keyboard-response","trial_index":146,"time_elapsed":368843,"internal_node_id":"0.0-13.0-2.23","match_key":"a","participant_id":"05","correct":true},{"rt":null,"stimulus":"Sounds/correct.wav","key_press":null,"block":1,"trial_type":"audio-keyboard-response","trial_index":147,"time_elapsed":370848,"internal_node_id":"0.0-13.0-3.23","match_key":"a","participant_id":"05"},{"rt":null,"stimulus":"Sounds/rooster_label.wav","key_press":null,"block":1,"trial_type":"audio-keyboard-response","trial_index":148,"time_elapsed":371552,"internal_node_id":"0.0-13.0-0.24","match_key":"a","participant_id":"05"},{"rt":null,"stimulus":"<p style=\"font-size: 48px;\">+</p>","key_press":null,"block":1,"trial_type":"html-keyboard-response","trial_index":149,"time_elapsed":372543,"internal_node_id":"0.0-13.0-1.24","match_key":"a","participant_id":"05"},{"rt":659.4349999213591,"stimulus":"Images/dog_3.png","key_press":76,"stim_onset":1581379241022,"block":1,"match_type":"non-match","image_category":"dog","sound_category":"rooster","audio_type":"label","phase":"test","trial_type":"image-keyboard-response","trial_index":150,"time_elapsed":373203,"internal_node_id":"0.0-13.0-2.24","match_key":"a","participant_id":"05","correct":true},{"rt":null,"stimulus":"Sounds/correct.wav","key_press":null,"block":1,"trial_type":"audio-keyboard-response","trial_index":151,"time_elapsed":375214,"internal_node_id":"0.0-13.0-3.24","match_key":"a","participant_id":"05"},{"rt":null,"stimulus":"Sounds/dog_sound.wav","key_press":null,"block":1,"trial_type":"audio-keyboard-response","trial_index":152,"time_elapsed":375932,"internal_node_id":"0.0-13.0-0.25","match_key":"a","participant_id":"05"},{"rt":null,"stimulus":"<p style=\"font-size: 48px;\">+</p>","key_press":null,"block":1,"trial_type":"html-keyboard-response","trial_index":153,"time_elapsed":376926,"internal_node_id":"0.0-13.0-1.25","match_key":"a","participant_id":"05"},{"rt":708.4000000031665,"stimulus":"Images/dog_orig.png","key_press":65,"stim_onset":1581379245405,"block":1,"match_type":"match","image_category":"dog","sound_category":"dog","audio_type":"sound","phase":"test","trial_type":"image-keyboard-response","trial_index":154,"time_elapsed":377635,"internal_node_id":"0.0-13.0-2.25","match_key":"a","participant_id":"05","correct":true},{"rt":null,"stimulus":"Sounds/correct.wav","key_press":null,"block":1,"trial_type":"audio-keyboard-response","trial_index":155,"time_elapsed":379650,"internal_node_id":"0.0-13.0-3.25","match_key":"a","participant_id":"05"},{"rt":null,"stimulus":"Sounds/dog_sound.wav","key_press":null,"block":1,"trial_type":"audio-keyboard-response","trial_index":156,"time_elapsed":380332,"internal_node_id":"0.0-13.0-0.26","match_key":"a","participant_id":"05"},{"rt":null,"stimulus":"<p style=\"font-size: 48px;\">+</p>","key_press":null,"block":1,"trial_type":"html-keyboard-response","trial_index":157,"time_elapsed":381326,"internal_node_id":"0.0-13.0-1.26","match_key":"a","participant_id":"05"},{"rt":484.07999996561557,"stimulus":"Images/dog_1.png","key_press":65,"stim_onset":1581379249805,"block":1,"match_type":"match","image_category":"dog","sound_category":"dog","audio_type":"sound","phase":"test","trial_type":"image-keyboard-response","trial_index":158,"time_elapsed":381811,"internal_node_id":"0.0-13.0-2.26","match_key":"a","participant_id":"05","correct":true},{"rt":null,"stimulus":"Sounds/correct.wav","key_press":null,"block":1,"trial_type":"audio-keyboard-response","trial_index":159,"time_elapsed":383815,"internal_node_id":"0.0-13.0-3.26","match_key":"a","participant_id":"05"},{"rt":null,"stimulus":"Sounds/cow_sound.wav","key_press":null,"block":1,"trial_type":"audio-keyboard-response","trial_index":160,"time_elapsed":384837,"internal_node_id":"0.0-13.0-0.27","match_key":"a","participant_id":"05"},{"rt":null,"stimulus":"<p style=\"font-size: 48px;\">+</p>","key_press":null,"block":1,"trial_type":"html-keyboard-response","trial_index":161,"time_elapsed":385831,"internal_node_id":"0.0-13.0-1.27","match_key":"a","participant_id":"05"},{"rt":840.169999981299,"stimulus":"Images/train_orig.png","key_press":76,"stim_onset":1581379254310,"block":1,"match_type":"non-match","image_category":"train","sound_category":"cow","audio_type":"sound","phase":"test","trial_type":"image-keyboard-response","trial_index":162,"time_elapsed":386672,"internal_node_id":"0.0-13.0-2.27","match_key":"a","participant_id":"05","correct":true},{"rt":null,"stimulus":"Sounds/correct.wav","key_press":null,"block":1,"trial_type":"audio-keyboard-response","trial_index":163,"time_elapsed":388684,"internal_node_id":"0.0-13.0-3.27","match_key":"a","participant_id":"05"},{"rt":null,"stimulus":"Sounds/rooster_label.wav","key_press":null,"block":1,"trial_type":"audio-keyboard-response","trial_index":164,"time_elapsed":389377,"internal_node_id":"0.0-13.0-0.28","match_key":"a","participant_id":"05"},{"rt":null,"stimulus":"<p style=\"font-size: 48px;\">+</p>","key_press":null,"block":1,"trial_type":"html-keyboard-response","trial_index":165,"time_elapsed":390382,"internal_node_id":"0.0-13.0-1.28","match_key":"a","participant_id":"05"},{"rt":657.6049999566749,"stimulus":"Images/car_2.png","key_press":76,"stim_onset":1581379258860,"block":1,"match_type":"non-match","image_category":"car","sound_category":"rooster","audio_type":"label","phase":"test","trial_type":"image-keyboard-response","trial_index":166,"time_elapsed":391040,"internal_node_id":"0.0-13.0-2.28","match_key":"a","participant_id":"05","correct":true},{"rt":null,"stimulus":"Sounds/correct.wav","key_press":null,"block":1,"trial_type":"audio-keyboard-response","trial_index":167,"time_elapsed":393051,"internal_node_id":"0.0-13.0-3.28","match_key":"a","participant_id":"05"},{"rt":null,"stimulus":"Sounds/frog_label.wav","key_press":null,"block":1,"trial_type":"audio-keyboard-response","trial_index":168,"time_elapsed":393957,"internal_node_id":"0.0-13.0-0.29","match_key":"a","participant_id":"05"},{"rt":null,"stimulus":"<p style=\"font-size: 48px;\">+</p>","key_press":null,"block":1,"trial_type":"html-keyboard-response","trial_index":169,"time_elapsed":394948,"internal_node_id":"0.0-13.0-1.29","match_key":"a","participant_id":"05"},{"rt":723.2500000391155,"stimulus":"Images/frog_3.png","key_press":65,"stim_onset":1581379263427,"block":1,"match_type":"match","image_category":"frog","sound_category":"frog","audio_type":"label","phase":"test","trial_type":"image-keyboard-response","trial_index":170,"time_elapsed":395672,"internal_node_id":"0.0-13.0-2.29","match_key":"a","participant_id":"05","correct":true},{"rt":null,"stimulus":"Sounds/correct.wav","key_press":null,"block":1,"trial_type":"audio-keyboard-response","trial_index":171,"time_elapsed":397686,"internal_node_id":"0.0-13.0-3.29","match_key":"a","participant_id":"05"},{"rt":null,"stimulus":"Sounds/gun_sound.wav","key_press":null,"block":1,"trial_type":"audio-keyboard-response","trial_index":172,"time_elapsed":398257,"internal_node_id":"0.0-13.0-0.30","match_key":"a","participant_id":"05"},{"rt":null,"stimulus":"<p style=\"font-size: 48px;\">+</p>","key_press":null,"block":1,"trial_type":"html-keyboard-response","trial_index":173,"time_elapsed":399248,"internal_node_id":"0.0-13.0-1.30","match_key":"a","participant_id":"05"},{"rt":1231.2849999871105,"stimulus":"Images/gun_2.png","key_press":76,"stim_onset":1581379267727,"block":1,"match_type":"match","image_category":"gun","sound_category":"gun","audio_type":"sound","phase":"test","trial_type":"image-keyboard-response","trial_index":174,"time_elapsed":400480,"internal_node_id":"0.0-13.0-2.30","match_key":"a","participant_id":"05","correct":false},{"rt":null,"stimulus":"Sounds/incorrect.wav","key_press":null,"block":1,"trial_type":"audio-keyboard-response","trial_index":175,"time_elapsed":402487,"internal_node_id":"0.0-13.0-3.30","match_key":"a","participant_id":"05"},{"rt":null,"stimulus":"Sounds/dog_sound.wav","key_press":null,"block":1,"trial_type":"audio-keyboard-response","trial_index":176,"time_elapsed":403197,"internal_node_id":"0.0-13.0-0.31","match_key":"a","participant_id":"05"},{"rt":null,"stimulus":"<p style=\"font-size: 48px;\">+</p>","key_press":null,"block":1,"trial_type":"html-keyboard-response","trial_index":177,"time_elapsed":404215,"internal_node_id":"0.0-13.0-1.31","match_key":"a","participant_id":"05"},{"rt":1272.6699999766424,"stimulus":"Images/rooster_orig.png","key_press":76,"stim_onset":1581379272694,"block":1,"match_type":"non-match","image_category":"rooster","sound_category":"dog","audio_type":"sound","phase":"test","trial_type":"image-keyboard-response","trial_index":178,"time_elapsed":405488,"internal_node_id":"0.0-13.0-2.31","match_key":"a","participant_id":"05","correct":true},{"rt":null,"stimulus":"Sounds/correct.wav","key_press":null,"block":1,"trial_type":"audio-keyboard-response","trial_index":179,"time_elapsed":407504,"internal_node_id":"0.0-13.0-3.31","match_key":"a","participant_id":"05"},{"rt":null,"stimulus":"Sounds/motorcycle_label.wav","key_press":null,"block":1,"trial_type":"audio-keyboard-response","trial_index":180,"time_elapsed":408637,"internal_node_id":"0.0-13.0-0.32","match_key":"a","participant_id":"05"},{"rt":null,"stimulus":"<p style=\"font-size: 48px;\">+</p>","key_press":null,"block":1,"trial_type":"html-keyboard-response","trial_index":181,"time_elapsed":409631,"internal_node_id":"0.0-13.0-1.32","match_key":"a","participant_id":"05"},{"rt":567.7750000031665,"stimulus":"Images/dog_orig.png","key_press":76,"stim_onset":1581379278111,"block":1,"match_type":"non-match","image_category":"dog","sound_category":"motorcycle","audio_type":"label","phase":"test","trial_type":"image-keyboard-response","trial_index":182,"time_elapsed":410200,"internal_node_id":"0.0-13.0-2.32","match_key":"a","participant_id":"05","correct":true},{"rt":null,"stimulus":"Sounds/correct.wav","key_press":null,"block":1,"trial_type":"audio-keyboard-response","trial_index":183,"time_elapsed":412205,"internal_node_id":"0.0-13.0-3.32","match_key":"a","participant_id":"05"},{"rt":null,"stimulus":"Sounds/car_sound.wav","key_press":null,"block":1,"trial_type":"audio-keyboard-response","trial_index":184,"time_elapsed":413277,"internal_node_id":"0.0-13.0-0.33","match_key":"a","participant_id":"05"},{"rt":null,"stimulus":"<p style=\"font-size: 48px;\">+</p>","key_press":null,"block":1,"trial_type":"html-keyboard-response","trial_index":185,"time_elapsed":414281,"internal_node_id":"0.0-13.0-1.33","match_key":"a","participant_id":"05"},{"rt":845.7850000122562,"stimulus":"Images/frog_2.png","key_press":76,"stim_onset":1581379282761,"block":1,"match_type":"non-match","image_category":"frog","sound_category":"car","audio_type":"sound","phase":"test","trial_type":"image-keyboard-response","trial_index":186,"time_elapsed":415128,"internal_node_id":"0.0-13.0-2.33","match_key":"a","participant_id":"05","correct":true},{"rt":null,"stimulus":"Sounds/correct.wav","key_press":null,"block":1,"trial_type":"audio-keyboard-response","trial_index":187,"time_elapsed":417137,"internal_node_id":"0.0-13.0-3.33","match_key":"a","participant_id":"05"},{"rt":null,"stimulus":"Sounds/dog_sound.wav","key_press":null,"block":1,"trial_type":"audio-keyboard-response","trial_index":188,"time_elapsed":417837,"internal_node_id":"0.0-13.0-0.34","match_key":"a","participant_id":"05"},{"rt":null,"stimulus":"<p style=\"font-size: 48px;\">+</p>","key_press":null,"block":1,"trial_type":"html-keyboard-response","trial_index":189,"time_elapsed":418832,"internal_node_id":"0.0-13.0-1.34","match_key":"a","participant_id":"05"},{"rt":767.4950000364333,"stimulus":"Images/dog_3.png","key_press":65,"stim_onset":1581379287311,"block":1,"match_type":"match","image_category":"dog","sound_category":"dog","audio_type":"sound","phase":"test","trial_type":"image-keyboard-response","trial_index":190,"time_elapsed":419600,"internal_node_id":"0.0-13.0-2.34","match_key":"a","participant_id":"05","correct":true},{"rt":null,"stimulus":"Sounds/correct.wav","key_press":null,"block":1,"trial_type":"audio-keyboard-response","trial_index":191,"time_elapsed":421603,"internal_node_id":"0.0-13.0-3.34","match_key":"a","participant_id":"05"},{"rt":null,"stimulus":"Sounds/frog_label.wav","key_press":null,"block":1,"trial_type":"audio-keyboard-response","trial_index":192,"time_elapsed":422497,"internal_node_id":"0.0-13.0-0.35","match_key":"a","participant_id":"05"},{"rt":null,"stimulus":"<p style=\"font-size: 48px;\">+</p>","key_press":null,"block":1,"trial_type":"html-keyboard-response","trial_index":193,"time_elapsed":423515,"internal_node_id":"0.0-13.0-1.35","match_key":"a","participant_id":"05"},{"rt":556.3300000503659,"stimulus":"Images/motorcycle_orig.png","key_press":76,"stim_onset":1581379291994,"block":1,"match_type":"non-match","image_category":"motorcycle","sound_category":"frog","audio_type":"label","phase":"test","trial_type":"image-keyboard-response","trial_index":194,"time_elapsed":424072,"internal_node_id":"0.0-13.0-2.35","match_key":"a","participant_id":"05","correct":true},{"rt":null,"stimulus":"Sounds/correct.wav","key_press":null,"block":1,"trial_type":"audio-keyboard-response","trial_index":195,"time_elapsed":426086,"internal_node_id":"0.0-13.0-3.35","match_key":"a","participant_id":"05"},{"rt":null,"stimulus":"Sounds/frog_label.wav","key_press":null,"block":1,"trial_type":"audio-keyboard-response","trial_index":196,"time_elapsed":426957,"internal_node_id":"0.0-13.0-0.36","match_key":"a","participant_id":"05"},{"rt":null,"stimulus":"<p style=\"font-size: 48px;\">+</p>","key_press":null,"block":1,"trial_type":"html-keyboard-response","trial_index":197,"time_elapsed":427948,"internal_node_id":"0.0-13.0-1.36","match_key":"a","participant_id":"05"},{"rt":514.8849999532104,"stimulus":"Images/rooster_3.png","key_press":76,"stim_onset":1581379296427,"block":1,"match_type":"non-match","image_category":"rooster","sound_category":"frog","audio_type":"label","phase":"test","trial_type":"image-keyboard-response","trial_index":198,"time_elapsed":428464,"internal_node_id":"0.0-13.0-2.36","match_key":"a","participant_id":"05","correct":true},{"rt":null,"stimulus":"Sounds/correct.wav","key_press":null,"block":1,"trial_type":"audio-keyboard-response","trial_index":199,"time_elapsed":430472,"internal_node_id":"0.0-13.0-3.36","match_key":"a","participant_id":"05"},{"rt":null,"stimulus":"Sounds/cow_label.wav","key_press":null,"block":1,"trial_type":"audio-keyboard-response","trial_index":200,"time_elapsed":431497,"internal_node_id":"0.0-13.0-0.37","match_key":"a","participant_id":"05"},{"rt":null,"stimulus":"<p style=\"font-size: 48px;\">+</p>","key_press":null,"block":1,"trial_type":"html-keyboard-response","trial_index":201,"time_elapsed":432515,"internal_node_id":"0.0-13.0-1.37","match_key":"a","participant_id":"05"},{"rt":564.2999999690801,"stimulus":"Images/cow_orig.png","key_press":65,"stim_onset":1581379300994,"block":1,"match_type":"match","image_category":"cow","sound_category":"cow","audio_type":"label","phase":"test","trial_type":"image-keyboard-response","trial_index":202,"time_elapsed":433080,"internal_node_id":"0.0-13.0-2.37","match_key":"a","participant_id":"05","correct":true},{"rt":null,"stimulus":"Sounds/correct.wav","key_press":null,"block":1,"trial_type":"audio-keyboard-response","trial_index":203,"time_elapsed":435089,"internal_node_id":"0.0-13.0-3.37","match_key":"a","participant_id":"05"},{"rt":null,"stimulus":"Sounds/cow_label.wav","key_press":null,"block":1,"trial_type":"audio-keyboard-response","trial_index":204,"time_elapsed":436077,"internal_node_id":"0.0-13.0-0.38","match_key":"a","participant_id":"05"},{"rt":null,"stimulus":"<p style=\"font-size: 48px;\">+</p>","key_press":null,"block":1,"trial_type":"html-keyboard-response","trial_index":205,"time_elapsed":437082,"internal_node_id":"0.0-13.0-1.38","match_key":"a","participant_id":"05"},{"rt":565.2649999829009,"stimulus":"Images/cat_3.png","key_press":76,"stim_onset":1581379305561,"block":1,"match_type":"non-match","image_category":"cat","sound_category":"cow","audio_type":"label","phase":"test","trial_type":"image-keyboard-response","trial_index":206,"time_elapsed":437648,"internal_node_id":"0.0-13.0-2.38","match_key":"a","participant_id":"05","correct":true},{"rt":null,"stimulus":"Sounds/correct.wav","key_press":null,"block":1,"trial_type":"audio-keyboard-response","trial_index":207,"time_elapsed":439656,"internal_node_id":"0.0-13.0-3.38","match_key":"a","participant_id":"05"},{"rt":null,"stimulus":"Sounds/rooster_label.wav","key_press":null,"block":1,"trial_type":"audio-keyboard-response","trial_index":208,"time_elapsed":440357,"internal_node_id":"0.0-13.0-0.39","match_key":"a","participant_id":"05"},{"rt":null,"stimulus":"<p style=\"font-size: 48px;\">+</p>","key_press":null,"block":1,"trial_type":"html-keyboard-response","trial_index":209,"time_elapsed":441348,"internal_node_id":"0.0-13.0-1.39","match_key":"a","participant_id":"05"},{"rt":682.6599999330938,"stimulus":"Images/rooster_2.png","key_press":65,"stim_onset":1581379309828,"block":1,"match_type":"match","image_category":"rooster","sound_category":"rooster","audio_type":"label","phase":"test","trial_type":"image-keyboard-response","trial_index":210,"time_elapsed":442032,"internal_node_id":"0.0-13.0-2.39","match_key":"a","participant_id":"05","correct":true},{"rt":null,"stimulus":"Sounds/correct.wav","key_press":null,"block":1,"trial_type":"audio-keyboard-response","trial_index":211,"time_elapsed":444040,"internal_node_id":"0.0-13.0-3.39","match_key":"a","participant_id":"05"},{"rt":null,"stimulus":"Sounds/whistle_label.wav","key_press":null,"block":1,"trial_type":"audio-keyboard-response","trial_index":212,"time_elapsed":444737,"internal_node_id":"0.0-13.0-0.40","match_key":"a","participant_id":"05"},{"rt":null,"stimulus":"<p style=\"font-size: 48px;\">+</p>","key_press":null,"block":1,"trial_type":"html-keyboard-response","trial_index":213,"time_elapsed":445737,"internal_node_id":"0.0-13.0-1.40","match_key":"a","participant_id":"05"},{"rt":907.6099999947473,"stimulus":"Images/frog_3.png","key_press":76,"stim_onset":1581379314216,"block":1,"match_type":"non-match","image_category":"frog","sound_category":"whistle","audio_type":"label","phase":"test","trial_type":"image-keyboard-response","trial_index":214,"time_elapsed":446646,"internal_node_id":"0.0-13.0-2.40","match_key":"a","participant_id":"05","correct":true},{"rt":null,"stimulus":"Sounds/correct.wav","key_press":null,"block":1,"trial_type":"audio-keyboard-response","trial_index":215,"time_elapsed":448652,"internal_node_id":"0.0-13.0-3.40","match_key":"a","participant_id":"05"},{"rt":null,"stimulus":"Sounds/cat_sound.wav","key_press":null,"block":1,"trial_type":"audio-keyboard-response","trial_index":216,"time_elapsed":449502,"internal_node_id":"0.0-13.0-0.41","match_key":"a","participant_id":"05"},{"rt":null,"stimulus":"<p style=\"font-size: 48px;\">+</p>","key_press":null,"block":1,"trial_type":"html-keyboard-response","trial_index":217,"time_elapsed":450520,"internal_node_id":"0.0-13.0-1.41","match_key":"a","participant_id":"05"},{"rt":876.164999906905,"stimulus":"Images/gun_1.png","key_press":76,"stim_onset":1581379319000,"block":1,"match_type":"non-match","image_category":"gun","sound_category":"cat","audio_type":"sound","phase":"test","trial_type":"image-keyboard-response","trial_index":218,"time_elapsed":451397,"internal_node_id":"0.0-13.0-2.41","match_key":"a","participant_id":"05","correct":true},{"rt":null,"stimulus":"Sounds/correct.wav","key_press":null,"block":1,"trial_type":"audio-keyboard-response","trial_index":219,"time_elapsed":453408,"internal_node_id":"0.0-13.0-3.41","match_key":"a","participant_id":"05"},{"rt":null,"stimulus":"Sounds/dog_label.wav","key_press":null,"block":1,"trial_type":"audio-keyboard-response","trial_index":220,"time_elapsed":454062,"internal_node_id":"0.0-13.0-0.42","match_key":"a","participant_id":"05"},{"rt":null,"stimulus":"<p style=\"font-size: 48px;\">+</p>","key_press":null,"block":1,"trial_type":"html-keyboard-response","trial_index":221,"time_elapsed":455054,"internal_node_id":"0.0-13.0-1.42","match_key":"a","participant_id":"05"},{"rt":662.6549999928102,"stimulus":"Images/gun_2.png","key_press":76,"stim_onset":1581379323533,"block":1,"match_type":"non-match","image_category":"gun","sound_category":"dog","audio_type":"label","phase":"test","trial_type":"image-keyboard-response","trial_index":222,"time_elapsed":455718,"internal_node_id":"0.0-13.0-2.42","match_key":"a","participant_id":"05","correct":true},{"rt":null,"stimulus":"Sounds/correct.wav","key_press":null,"block":1,"trial_type":"audio-keyboard-response","trial_index":223,"time_elapsed":457726,"internal_node_id":"0.0-13.0-3.42","match_key":"a","participant_id":"05"},{"rt":null,"stimulus":"Sounds/frog_label.wav","key_press":null,"block":1,"trial_type":"audio-keyboard-response","trial_index":224,"time_elapsed":458622,"internal_node_id":"0.0-13.0-0.43","match_key":"a","participant_id":"05"},{"rt":null,"stimulus":"<p style=\"font-size: 48px;\">+</p>","key_press":null,"block":1,"trial_type":"html-keyboard-response","trial_index":225,"time_elapsed":459621,"internal_node_id":"0.0-13.0-1.43","match_key":"a","participant_id":"05"},{"rt":424.0950000239536,"stimulus":"Images/frog_2.png","key_press":65,"stim_onset":1581379328100,"block":1,"match_type":"match","image_category":"frog","sound_category":"frog","audio_type":"label","phase":"test","trial_type":"image-keyboard-response","trial_index":226,"time_elapsed":460046,"internal_node_id":"0.0-13.0-2.43","match_key":"a","participant_id":"05","correct":true},{"rt":null,"stimulus":"Sounds/correct.wav","key_press":null,"block":1,"trial_type":"audio-keyboard-response","trial_index":227,"time_elapsed":462060,"internal_node_id":"0.0-13.0-3.43","match_key":"a","participant_id":"05"},{"rt":null,"stimulus":"Sounds/cow_sound.wav","key_press":null,"block":1,"trial_type":"audio-keyboard-response","trial_index":228,"time_elapsed":463082,"internal_node_id":"0.0-13.0-0.44","match_key":"a","participant_id":"05"},{"rt":null,"stimulus":"<p style=\"font-size: 48px;\">+</p>","key_press":null,"block":1,"trial_type":"html-keyboard-response","trial_index":229,"time_elapsed":464088,"internal_node_id":"0.0-13.0-1.44","match_key":"a","participant_id":"05"},{"rt":533.24000001885,"stimulus":"Images/cow_3.png","key_press":65,"stim_onset":1581379332566,"block":1,"match_type":"match","image_category":"cow","sound_category":"cow","audio_type":"sound","phase":"test","trial_type":"image-keyboard-response","trial_index":230,"time_elapsed":464622,"internal_node_id":"0.0-13.0-2.44","match_key":"a","participant_id":"05","correct":true},{"rt":null,"stimulus":"Sounds/correct.wav","key_press":null,"block":1,"trial_type":"audio-keyboard-response","trial_index":231,"time_elapsed":466628,"internal_node_id":"0.0-13.0-3.44","match_key":"a","participant_id":"05"},{"rt":null,"stimulus":"Sounds/cow_label.wav","key_press":null,"block":1,"trial_type":"audio-keyboard-response","trial_index":232,"time_elapsed":467642,"internal_node_id":"0.0-13.0-0.45","match_key":"a","participant_id":"05"},{"rt":null,"stimulus":"<p style=\"font-size: 48px;\">+</p>","key_press":null,"block":1,"trial_type":"html-keyboard-response","trial_index":233,"time_elapsed":468637,"internal_node_id":"0.0-13.0-1.45","match_key":"a","participant_id":"05"},{"rt":519.2399999359623,"stimulus":"Images/cow_cartoon.png","key_press":65,"stim_onset":1581379337116,"block":1,"match_type":"match","image_category":"cow","sound_category":"cow","audio_type":"label","phase":"test","trial_type":"image-keyboard-response","trial_index":234,"time_elapsed":469157,"internal_node_id":"0.0-13.0-2.45","match_key":"a","participant_id":"05","correct":true},{"rt":null,"stimulus":"Sounds/correct.wav","key_press":null,"block":1,"trial_type":"audio-keyboard-response","trial_index":235,"time_elapsed":471175,"internal_node_id":"0.0-13.0-3.45","match_key":"a","participant_id":"05"},{"rt":null,"stimulus":"Sounds/train_sound.wav","key_press":null,"block":1,"trial_type":"audio-keyboard-response","trial_index":236,"time_elapsed":472482,"internal_node_id":"0.0-13.0-0.46","match_key":"a","participant_id":"05"},{"rt":null,"stimulus":"<p style=\"font-size: 48px;\">+</p>","key_press":null,"block":1,"trial_type":"html-keyboard-response","trial_index":237,"time_elapsed":473488,"internal_node_id":"0.0-13.0-1.46","match_key":"a","participant_id":"05"},{"rt":628.9200000464916,"stimulus":"Images/train_cartoon.png","key_press":65,"stim_onset":1581379341967,"block":1,"match_type":"match","image_category":"train","sound_category":"train","audio_type":"sound","phase":"test","trial_type":"image-keyboard-response","trial_index":238,"time_elapsed":474118,"internal_node_id":"0.0-13.0-2.46","match_key":"a","participant_id":"05","correct":true},{"rt":null,"stimulus":"Sounds/correct.wav","key_press":null,"block":1,"trial_type":"audio-keyboard-response","trial_index":239,"time_elapsed":476129,"internal_node_id":"0.0-13.0-3.46","match_key":"a","participant_id":"05"},{"rt":null,"stimulus":"Sounds/dog_sound.wav","key_press":null,"block":1,"trial_type":"audio-keyboard-response","trial_index":240,"time_elapsed":476842,"internal_node_id":"0.0-13.0-0.47","match_key":"a","participant_id":"05"},{"rt":null,"stimulus":"<p style=\"font-size: 48px;\">+</p>","key_press":null,"block":1,"trial_type":"html-keyboard-response","trial_index":241,"time_elapsed":477837,"internal_node_id":"0.0-13.0-1.47","match_key":"a","participant_id":"05"},{"rt":735.1799999596551,"stimulus":"Images/cat_2.png","key_press":76,"stim_onset":1581379346317,"block":1,"match_type":"non-match","image_category":"cat","sound_category":"dog","audio_type":"sound","phase":"test","trial_type":"image-keyboard-response","trial_index":242,"time_elapsed":478574,"internal_node_id":"0.0-13.0-2.47","match_key":"a","participant_id":"05","correct":true},{"rt":null,"stimulus":"Sounds/correct.wav","key_press":null,"block":1,"trial_type":"audio-keyboard-response","trial_index":243,"time_elapsed":480578,"internal_node_id":"0.0-13.0-3.47","match_key":"a","participant_id":"05"},{"rt":null,"stimulus":"Sounds/cat_sound.wav","key_press":null,"block":1,"trial_type":"audio-keyboard-response","trial_index":244,"time_elapsed":481422,"internal_node_id":"0.0-13.0-0.48","match_key":"a","participant_id":"05"},{"rt":null,"stimulus":"<p style=\"font-size: 48px;\">+</p>","key_press":null,"block":1,"trial_type":"html-keyboard-response","trial_index":245,"time_elapsed":482421,"internal_node_id":"0.0-13.0-1.48","match_key":"a","participant_id":"05"},{"rt":775.8749999338761,"stimulus":"Images/rooster_2.png","key_press":76,"stim_onset":1581379350900,"block":1,"match_type":"non-match","image_category":"rooster","sound_category":"cat","audio_type":"sound","phase":"test","trial_type":"image-keyboard-response","trial_index":246,"time_elapsed":483198,"internal_node_id":"0.0-13.0-2.48","match_key":"a","participant_id":"05","correct":true},{"rt":null,"stimulus":"Sounds/correct.wav","key_press":null,"block":1,"trial_type":"audio-keyboard-response","trial_index":247,"time_elapsed":485209,"internal_node_id":"0.0-13.0-3.48","match_key":"a","participant_id":"05"},{"rt":null,"stimulus":"Sounds/dog_label.wav","key_press":null,"block":1,"trial_type":"audio-keyboard-response","trial_index":248,"time_elapsed":485862,"internal_node_id":"0.0-13.0-0.49","match_key":"a","participant_id":"05"},{"rt":null,"stimulus":"<p style=\"font-size: 48px;\">+</p>","key_press":null,"block":1,"trial_type":"html-keyboard-response","trial_index":249,"time_elapsed":486854,"internal_node_id":"0.0-13.0-1.49","match_key":"a","participant_id":"05"},{"rt":734.5350000541657,"stimulus":"Images/cow_1.png","key_press":76,"stim_onset":1581379355333,"block":1,"match_type":"non-match","image_category":"cow","sound_category":"dog","audio_type":"label","phase":"test","trial_type":"image-keyboard-response","trial_index":250,"time_elapsed":487590,"internal_node_id":"0.0-13.0-2.49","match_key":"a","participant_id":"05","correct":true},{"rt":null,"stimulus":"Sounds/correct.wav","key_press":null,"block":1,"trial_type":"audio-keyboard-response","trial_index":251,"time_elapsed":489593,"internal_node_id":"0.0-13.0-3.49","match_key":"a","participant_id":"05"},{"rt":null,"stimulus":"Sounds/whistle_label.wav","key_press":null,"block":1,"trial_type":"audio-keyboard-response","trial_index":252,"time_elapsed":490282,"internal_node_id":"0.0-13.0-0.50","match_key":"a","participant_id":"05"},{"rt":null,"stimulus":"<p style=\"font-size: 48px;\">+</p>","key_press":null,"block":1,"trial_type":"html-keyboard-response","trial_index":253,"time_elapsed":491271,"internal_node_id":"0.0-13.0-1.50","match_key":"a","participant_id":"05"},{"rt":613.4699999820441,"stimulus":"Images/cat_orig.png","key_press":76,"stim_onset":1581379359750,"block":1,"match_type":"non-match","image_category":"cat","sound_category":"whistle","audio_type":"label","phase":"test","trial_type":"image-keyboard-response","trial_index":254,"time_elapsed":491886,"internal_node_id":"0.0-13.0-2.50","match_key":"a","participant_id":"05","correct":true},{"rt":null,"stimulus":"Sounds/correct.wav","key_press":null,"block":1,"trial_type":"audio-keyboard-response","trial_index":255,"time_elapsed":493893,"internal_node_id":"0.0-13.0-3.50","match_key":"a","participant_id":"05"},{"rt":null,"stimulus":"Sounds/cow_sound.wav","key_press":null,"block":1,"trial_type":"audio-keyboard-response","trial_index":256,"time_elapsed":494902,"internal_node_id":"0.0-13.0-0.51","match_key":"a","participant_id":"05"},{"rt":null,"stimulus":"<p style=\"font-size: 48px;\">+</p>","key_press":null,"block":1,"trial_type":"html-keyboard-response","trial_index":257,"time_elapsed":495921,"internal_node_id":"0.0-13.0-1.51","match_key":"a","participant_id":"05"},{"rt":347.30500006116927,"stimulus":"Images/cow_1.png","key_press":65,"stim_onset":1581379364400,"block":1,"match_type":"match","image_category":"cow","sound_category":"cow","audio_type":"sound","phase":"test","trial_type":"image-keyboard-response","trial_index":258,"time_elapsed":496270,"internal_node_id":"0.0-13.0-2.51","match_key":"a","participant_id":"05","correct":true},{"rt":null,"stimulus":"Sounds/correct.wav","key_press":null,"block":1,"trial_type":"audio-keyboard-response","trial_index":259,"time_elapsed":498277,"internal_node_id":"0.0-13.0-3.51","match_key":"a","participant_id":"05"},{"rt":null,"stimulus":"Sounds/cat_sound.wav","key_press":null,"block":1,"trial_type":"audio-keyboard-response","trial_index":260,"time_elapsed":499102,"internal_node_id":"0.0-13.0-0.52","match_key":"a","participant_id":"05"},{"rt":null,"stimulus":"<p style=\"font-size: 48px;\">+</p>","key_press":null,"block":1,"trial_type":"html-keyboard-response","trial_index":261,"time_elapsed":500104,"internal_node_id":"0.0-13.0-1.52","match_key":"a","participant_id":"05"},{"rt":748.5399999422953,"stimulus":"Images/cat_2.png","key_press":65,"stim_onset":1581379368583,"block":1,"match_type":"match","image_category":"cat","sound_category":"cat","audio_type":"sound","phase":"test","trial_type":"image-keyboard-response","trial_index":262,"time_elapsed":500854,"internal_node_id":"0.0-13.0-2.52","match_key":"a","participant_id":"05","correct":true},{"rt":null,"stimulus":"Sounds/correct.wav","key_press":null,"block":1,"trial_type":"audio-keyboard-response","trial_index":263,"time_elapsed":502860,"internal_node_id":"0.0-13.0-3.52","match_key":"a","participant_id":"05"},{"rt":null,"stimulus":"Sounds/whistle_label.wav","key_press":null,"block":1,"trial_type":"audio-keyboard-response","trial_index":264,"time_elapsed":503542,"internal_node_id":"0.0-13.0-0.53","match_key":"a","participant_id":"05"},{"rt":null,"stimulus":"<p style=\"font-size: 48px;\">+</p>","key_press":null,"block":1,"trial_type":"html-keyboard-response","trial_index":265,"time_elapsed":504538,"internal_node_id":"0.0-13.0-1.53","match_key":"a","participant_id":"05"},{"rt":1002.9399999184534,"stimulus":"Images/whistle_3.png","key_press":65,"stim_onset":1581379373017,"block":1,"match_type":"match","image_category":"whistle","sound_category":"whistle","audio_type":"label","phase":"test","trial_type":"image-keyboard-response","trial_index":266,"time_elapsed":505542,"internal_node_id":"0.0-13.0-2.53","match_key":"a","participant_id":"05","correct":true},{"rt":null,"stimulus":"Sounds/correct.wav","key_press":null,"block":1,"trial_type":"audio-keyboard-response","trial_index":267,"time_elapsed":507564,"internal_node_id":"0.0-13.0-3.53","match_key":"a","participant_id":"05"},{"rt":null,"stimulus":"Sounds/gun_label.wav","key_press":null,"block":1,"trial_type":"audio-keyboard-response","trial_index":268,"time_elapsed":508147,"internal_node_id":"0.0-13.0-0.54","match_key":"a","participant_id":"05"},{"rt":null,"stimulus":"<p style=\"font-size: 48px;\">+</p>","key_press":null,"block":1,"trial_type":"html-keyboard-response","trial_index":269,"time_elapsed":509143,"internal_node_id":"0.0-13.0-1.54","match_key":"a","participant_id":"05"},{"rt":706.6399999894202,"stimulus":"Images/gun_3.png","key_press":65,"stim_onset":1581379377622,"block":1,"match_type":"match","image_category":"gun","sound_category":"gun","audio_type":"label","phase":"test","trial_type":"image-keyboard-response","trial_index":270,"time_elapsed":509850,"internal_node_id":"0.0-13.0-2.54","match_key":"a","participant_id":"05","correct":true},{"rt":null,"stimulus":"Sounds/correct.wav","key_press":null,"block":1,"trial_type":"audio-keyboard-response","trial_index":271,"time_elapsed":511863,"internal_node_id":"0.0-13.0-3.54","match_key":"a","participant_id":"05"},{"rt":null,"stimulus":"Sounds/train_label.wav","key_press":null,"block":1,"trial_type":"audio-keyboard-response","trial_index":272,"time_elapsed":513147,"internal_node_id":"0.0-13.0-0.55","match_key":"a","participant_id":"05"},{"rt":null,"stimulus":"<p style=\"font-size: 48px;\">+</p>","key_press":null,"block":1,"trial_type":"html-keyboard-response","trial_index":273,"time_elapsed":514143,"internal_node_id":"0.0-13.0-1.55","match_key":"a","participant_id":"05"},{"rt":675.0400000018999,"stimulus":"Images/cat_1.png","key_press":76,"stim_onset":1581379382622,"block":1,"match_type":"non-match","image_category":"cat","sound_category":"train","audio_type":"label","phase":"test","trial_type":"image-keyboard-response","trial_index":274,"time_elapsed":514819,"internal_node_id":"0.0-13.0-2.55","match_key":"a","participant_id":"05","correct":true},{"rt":null,"stimulus":"Sounds/correct.wav","key_press":null,"block":1,"trial_type":"audio-keyboard-response","trial_index":275,"time_elapsed":516830,"internal_node_id":"0.0-13.0-3.55","match_key":"a","participant_id":"05"},{"rt":null,"stimulus":"Sounds/gun_label.wav","key_press":null,"block":1,"trial_type":"audio-keyboard-response","trial_index":276,"time_elapsed":517387,"internal_node_id":"0.0-13.0-0.56","match_key":"a","participant_id":"05"},{"rt":null,"stimulus":"<p style=\"font-size: 48px;\">+</p>","key_press":null,"block":1,"trial_type":"html-keyboard-response","trial_index":277,"time_elapsed":518376,"internal_node_id":"0.0-13.0-1.56","match_key":"a","participant_id":"05"},{"rt":633.2499999552965,"stimulus":"Images/gun_cartoon.png","key_press":65,"stim_onset":1581379386855,"block":1,"match_type":"match","image_category":"gun","sound_category":"gun","audio_type":"label","phase":"test","trial_type":"image-keyboard-response","trial_index":278,"time_elapsed":519011,"internal_node_id":"0.0-13.0-2.56","match_key":"a","participant_id":"05","correct":true},{"rt":null,"stimulus":"Sounds/correct.wav","key_press":null,"block":1,"trial_type":"audio-keyboard-response","trial_index":279,"time_elapsed":521020,"internal_node_id":"0.0-13.0-3.56","match_key":"a","participant_id":"05"},{"rt":null,"stimulus":"Sounds/motorcycle_label.wav","key_press":null,"block":1,"trial_type":"audio-keyboard-response","trial_index":280,"time_elapsed":522167,"internal_node_id":"0.0-13.0-0.57","match_key":"a","participant_id":"05"},{"rt":null,"stimulus":"<p style=\"font-size: 48px;\">+</p>","key_press":null,"block":1,"trial_type":"html-keyboard-response","trial_index":281,"time_elapsed":523160,"internal_node_id":"0.0-13.0-1.57","match_key":"a","participant_id":"05"},{"rt":602.0900000585243,"stimulus":"Images/motorcycle_orig.png","key_press":65,"stim_onset":1581379391639,"block":1,"match_type":"match","image_category":"motorcycle","sound_category":"motorcycle","audio_type":"label","phase":"test","trial_type":"image-keyboard-response","trial_index":282,"time_elapsed":523763,"internal_node_id":"0.0-13.0-2.57","match_key":"a","participant_id":"05","correct":true},{"rt":null,"stimulus":"Sounds/correct.wav","key_press":null,"block":1,"trial_type":"audio-keyboard-response","trial_index":283,"time_elapsed":525780,"internal_node_id":"0.0-13.0-3.57","match_key":"a","participant_id":"05"},{"rt":null,"stimulus":"Sounds/rooster_sound.wav","key_press":null,"block":1,"trial_type":"audio-keyboard-response","trial_index":284,"time_elapsed":526487,"internal_node_id":"0.0-13.0-0.58","match_key":"a","participant_id":"05"},{"rt":null,"stimulus":"<p style=\"font-size: 48px;\">+</p>","key_press":null,"block":1,"trial_type":"html-keyboard-response","trial_index":285,"time_elapsed":527476,"internal_node_id":"0.0-13.0-1.58","match_key":"a","participant_id":"05"},{"rt":533.460000064224,"stimulus":"Images/rooster_3.png","key_press":65,"stim_onset":1581379395955,"block":1,"match_type":"match","image_category":"rooster","sound_category":"rooster","audio_type":"sound","phase":"test","trial_type":"image-keyboard-response","trial_index":286,"time_elapsed":528011,"internal_node_id":"0.0-13.0-2.58","match_key":"a","participant_id":"05","correct":true},{"rt":null,"stimulus":"Sounds/correct.wav","key_press":null,"block":1,"trial_type":"audio-keyboard-response","trial_index":287,"time_elapsed":530017,"internal_node_id":"0.0-13.0-3.58","match_key":"a","participant_id":"05"},{"rt":null,"stimulus":"Sounds/train_sound.wav","key_press":null,"block":1,"trial_type":"audio-keyboard-response","trial_index":288,"time_elapsed":531307,"internal_node_id":"0.0-13.0-0.59","match_key":"a","participant_id":"05"},{"rt":null,"stimulus":"<p style=\"font-size: 48px;\">+</p>","key_press":null,"block":1,"trial_type":"html-keyboard-response","trial_index":289,"time_elapsed":532310,"internal_node_id":"0.0-13.0-1.59","match_key":"a","participant_id":"05"},{"rt":395.6900000339374,"stimulus":"Images/train_1.png","key_press":65,"stim_onset":1581379400789,"block":1,"match_type":"match","image_category":"train","sound_category":"train","audio_type":"sound","phase":"test","trial_type":"image-keyboard-response","trial_index":290,"time_elapsed":532707,"internal_node_id":"0.0-13.0-2.59","match_key":"a","participant_id":"05","correct":true},{"rt":null,"stimulus":"Sounds/correct.wav","key_press":null,"block":1,"trial_type":"audio-keyboard-response","trial_index":291,"time_elapsed":534715,"internal_node_id":"0.0-13.0-3.59","match_key":"a","participant_id":"05"},{"rt":null,"stimulus":"Sounds/train_sound.wav","key_press":null,"block":1,"trial_type":"audio-keyboard-response","trial_index":292,"time_elapsed":535987,"internal_node_id":"0.0-13.0-0.60","match_key":"a","participant_id":"05"},{"rt":null,"stimulus":"<p style=\"font-size: 48px;\">+</p>","key_press":null,"block":1,"trial_type":"html-keyboard-response","trial_index":293,"time_elapsed":536993,"internal_node_id":"0.0-13.0-1.60","match_key":"a","participant_id":"05"},{"rt":960.3349999524653,"stimulus":"Images/frog_orig.png","key_press":76,"stim_onset":1581379405472,"block":1,"match_type":"non-match","image_category":"frog","sound_category":"train","audio_type":"sound","phase":"test","trial_type":"image-keyboard-response","trial_index":294,"time_elapsed":537954,"internal_node_id":"0.0-13.0-2.60","match_key":"a","participant_id":"05","correct":true},{"rt":null,"stimulus":"Sounds/correct.wav","key_press":null,"block":1,"trial_type":"audio-keyboard-response","trial_index":295,"time_elapsed":539963,"internal_node_id":"0.0-13.0-3.60","match_key":"a","participant_id":"05"},{"rt":null,"stimulus":"Sounds/frog_sound.wav","key_press":null,"block":1,"trial_type":"audio-keyboard-response","trial_index":296,"time_elapsed":540867,"internal_node_id":"0.0-13.0-0.61","match_key":"a","participant_id":"05"},{"rt":null,"stimulus":"<p style=\"font-size: 48px;\">+</p>","key_press":null,"block":1,"trial_type":"html-keyboard-response","trial_index":297,"time_elapsed":541860,"internal_node_id":"0.0-13.0-1.61","match_key":"a","participant_id":"05"},{"rt":653.9000000339001,"stimulus":"Images/gun_3.png","key_press":76,"stim_onset":1581379410339,"block":1,"match_type":"non-match","image_category":"gun","sound_category":"frog","audio_type":"sound","phase":"test","trial_type":"image-keyboard-response","trial_index":298,"time_elapsed":542515,"internal_node_id":"0.0-13.0-2.61","match_key":"a","participant_id":"05","correct":true},{"rt":null,"stimulus":"Sounds/correct.wav","key_press":null,"block":1,"trial_type":"audio-keyboard-response","trial_index":299,"time_elapsed":544531,"internal_node_id":"0.0-13.0-3.61","match_key":"a","participant_id":"05"},{"rt":null,"stimulus":"Sounds/car_label.wav","key_press":null,"block":1,"trial_type":"audio-keyboard-response","trial_index":300,"time_elapsed":545607,"internal_node_id":"0.0-13.0-0.62","match_key":"a","participant_id":"05"},{"rt":null,"stimulus":"<p style=\"font-size: 48px;\">+</p>","key_press":null,"block":1,"trial_type":"html-keyboard-response","trial_index":301,"time_elapsed":546610,"internal_node_id":"0.0-13.0-1.62","match_key":"a","participant_id":"05"},{"rt":703.6200000438839,"stimulus":"Images/car_cartoon.png","key_press":65,"stim_onset":1581379415089,"block":1,"match_type":"match","image_category":"car","sound_category":"car","audio_type":"label","phase":"test","trial_type":"image-keyboard-response","trial_index":302,"time_elapsed":547315,"internal_node_id":"0.0-13.0-2.62","match_key":"a","participant_id":"05","correct":true},{"rt":null,"stimulus":"Sounds/correct.wav","key_press":null,"block":1,"trial_type":"audio-keyboard-response","trial_index":303,"time_elapsed":549330,"internal_node_id":"0.0-13.0-3.62","match_key":"a","participant_id":"05"},{"rt":null,"stimulus":"Sounds/car_label.wav","key_press":null,"block":1,"trial_type":"audio-keyboard-response","trial_index":304,"time_elapsed":550387,"internal_node_id":"0.0-13.0-0.63","match_key":"a","participant_id":"05"},{"rt":null,"stimulus":"<p style=\"font-size: 48px;\">+</p>","key_press":null,"block":1,"trial_type":"html-keyboard-response","trial_index":305,"time_elapsed":551377,"internal_node_id":"0.0-13.0-1.63","match_key":"a","participant_id":"05"},{"rt":1177.0500000566244,"stimulus":"Images/train_cartoon.png","key_press":76,"stim_onset":1581379419856,"block":1,"match_type":"non-match","image_category":"train","sound_category":"car","audio_type":"label","phase":"test","trial_type":"image-keyboard-response","trial_index":306,"time_elapsed":552555,"internal_node_id":"0.0-13.0-2.63","match_key":"a","participant_id":"05","correct":true},{"rt":null,"stimulus":"Sounds/correct.wav","key_press":null,"block":1,"trial_type":"audio-keyboard-response","trial_index":307,"time_elapsed":554570,"internal_node_id":"0.0-13.0-3.63","match_key":"a","participant_id":"05"},{"rt":null,"stimulus":"Sounds/rooster_label.wav","key_press":null,"block":1,"trial_type":"audio-keyboard-response","trial_index":308,"time_elapsed":555267,"internal_node_id":"0.0-13.0-0.64","match_key":"a","participant_id":"05"},{"rt":null,"stimulus":"<p style=\"font-size: 48px;\">+</p>","key_press":null,"block":1,"trial_type":"html-keyboard-response","trial_index":309,"time_elapsed":556260,"internal_node_id":"0.0-13.0-1.64","match_key":"a","participant_id":"05"},{"rt":525.4200000781566,"stimulus":"Images/motorcycle_2.png","key_press":76,"stim_onset":1581379424739,"block":1,"match_type":"non-match","image_category":"motorcycle","sound_category":"rooster","audio_type":"label","phase":"test","trial_type":"image-keyboard-response","trial_index":310,"time_elapsed":556787,"internal_node_id":"0.0-13.0-2.64","match_key":"a","participant_id":"05","correct":true},{"rt":null,"stimulus":"Sounds/correct.wav","key_press":null,"block":1,"trial_type":"audio-keyboard-response","trial_index":311,"time_elapsed":558797,"internal_node_id":"0.0-13.0-3.64","match_key":"a","participant_id":"05"},{"rt":null,"stimulus":"Sounds/gun_sound.wav","key_press":null,"block":1,"trial_type":"audio-keyboard-response","trial_index":312,"time_elapsed":559367,"internal_node_id":"0.0-13.0-0.65","match_key":"a","participant_id":"05"},{"rt":null,"stimulus":"<p style=\"font-size: 48px;\">+</p>","key_press":null,"block":1,"trial_type":"html-keyboard-response","trial_index":313,"time_elapsed":560360,"internal_node_id":"0.0-13.0-1.65","match_key":"a","participant_id":"05"},{"rt":793.5200000647455,"stimulus":"Images/cow_orig.png","key_press":76,"stim_onset":1581379428839,"block":1,"match_type":"non-match","image_category":"cow","sound_category":"gun","audio_type":"sound","phase":"test","trial_type":"image-keyboard-response","trial_index":314,"time_elapsed":561155,"internal_node_id":"0.0-13.0-2.65","match_key":"a","participant_id":"05","correct":true},{"rt":null,"stimulus":"Sounds/correct.wav","key_press":null,"block":1,"trial_type":"audio-keyboard-response","trial_index":315,"time_elapsed":563164,"internal_node_id":"0.0-13.0-3.65","match_key":"a","participant_id":"05"},{"rt":null,"stimulus":"Sounds/cat_sound.wav","key_press":null,"block":1,"trial_type":"audio-keyboard-response","trial_index":316,"time_elapsed":564007,"internal_node_id":"0.0-13.0-0.66","match_key":"a","participant_id":"05"},{"rt":null,"stimulus":"<p style=\"font-size: 48px;\">+</p>","key_press":null,"block":1,"trial_type":"html-keyboard-response","trial_index":317,"time_elapsed":565010,"internal_node_id":"0.0-13.0-1.66","match_key":"a","participant_id":"05"},{"rt":671.3500000769272,"stimulus":"Images/dog_cartoon.png","key_press":76,"stim_onset":1581379433489,"block":1,"match_type":"non-match","image_category":"dog","sound_category":"cat","audio_type":"sound","phase":"test","trial_type":"image-keyboard-response","trial_index":318,"time_elapsed":565683,"internal_node_id":"0.0-13.0-2.66","match_key":"a","participant_id":"05","correct":true},{"rt":null,"stimulus":"Sounds/correct.wav","key_press":null,"block":1,"trial_type":"audio-keyboard-response","trial_index":319,"time_elapsed":567703,"internal_node_id":"0.0-13.0-3.66","match_key":"a","participant_id":"05"},{"rt":null,"stimulus":"Sounds/rooster_sound.wav","key_press":null,"block":1,"trial_type":"audio-keyboard-response","trial_index":320,"time_elapsed":568392,"internal_node_id":"0.0-13.0-0.67","match_key":"a","participant_id":"05"},{"rt":null,"stimulus":"<p style=\"font-size: 48px;\">+</p>","key_press":null,"block":1,"trial_type":"html-keyboard-response","trial_index":321,"time_elapsed":569382,"internal_node_id":"0.0-13.0-1.67","match_key":"a","participant_id":"05"},{"rt":800.8850000333041,"stimulus":"Images/rooster_1.png","key_press":65,"stim_onset":1581379437861,"block":1,"match_type":"match","image_category":"rooster","sound_category":"rooster","audio_type":"sound","phase":"test","trial_type":"image-keyboard-response","trial_index":322,"time_elapsed":570183,"internal_node_id":"0.0-13.0-2.67","match_key":"a","participant_id":"05","correct":true},{"rt":null,"stimulus":"Sounds/correct.wav","key_press":null,"block":1,"trial_type":"audio-keyboard-response","trial_index":323,"time_elapsed":572187,"internal_node_id":"0.0-13.0-3.67","match_key":"a","participant_id":"05"},{"rt":null,"stimulus":"Sounds/motorcycle_label.wav","key_press":null,"block":1,"trial_type":"audio-keyboard-response","trial_index":324,"time_elapsed":573332,"internal_node_id":"0.0-13.0-0.68","match_key":"a","participant_id":"05"},{"rt":null,"stimulus":"<p style=\"font-size: 48px;\">+</p>","key_press":null,"block":1,"trial_type":"html-keyboard-response","trial_index":325,"time_elapsed":574332,"internal_node_id":"0.0-13.0-1.68","match_key":"a","participant_id":"05"},{"rt":714.9799999315292,"stimulus":"Images/motorcycle_3.png","key_press":65,"stim_onset":1581379442811,"block":1,"match_type":"match","image_category":"motorcycle","sound_category":"motorcycle","audio_type":"label","phase":"test","trial_type":"image-keyboard-response","trial_index":326,"time_elapsed":575048,"internal_node_id":"0.0-13.0-2.68","match_key":"a","participant_id":"05","correct":true},{"rt":null,"stimulus":"Sounds/correct.wav","key_press":null,"block":1,"trial_type":"audio-keyboard-response","trial_index":327,"time_elapsed":577055,"internal_node_id":"0.0-13.0-3.68","match_key":"a","participant_id":"05"},{"rt":null,"stimulus":"Sounds/gun_sound.wav","key_press":null,"block":1,"trial_type":"audio-keyboard-response","trial_index":328,"time_elapsed":577632,"internal_node_id":"0.0-13.0-0.69","match_key":"a","participant_id":"05"},{"rt":null,"stimulus":"<p style=\"font-size: 48px;\">+</p>","key_press":null,"block":1,"trial_type":"html-keyboard-response","trial_index":329,"time_elapsed":578632,"internal_node_id":"0.0-13.0-1.69","match_key":"a","participant_id":"05"},{"rt":855.0749999703839,"stimulus":"Images/gun_1.png","key_press":65,"stim_onset":1581379447111,"block":1,"match_type":"match","image_category":"gun","sound_category":"gun","audio_type":"sound","phase":"test","trial_type":"image-keyboard-response","trial_index":330,"time_elapsed":579488,"internal_node_id":"0.0-13.0-2.69","match_key":"a","participant_id":"05","correct":true},{"rt":null,"stimulus":"Sounds/correct.wav","key_press":null,"block":1,"trial_type":"audio-keyboard-response","trial_index":331,"time_elapsed":581502,"internal_node_id":"0.0-13.0-3.69","match_key":"a","participant_id":"05"},{"rt":null,"stimulus":"Sounds/dog_sound.wav","key_press":null,"block":1,"trial_type":"audio-keyboard-response","trial_index":332,"time_elapsed":582212,"internal_node_id":"0.0-13.0-0.70","match_key":"a","participant_id":"05"},{"rt":null,"stimulus":"<p style=\"font-size: 48px;\">+</p>","key_press":null,"block":1,"trial_type":"html-keyboard-response","trial_index":333,"time_elapsed":583215,"internal_node_id":"0.0-13.0-1.70","match_key":"a","participant_id":"05"},{"rt":463.1749999243766,"stimulus":"Images/dog_cartoon.png","key_press":65,"stim_onset":1581379451694,"block":1,"match_type":"match","image_category":"dog","sound_category":"dog","audio_type":"sound","phase":"test","trial_type":"image-keyboard-response","trial_index":334,"time_elapsed":583679,"internal_node_id":"0.0-13.0-2.70","match_key":"a","participant_id":"05","correct":true},{"rt":null,"stimulus":"Sounds/correct.wav","key_press":null,"block":1,"trial_type":"audio-keyboard-response","trial_index":335,"time_elapsed":585691,"internal_node_id":"0.0-13.0-3.70","match_key":"a","participant_id":"05"},{"rt":null,"stimulus":"Sounds/frog_label.wav","key_press":null,"block":1,"trial_type":"audio-keyboard-response","trial_index":336,"time_elapsed":586592,"internal_node_id":"0.0-13.0-0.71","match_key":"a","participant_id":"05"},{"rt":null,"stimulus":"<p style=\"font-size: 48px;\">+</p>","key_press":null,"block":1,"trial_type":"html-keyboard-response","trial_index":337,"time_elapsed":587582,"internal_node_id":"0.0-13.0-1.71","match_key":"a","participant_id":"05"},{"rt":599.4249999057502,"stimulus":"Images/frog_cartoon.png","key_press":65,"stim_onset":1581379456061,"block":1,"match_type":"match","image_category":"frog","sound_category":"frog","audio_type":"label","phase":"test","trial_type":"image-keyboard-response","trial_index":338,"time_elapsed":588183,"internal_node_id":"0.0-13.0-2.71","match_key":"a","participant_id":"05","correct":true},{"rt":null,"stimulus":"Sounds/correct.wav","key_press":null,"block":1,"trial_type":"audio-keyboard-response","trial_index":339,"time_elapsed":590187,"internal_node_id":"0.0-13.0-3.71","match_key":"a","participant_id":"05"},{"rt":null,"stimulus":"Sounds/frog_label.wav","key_press":null,"block":1,"trial_type":"audio-keyboard-response","trial_index":340,"time_elapsed":591052,"internal_node_id":"0.0-13.0-0.72","match_key":"a","participant_id":"05"},{"rt":null,"stimulus":"<p style=\"font-size: 48px;\">+</p>","key_press":null,"block":1,"trial_type":"html-keyboard-response","trial_index":341,"time_elapsed":592049,"internal_node_id":"0.0-13.0-1.72","match_key":"a","participant_id":"05"},{"rt":430.0800000783056,"stimulus":"Images/frog_1.png","key_press":65,"stim_onset":1581379460528,"block":1,"match_type":"match","image_category":"frog","sound_category":"frog","audio_type":"label","phase":"test","trial_type":"image-keyboard-response","trial_index":342,"time_elapsed":592480,"internal_node_id":"0.0-13.0-2.72","match_key":"a","participant_id":"05","correct":true},{"rt":null,"stimulus":"Sounds/correct.wav","key_press":null,"block":1,"trial_type":"audio-keyboard-response","trial_index":343,"time_elapsed":594485,"internal_node_id":"0.0-13.0-3.72","match_key":"a","participant_id":"05"},{"rt":null,"stimulus":"Sounds/train_sound.wav","key_press":null,"block":1,"trial_type":"audio-keyboard-response","trial_index":344,"time_elapsed":595792,"internal_node_id":"0.0-13.0-0.73","match_key":"a","participant_id":"05"},{"rt":null,"stimulus":"<p style=\"font-size: 48px;\">+</p>","key_press":null,"block":1,"trial_type":"html-keyboard-response","trial_index":345,"time_elapsed":596782,"internal_node_id":"0.0-13.0-1.73","match_key":"a","participant_id":"05"},{"rt":464.6450000582263,"stimulus":"Images/train_2.png","key_press":65,"stim_onset":1581379465261,"block":1,"match_type":"match","image_category":"train","sound_category":"train","audio_type":"sound","phase":"test","trial_type":"image-keyboard-response","trial_index":346,"time_elapsed":597248,"internal_node_id":"0.0-13.0-2.73","match_key":"a","participant_id":"05","correct":true},{"rt":null,"stimulus":"Sounds/correct.wav","key_press":null,"block":1,"trial_type":"audio-keyboard-response","trial_index":347,"time_elapsed":599256,"internal_node_id":"0.0-13.0-3.73","match_key":"a","participant_id":"05"},{"rt":null,"stimulus":"Sounds/gun_sound.wav","key_press":null,"block":1,"trial_type":"audio-keyboard-response","trial_index":348,"time_elapsed":599832,"internal_node_id":"0.0-13.0-0.74","match_key":"a","participant_id":"05"},{"rt":null,"stimulus":"<p style=\"font-size: 48px;\">+</p>","key_press":null,"block":1,"trial_type":"html-keyboard-response","trial_index":349,"time_elapsed":600832,"internal_node_id":"0.0-13.0-1.74","match_key":"a","participant_id":"05"},{"rt":590.3699999907985,"stimulus":"Images/car_3.png","key_press":76,"stim_onset":1581379469311,"block":1,"match_type":"non-match","image_category":"car","sound_category":"gun","audio_type":"sound","phase":"test","trial_type":"image-keyboard-response","trial_index":350,"time_elapsed":601423,"internal_node_id":"0.0-13.0-2.74","match_key":"a","participant_id":"05","correct":true},{"rt":null,"stimulus":"Sounds/correct.wav","key_press":null,"block":1,"trial_type":"audio-keyboard-response","trial_index":351,"time_elapsed":603436,"internal_node_id":"0.0-13.0-3.74","match_key":"a","participant_id":"05"},{"rt":null,"stimulus":"Sounds/frog_sound.wav","key_press":null,"block":1,"trial_type":"audio-keyboard-response","trial_index":352,"time_elapsed":604352,"internal_node_id":"0.0-13.0-0.75","match_key":"a","participant_id":"05"},{"rt":null,"stimulus":"<p style=\"font-size: 48px;\">+</p>","key_press":null,"block":1,"trial_type":"html-keyboard-response","trial_index":353,"time_elapsed":605349,"internal_node_id":"0.0-13.0-1.75","match_key":"a","participant_id":"05"},{"rt":721.819999977015,"stimulus":"Images/car_orig.png","key_press":76,"stim_onset":1581379473828,"block":1,"match_type":"non-match","image_category":"car","sound_category":"frog","audio_type":"sound","phase":"test","trial_type":"image-keyboard-response","trial_index":354,"time_elapsed":606072,"internal_node_id":"0.0-13.0-2.75","match_key":"a","participant_id":"05","correct":true},{"rt":null,"stimulus":"Sounds/correct.wav","key_press":null,"block":1,"trial_type":"audio-keyboard-response","trial_index":355,"time_elapsed":608086,"internal_node_id":"0.0-13.0-3.75","match_key":"a","participant_id":"05"},{"rt":null,"stimulus":"Sounds/car_sound.wav","key_press":null,"block":1,"trial_type":"audio-keyboard-response","trial_index":356,"time_elapsed":609172,"internal_node_id":"0.0-13.0-0.76","match_key":"a","participant_id":"05"},{"rt":null,"stimulus":"<p style=\"font-size: 48px;\">+</p>","key_press":null,"block":1,"trial_type":"html-keyboard-response","trial_index":357,"time_elapsed":610166,"internal_node_id":"0.0-13.0-1.76","match_key":"a","participant_id":"05"},{"rt":1025.2450000261888,"stimulus":"Images/whistle_3.png","key_press":76,"stim_onset":1581379478644,"block":1,"match_type":"non-match","image_category":"whistle","sound_category":"car","audio_type":"sound","phase":"test","trial_type":"image-keyboard-response","trial_index":358,"time_elapsed":611192,"internal_node_id":"0.0-13.0-2.76","match_key":"a","participant_id":"05","correct":true},{"rt":null,"stimulus":"Sounds/correct.wav","key_press":null,"block":1,"trial_type":"audio-keyboard-response","trial_index":359,"time_elapsed":613203,"internal_node_id":"0.0-13.0-3.76","match_key":"a","participant_id":"05"},{"rt":null,"stimulus":"Sounds/frog_sound.wav","key_press":null,"block":1,"trial_type":"audio-keyboard-response","trial_index":360,"time_elapsed":614092,"internal_node_id":"0.0-13.0-0.77","match_key":"a","participant_id":"05"},{"rt":null,"stimulus":"<p style=\"font-size: 48px;\">+</p>","key_press":null,"block":1,"trial_type":"html-keyboard-response","trial_index":361,"time_elapsed":615082,"internal_node_id":"0.0-13.0-1.77","match_key":"a","participant_id":"05"},{"rt":1188.620000029914,"stimulus":"Images/frog_orig.png","key_press":65,"stim_onset":1581379483561,"block":1,"match_type":"match","image_category":"frog","sound_category":"frog","audio_type":"sound","phase":"test","trial_type":"image-keyboard-response","trial_index":362,"time_elapsed":616272,"internal_node_id":"0.0-13.0-2.77","match_key":"a","participant_id":"05","correct":true},{"rt":null,"stimulus":"Sounds/correct.wav","key_press":null,"block":1,"trial_type":"audio-keyboard-response","trial_index":363,"time_elapsed":618287,"internal_node_id":"0.0-13.0-3.77","match_key":"a","participant_id":"05"},{"rt":null,"stimulus":"Sounds/train_sound.wav","key_press":null,"block":1,"trial_type":"audio-keyboard-response","trial_index":364,"time_elapsed":619572,"internal_node_id":"0.0-13.0-0.78","match_key":"a","participant_id":"05"},{"rt":null,"stimulus":"<p style=\"font-size: 48px;\">+</p>","key_press":null,"block":1,"trial_type":"html-keyboard-response","trial_index":365,"time_elapsed":620566,"internal_node_id":"0.0-13.0-1.78","match_key":"a","participant_id":"05"},{"rt":456.79500000551343,"stimulus":"Images/train_3.png","key_press":65,"stim_onset":1581379489045,"block":1,"match_type":"match","image_category":"train","sound_category":"train","audio_type":"sound","phase":"test","trial_type":"image-keyboard-response","trial_index":366,"time_elapsed":621023,"internal_node_id":"0.0-13.0-2.78","match_key":"a","participant_id":"05","correct":true},{"rt":null,"stimulus":"Sounds/correct.wav","key_press":null,"block":1,"trial_type":"audio-keyboard-response","trial_index":367,"time_elapsed":623035,"in