[{"rt":12572.294999961741,"responses":"{\"Q0\":\"COGS219_2020_29\"}","trial_type":"survey-text","trial_index":0,"time_elapsed":12627,"internal_node_id":"0.0-0.0","match_key":"a","participant_id":"COGS219_2020_29"},{"rt":37629.650000017136,"stimulus":"<p>Use KEYBOARD 2 (match LEFT)</p><p>Press MATCH to continue.</p>","key_press":65,"trial_type":"html-keyboard-response","trial_index":1,"time_elapsed":50269,"internal_node_id":"0.0-1.0","match_key":"a","participant_id":"COGS219_2020_29"},{"rt":2754077.410000027,"stimulus":"<p>Welcome to the experiment.</p>","key_press":32,"trial_type":"html-keyboard-response","trial_index":2,"time_elapsed":2804659,"internal_node_id":"0.0-2.0","match_key":"a","participant_id":"COGS219_2020_29"},{"rt":3063.345000031404,"stimulus":"<p>Thank you for agreeing to participate in this study.</p><p>If during any part of the procedure you must stop for any reason, please inform the researcher that you do not wish to continue.</p>","key_press":32,"trial_type":"html-keyboard-response","trial_index":3,"time_elapsed":2807728,"internal_node_id":"0.0-3.0","match_key":"a","participant_id":"COGS219_2020_29"},{"rt":2807.024999987334,"stimulus":"<p>In this experiment, you will hear various words or sounds and see pictures of various animals and objects.</p><p>Most of the images will be of common everyday objects, such as cars, cats, cows, firearms, frogs, chickens, whistles, trains, motorcycles, and dogs.</p><p>Some of the images will be real-life stills, while others will be cartoons.</p>","key_press":32,"trial_type":"html-keyboard-response","trial_index":4,"time_elapsed":2810536,"internal_node_id":"0.0-4.0","match_key":"a","participant_id":"COGS219_2020_29"},{"rt":25567.775000003166,"stimulus":"<p>Sometimes, the word/sound will match the picture, for example you'll hear a meowing sound and see a cat.</p><p>Other times, the picture will not match the sound or word.</p><p>Your task is to decide as quickly as possible if the word/sound matches the picture or not. </p>","key_press":32,"trial_type":"html-keyboard-response","trial_index":5,"time_elapsed":2836099,"internal_node_id":"0.0-5.0","match_key":"a","participant_id":"COGS219_2020_29"},{"rt":15286.410000058822,"stimulus":"<p>For example, if you hear the word \"cat\" or hear a meowing sound, and then see a picture of a cat, you should press the MATCH key.</p><p> If the sound and image do not match, press the NOT-MATCH key to indicate that there is not a match.</p>","key_press":32,"trial_type":"html-keyboard-response","trial_index":6,"time_elapsed":2851387,"internal_node_id":"0.0-6.0","match_key":"a","participant_id":"COGS219_2020_29"},{"rt":14910.24999995716,"stimulus":"<p>If you make a mistake, you will hear a buzzing sound instead of a more pleasant sound.</p><p> Try to respond as quickly as possible, while making as few errors as possible. If you are making mistakes, you are probably rushing.</p>","key_press":32,"trial_type":"html-keyboard-response","trial_index":7,"time_elapsed":2866298,"internal_node_id":"0.0-7.0","match_key":"a","participant_id":"COGS219_2020_29"},{"rt":12238.6749999132,"stimulus":"<p>Please try to not move or blink your eyes during the presentation of the images. You can move and blink between images.</p><p>During the experiment there will be some breaks during which you can rest your eyes.</p>","key_press":32,"trial_type":"html-keyboard-response","trial_index":8,"time_elapsed":2878538,"internal_node_id":"0.0-8.0","match_key":"a","participant_id":"COGS219_2020_29"},{"rt":7790.969999972731,"stimulus":"<p>We will begin with 10 practice trials. Please let the experimenter know if you have any questions.</p>","key_press":32,"trial_type":"html-keyboard-response","trial_index":9,"time_elapsed":2886330,"internal_node_id":"0.0-9.0","match_key":"a","participant_id":"COGS219_2020_29"},{"rt":null,"stimulus":"Sounds/rooster_label.wav","key_press":null,"block":0,"trial_type":"audio-keyboard-response","trial_index":10,"time_elapsed":2887119,"internal_node_id":"0.0-10.0-0.0","match_key":"a","participant_id":"COGS219_2020_29"},{"rt":null,"stimulus":"<p style=\"font-size: 48px;\">+</p>","key_press":null,"block":0,"trial_type":"html-keyboard-response","trial_index":11,"time_elapsed":2888114,"internal_node_id":"0.0-10.0-1.0","match_key":"a","participant_id":"COGS219_2020_29"},{"rt":1053.7799999583513,"stimulus":"Images/rooster_3.png","key_press":65,"stim_onset":1582842207754,"block":0,"match_type":"match","image_category":"rooster","sound_category":"rooster","audio_type":"label","phase":"practice","trial_type":"image-keyboard-response","trial_index":12,"time_elapsed":2889170,"internal_node_id":"0.0-10.0-2.0","match_key":"a","participant_id":"COGS219_2020_29","correct":true},{"rt":null,"stimulus":"Sounds/correct.wav","key_press":null,"block":0,"trial_type":"audio-keyboard-response","trial_index":13,"time_elapsed":2891185,"internal_node_id":"0.0-10.0-3.0","match_key":"a","participant_id":"COGS219_2020_29"},{"rt":null,"stimulus":"Sounds/train_label.wav","key_press":null,"block":0,"trial_type":"audio-keyboard-response","trial_index":14,"time_elapsed":2892459,"internal_node_id":"0.0-10.0-0.1","match_key":"a","participant_id":"COGS219_2020_29"},{"rt":null,"stimulus":"<p style=\"font-size: 48px;\">+</p>","key_press":null,"block":0,"trial_type":"html-keyboard-response","trial_index":15,"time_elapsed":2893465,"internal_node_id":"0.0-10.0-1.1","match_key":"a","participant_id":"COGS219_2020_29"},{"rt":719.8649999918416,"stimulus":"Images/rooster_orig.png","key_press":76,"stim_onset":1582842213104,"block":0,"match_type":"non-match","image_category":"rooster","sound_category":"train","audio_type":"label","phase":"practice","trial_type":"image-keyboard-response","trial_index":16,"time_elapsed":2894186,"internal_node_id":"0.0-10.0-2.1","match_key":"a","participant_id":"COGS219_2020_29","correct":true},{"rt":null,"stimulus":"Sounds/correct.wav","key_press":null,"block":0,"trial_type":"audio-keyboard-response","trial_index":17,"time_elapsed":2896196,"internal_node_id":"0.0-10.0-3.1","match_key":"a","participant_id":"COGS219_2020_29"},{"rt":null,"stimulus":"Sounds/gun_label.wav","key_press":null,"block":0,"trial_type":"audio-keyboard-response","trial_index":18,"time_elapsed":2896764,"internal_node_id":"0.0-10.0-0.2","match_key":"a","participant_id":"COGS219_2020_29"},{"rt":null,"stimulus":"<p style=\"font-size: 48px;\">+</p>","key_press":null,"block":0,"trial_type":"html-keyboard-response","trial_index":19,"time_elapsed":2897754,"internal_node_id":"0.0-10.0-1.2","match_key":"a","participant_id":"COGS219_2020_29"},{"rt":412.6549999928102,"stimulus":"Images/gun_1.png","key_press":65,"stim_onset":1582842217393,"block":0,"match_type":"match","image_category":"gun","sound_category":"gun","audio_type":"label","phase":"practice","trial_type":"image-keyboard-response","trial_index":20,"time_elapsed":2898168,"internal_node_id":"0.0-10.0-2.2","match_key":"a","participant_id":"COGS219_2020_29","correct":true},{"rt":null,"stimulus":"Sounds/correct.wav","key_press":null,"block":0,"trial_type":"audio-keyboard-response","trial_index":21,"time_elapsed":2900172,"internal_node_id":"0.0-10.0-3.2","match_key":"a","participant_id":"COGS219_2020_29"},{"rt":null,"stimulus":"Sounds/rooster_sound.wav","key_press":null,"block":0,"trial_type":"audio-keyboard-response","trial_index":22,"time_elapsed":2900864,"internal_node_id":"0.0-10.0-0.3","match_key":"a","participant_id":"COGS219_2020_29"},{"rt":null,"stimulus":"<p style=\"font-size: 48px;\">+</p>","key_press":null,"block":0,"trial_type":"html-keyboard-response","trial_index":23,"time_elapsed":2901854,"internal_node_id":"0.0-10.0-1.3","match_key":"a","participant_id":"COGS219_2020_29"},{"rt":416.9549999060109,"stimulus":"Images/rooster_1.png","key_press":65,"stim_onset":1582842221493,"block":0,"match_type":"match","image_category":"rooster","sound_category":"rooster","audio_type":"sound","phase":"practice","trial_type":"image-keyboard-response","trial_index":24,"time_elapsed":2902272,"internal_node_id":"0.0-10.0-2.3","match_key":"a","participant_id":"COGS219_2020_29","correct":true},{"rt":null,"stimulus":"Sounds/correct.wav","key_press":null,"block":0,"trial_type":"audio-keyboard-response","trial_index":25,"time_elapsed":2904287,"internal_node_id":"0.0-10.0-3.3","match_key":"a","participant_id":"COGS219_2020_29"},{"rt":null,"stimulus":"Sounds/train_sound.wav","key_press":null,"block":0,"trial_type":"audio-keyboard-response","trial_index":26,"time_elapsed":2905584,"internal_node_id":"0.0-10.0-0.4","match_key":"a","participant_id":"COGS219_2020_29"},{"rt":null,"stimulus":"<p style=\"font-size: 48px;\">+</p>","key_press":null,"block":0,"trial_type":"html-keyboard-response","trial_index":27,"time_elapsed":2906587,"internal_node_id":"0.0-10.0-1.4","match_key":"a","participant_id":"COGS219_2020_29"},{"rt":690.6550000421703,"stimulus":"Images/train_1.png","key_press":76,"stim_onset":1582842226227,"block":0,"match_type":"match","image_category":"train","sound_category":"train","audio_type":"sound","phase":"practice","trial_type":"image-keyboard-response","trial_index":28,"time_elapsed":2907280,"internal_node_id":"0.0-10.0-2.4","match_key":"a","participant_id":"COGS219_2020_29","correct":false},{"rt":null,"stimulus":"Sounds/incorrect.wav","key_press":null,"block":0,"trial_type":"audio-keyboard-response","trial_index":29,"time_elapsed":2909284,"internal_node_id":"0.0-10.0-3.4","match_key":"a","participant_id":"COGS219_2020_29"},{"rt":null,"stimulus":"Sounds/dog_label.wav","key_press":null,"block":0,"trial_type":"audio-keyboard-response","trial_index":30,"time_elapsed":2909944,"internal_node_id":"0.0-10.0-0.5","match_key":"a","participant_id":"COGS219_2020_29"},{"rt":null,"stimulus":"<p style=\"font-size: 48px;\">+</p>","key_press":null,"block":0,"trial_type":"html-keyboard-response","trial_index":31,"time_elapsed":2910937,"internal_node_id":"0.0-10.0-1.5","match_key":"a","participant_id":"COGS219_2020_29"},{"rt":501.3299999991432,"stimulus":"Images/dog_3.png","key_press":65,"stim_onset":1582842230576,"block":0,"match_type":"match","image_category":"dog","sound_category":"dog","audio_type":"label","phase":"practice","trial_type":"image-keyboard-response","trial_index":32,"time_elapsed":2911440,"internal_node_id":"0.0-10.0-2.5","match_key":"a","participant_id":"COGS219_2020_29","correct":true},{"rt":null,"stimulus":"Sounds/correct.wav","key_press":null,"block":0,"trial_type":"audio-keyboard-response","trial_index":33,"time_elapsed":2913447,"internal_node_id":"0.0-10.0-3.5","match_key":"a","participant_id":"COGS219_2020_29"},{"rt":null,"stimulus":"Sounds/dog_sound.wav","key_press":null,"block":0,"trial_type":"audio-keyboard-response","trial_index":34,"time_elapsed":2914164,"internal_node_id":"0.0-10.0-0.6","match_key":"a","participant_id":"COGS219_2020_29"},{"rt":null,"stimulus":"<p style=\"font-size: 48px;\">+</p>","key_press":null,"block":0,"trial_type":"html-keyboard-response","trial_index":35,"time_elapsed":2915154,"internal_node_id":"0.0-10.0-1.6","match_key":"a","participant_id":"COGS219_2020_29"},{"rt":548.8100000657141,"stimulus":"Images/rooster_2.png","key_press":76,"stim_onset":1582842234793,"block":0,"match_type":"non-match","image_category":"rooster","sound_category":"dog","audio_type":"sound","phase":"practice","trial_type":"image-keyboard-response","trial_index":36,"time_elapsed":2915704,"internal_node_id":"0.0-10.0-2.6","match_key":"a","participant_id":"COGS219_2020_29","correct":true},{"rt":null,"stimulus":"Sounds/correct.wav","key_press":null,"block":0,"trial_type":"audio-keyboard-response","trial_index":37,"time_elapsed":2917714,"internal_node_id":"0.0-10.0-3.6","match_key":"a","participant_id":"COGS219_2020_29"},{"rt":null,"stimulus":"Sounds/whistle_sound.wav","key_press":null,"block":0,"trial_type":"audio-keyboard-response","trial_index":38,"time_elapsed":2918404,"internal_node_id":"0.0-10.0-0.7","match_key":"a","participant_id":"COGS219_2020_29"},{"rt":null,"stimulus":"<p style=\"font-size: 48px;\">+</p>","key_press":null,"block":0,"trial_type":"html-keyboard-response","trial_index":39,"time_elapsed":2919404,"internal_node_id":"0.0-10.0-1.7","match_key":"a","participant_id":"COGS219_2020_29"},{"rt":794.6700000902638,"stimulus":"Images/whistle_cartoon.png","key_press":65,"stim_onset":1582842239043,"block":0,"match_type":"match","image_category":"whistle","sound_category":"whistle","audio_type":"sound","phase":"practice","trial_type":"image-keyboard-response","trial_index":40,"time_elapsed":2920200,"internal_node_id":"0.0-10.0-2.7","match_key":"a","participant_id":"COGS219_2020_29","correct":true},{"rt":null,"stimulus":"Sounds/correct.wav","key_press":null,"block":0,"trial_type":"audio-keyboard-response","trial_index":41,"time_elapsed":2922211,"internal_node_id":"0.0-10.0-3.7","match_key":"a","participant_id":"COGS219_2020_29"},{"rt":null,"stimulus":"Sounds/car_sound.wav","key_press":null,"block":0,"trial_type":"audio-keyboard-response","trial_index":42,"time_elapsed":2923284,"internal_node_id":"0.0-10.0-0.8","match_key":"a","participant_id":"COGS219_2020_29"},{"rt":null,"stimulus":"<p style=\"font-size: 48px;\">+</p>","key_press":null,"block":0,"trial_type":"html-keyboard-response","trial_index":43,"time_elapsed":2924287,"internal_node_id":"0.0-10.0-1.8","match_key":"a","participant_id":"COGS219_2020_29"},{"rt":591.0150000127032,"stimulus":"Images/rooster_cartoon.png","key_press":76,"stim_onset":1582842243927,"block":0,"match_type":"non-match","image_category":"rooster","sound_category":"car","audio_type":"sound","phase":"practice","trial_type":"image-keyboard-response","trial_index":44,"time_elapsed":2924880,"internal_node_id":"0.0-10.0-2.8","match_key":"a","participant_id":"COGS219_2020_29","correct":true},{"rt":null,"stimulus":"Sounds/correct.wav","key_press":null,"block":0,"trial_type":"audio-keyboard-response","trial_index":45,"time_elapsed":2926891,"internal_node_id":"0.0-10.0-3.8","match_key":"a","participant_id":"COGS219_2020_29"},{"rt":null,"stimulus":"Sounds/cat_label.wav","key_press":null,"block":0,"trial_type":"audio-keyboard-response","trial_index":46,"time_elapsed":2927724,"internal_node_id":"0.0-10.0-0.9","match_key":"a","participant_id":"COGS219_2020_29"},{"rt":null,"stimulus":"<p style=\"font-size: 48px;\">+</p>","key_press":null,"block":0,"trial_type":"html-keyboard-response","trial_index":47,"time_elapsed":2928721,"internal_node_id":"0.0-10.0-1.9","match_key":"a","participant_id":"COGS219_2020_29"},{"rt":413.8050000183284,"stimulus":"Images/cat_1.png","key_press":65,"stim_onset":1582842248360,"block":0,"match_type":"match","image_category":"cat","sound_category":"cat","audio_type":"label","phase":"practice","trial_type":"image-keyboard-response","trial_index":48,"time_elapsed":2929136,"internal_node_id":"0.0-10.0-2.9","match_key":"a","participant_id":"COGS219_2020_29","correct":true},{"rt":null,"stimulus":"Sounds/correct.wav","key_press":null,"block":0,"trial_type":"audio-keyboard-response","trial_index":49,"time_elapsed":2931153,"internal_node_id":"0.0-10.0-3.9","match_key":"a","participant_id":"COGS219_2020_29"},{"rt":35877.835000050254,"stimulus":"<p>The rest of the experiment is divided into five blocks with 100 trials in each block. It will take about 45 minutes to complete.</p><p>The experimenter will be in the outer room and you can communicate with them through the monitor if you have any questions or wish to stop the experiment.</p>","key_press":32,"trial_type":"html-keyboard-response","trial_index":50,"time_elapsed":2967031,"internal_node_id":"0.0-11.0","match_key":"a","participant_id":"COGS219_2020_29"},{"rt":4630.494999932125,"stimulus":"<p>Remember, please try not to move or blink your eyes during the presentation of the images. </p><p>At the end of the experiment, we will show you your scores on the task so you can see how you did.</p><p>The experiment will start on the next screen.</p>","key_press":32,"trial_type":"html-keyboard-response","trial_index":51,"time_elapsed":2971663,"internal_node_id":"0.0-12.0","match_key":"a","participant_id":"COGS219_2020_29"},{"rt":null,"stimulus":"Sounds/dog_label.wav","key_press":null,"block":1,"trial_type":"audio-keyboard-response","trial_index":52,"time_elapsed":2974346,"internal_node_id":"0.0-13.0-0.0","match_key":"a","participant_id":"COGS219_2020_29"},{"rt":null,"stimulus":"<p style=\"font-size: 48px;\">+</p>","key_press":null,"block":1,"trial_type":"html-keyboard-response","trial_index":53,"time_elapsed":2975337,"internal_node_id":"0.0-13.0-1.0","match_key":"a","participant_id":"COGS219_2020_29"},{"rt":420.56500003673136,"stimulus":"Images/dog_cartoon.png","key_press":76,"stim_onset":1582842294976,"block":1,"match_type":"match","image_category":"dog","sound_category":"dog","audio_type":"label","phase":"test","trial_type":"image-keyboard-response","trial_index":54,"time_elapsed":2975759,"internal_node_id":"0.0-13.0-2.0","match_key":"a","participant_id":"COGS219_2020_29","correct":false},{"rt":null,"stimulus":"Sounds/incorrect.wav","key_press":null,"block":1,"trial_type":"audio-keyboard-response","trial_index":55,"time_elapsed":2977770,"internal_node_id":"0.0-13.0-3.0","match_key":"a","participant_id":"COGS219_2020_29"},{"rt":null,"stimulus":"Sounds/motorcycle_sound.wav","key_press":null,"block":1,"trial_type":"audio-keyboard-response","trial_index":56,"time_elapsed":2978887,"internal_node_id":"0.0-13.0-0.1","match_key":"a","participant_id":"COGS219_2020_29"},{"rt":null,"stimulus":"<p style=\"font-size: 48px;\">+</p>","key_press":null,"block":1,"trial_type":"html-keyboard-response","trial_index":57,"time_elapsed":2979904,"internal_node_id":"0.0-13.0-1.1","match_key":"a","participant_id":"COGS219_2020_29"},{"rt":1006.1449999921024,"stimulus":"Images/frog_1.png","key_press":76,"stim_onset":1582842299543,"block":1,"match_type":"non-match","image_category":"frog","sound_category":"motorcycle","audio_type":"sound","phase":"test","trial_type":"image-keyboard-response","trial_index":58,"time_elapsed":2980911,"internal_node_id":"0.0-13.0-2.1","match_key":"a","participant_id":"COGS219_2020_29","correct":true},{"rt":null,"stimulus":"Sounds/correct.wav","key_press":null,"block":1,"trial_type":"audio-keyboard-response","trial_index":59,"time_elapsed":2982925,"internal_node_id":"0.0-13.0-3.1","match_key":"a","participant_id":"COGS219_2020_29"},{"rt":null,"stimulus":"Sounds/car_sound.wav","key_press":null,"block":1,"trial_type":"audio-keyboard-response","trial_index":60,"time_elapsed":2984006,"internal_node_id":"0.0-13.0-0.2","match_key":"a","participant_id":"COGS219_2020_29"},{"rt":null,"stimulus":"<p style=\"font-size: 48px;\">+</p>","key_press":null,"block":1,"trial_type":"html-keyboard-response","trial_index":61,"time_elapsed":2985004,"internal_node_id":"0.0-13.0-1.2","match_key":"a","participant_id":"COGS219_2020_29"},{"rt":417.93499991763383,"stimulus":"Images/car_3.png","key_press":65,"stim_onset":1582842304643,"block":1,"match_type":"match","image_category":"car","sound_category":"car","audio_type":"sound","phase":"test","trial_type":"image-keyboard-response","trial_index":62,"time_elapsed":2985423,"internal_node_id":"0.0-13.0-2.2","match_key":"a","participant_id":"COGS219_2020_29","correct":true},{"rt":null,"stimulus":"Sounds/correct.wav","key_press":null,"block":1,"trial_type":"audio-keyboard-response","trial_index":63,"time_elapsed":2987436,"internal_node_id":"0.0-13.0-3.2","match_key":"a","participant_id":"COGS219_2020_29"},{"rt":null,"stimulus":"Sounds/cow_sound.wav","key_press":null,"block":1,"trial_type":"audio-keyboard-response","trial_index":64,"time_elapsed":2988446,"internal_node_id":"0.0-13.0-0.3","match_key":"a","participant_id":"COGS219_2020_29"},{"rt":null,"stimulus":"<p style=\"font-size: 48px;\">+</p>","key_press":null,"block":1,"trial_type":"html-keyboard-response","trial_index":65,"time_elapsed":2989437,"internal_node_id":"0.0-13.0-1.3","match_key":"a","participant_id":"COGS219_2020_29"},{"rt":680.4499999852851,"stimulus":"Images/rooster_1.png","key_press":76,"stim_onset":1582842309076,"block":1,"match_type":"non-match","image_category":"rooster","sound_category":"cow","audio_type":"sound","phase":"test","trial_type":"image-keyboard-response","trial_index":66,"time_elapsed":2990119,"internal_node_id":"0.0-13.0-2.3","match_key":"a","participant_id":"COGS219_2020_29","correct":true},{"rt":null,"stimulus":"Sounds/correct.wav","key_press":null,"block":1,"trial_type":"audio-keyboard-response","trial_index":67,"time_elapsed":2992134,"internal_node_id":"0.0-13.0-3.3","match_key":"a","participant_id":"COGS219_2020_29"},{"rt":null,"stimulus":"Sounds/cat_sound.wav","key_press":null,"block":1,"trial_type":"audio-keyboard-response","trial_index":68,"time_elapsed":2992966,"internal_node_id":"0.0-13.0-0.4","match_key":"a","participant_id":"COGS219_2020_29"},{"rt":null,"stimulus":"<p style=\"font-size: 48px;\">+</p>","key_press":null,"block":1,"trial_type":"html-keyboard-response","trial_index":69,"time_elapsed":2993970,"internal_node_id":"0.0-13.0-1.4","match_key":"a","participant_id":"COGS219_2020_29"},{"rt":627.8800000436604,"stimulus":"Images/motorcycle_1.png","key_press":76,"stim_onset":1582842313610,"block":1,"match_type":"non-match","image_category":"motorcycle","sound_category":"cat","audio_type":"sound","phase":"test","trial_type":"image-keyboard-response","trial_index":70,"time_elapsed":2994599,"internal_node_id":"0.0-13.0-2.4","match_key":"a","participant_id":"COGS219_2020_29","correct":true},{"rt":null,"stimulus":"Sounds/correct.wav","key_press":null,"block":1,"trial_type":"audio-keyboard-response","trial_index":71,"time_elapsed":2996605,"internal_node_id":"0.0-13.0-3.4","match_key":"a","participant_id":"COGS219_2020_29"},{"rt":null,"stimulus":"Sounds/cow_sound.wav","key_press":null,"block":1,"trial_type":"audio-keyboard-response","trial_index":72,"time_elapsed":2997606,"internal_node_id":"0.0-13.0-0.5","match_key":"a","participant_id":"COGS219_2020_29"},{"rt":null,"stimulus":"<p style=\"font-size: 48px;\">+</p>","key_press":null,"block":1,"trial_type":"html-keyboard-response","trial_index":73,"time_elapsed":2998604,"internal_node_id":"0.0-13.0-1.5","match_key":"a","participant_id":"COGS219_2020_29"},{"rt":649.8600000049919,"stimulus":"Images/cat_1.png","key_press":76,"stim_onset":1582842318243,"block":1,"match_type":"non-match","image_category":"cat","sound_category":"cow","audio_type":"sound","phase":"test","trial_type":"image-keyboard-response","trial_index":74,"time_elapsed":2999255,"internal_node_id":"0.0-13.0-2.5","match_key":"a","participant_id":"COGS219_2020_29","correct":true},{"rt":null,"stimulus":"Sounds/correct.wav","key_press":null,"block":1,"trial_type":"audio-keyboard-response","trial_index":75,"time_elapsed":3001271,"internal_node_id":"0.0-13.0-3.5","match_key":"a","participant_id":"COGS219_2020_29"},{"rt":null,"stimulus":"Sounds/gun_label.wav","key_press":null,"block":1,"trial_type":"audio-keyboard-response","trial_index":76,"time_elapsed":3001846,"internal_node_id":"0.0-13.0-0.6","match_key":"a","participant_id":"COGS219_2020_29"},{"rt":null,"stimulus":"<p style=\"font-size: 48px;\">+</p>","key_press":null,"block":1,"trial_type":"html-keyboard-response","trial_index":77,"time_elapsed":3002837,"internal_node_id":"0.0-13.0-1.6","match_key":"a","participant_id":"COGS219_2020_29"},{"rt":432.4749999213964,"stimulus":"Images/gun_cartoon.png","key_press":65,"stim_onset":1582842322476,"block":1,"match_type":"match","image_category":"gun","sound_category":"gun","audio_type":"label","phase":"test","trial_type":"image-keyboard-response","trial_index":78,"time_elapsed":3003271,"internal_node_id":"0.0-13.0-2.6","match_key":"a","participant_id":"COGS219_2020_29","correct":true},{"rt":null,"stimulus":"Sounds/correct.wav","key_press":null,"block":1,"trial_type":"audio-keyboard-response","trial_index":79,"time_elapsed":3005287,"internal_node_id":"0.0-13.0-3.6","match_key":"a","participant_id":"COGS219_2020_29"},{"rt":null,"stimulus":"Sounds/gun_sound.wav","key_press":null,"block":1,"trial_type":"audio-keyboard-response","trial_index":80,"time_elapsed":3005866,"internal_node_id":"0.0-13.0-0.7","match_key":"a","participant_id":"COGS219_2020_29"},{"rt":null,"stimulus":"<p style=\"font-size: 48px;\">+</p>","key_press":null,"block":1,"trial_type":"html-keyboard-response","trial_index":81,"time_elapsed":3006871,"internal_node_id":"0.0-13.0-1.7","match_key":"a","participant_id":"COGS219_2020_29"},{"rt":534.8849999718368,"stimulus":"Images/cat_3.png","key_press":76,"stim_onset":1582842326511,"block":1,"match_type":"non-match","image_category":"cat","sound_category":"gun","audio_type":"sound","phase":"test","trial_type":"image-keyboard-response","trial_index":82,"time_elapsed":3007407,"internal_node_id":"0.0-13.0-2.7","match_key":"a","participant_id":"COGS219_2020_29","correct":true},{"rt":null,"stimulus":"Sounds/correct.wav","key_press":null,"block":1,"trial_type":"audio-keyboard-response","trial_index":83,"time_elapsed":3009413,"internal_node_id":"0.0-13.0-3.7","match_key":"a","participant_id":"COGS219_2020_29"},{"rt":null,"stimulus":"Sounds/motorcycle_label.wav","key_press":null,"block":1,"trial_type":"audio-keyboard-response","trial_index":84,"time_elapsed":3010546,"internal_node_id":"0.0-13.0-0.8","match_key":"a","participant_id":"COGS219_2020_29"},{"rt":null,"stimulus":"<p style=\"font-size: 48px;\">+</p>","key_press":null,"block":1,"trial_type":"html-keyboard-response","trial_index":85,"time_elapsed":3011537,"internal_node_id":"0.0-13.0-1.8","match_key":"a","participant_id":"COGS219_2020_29"},{"rt":444.3149999715388,"stimulus":"Images/dog_cartoon.png","key_press":76,"stim_onset":1582842331177,"block":1,"match_type":"non-match","image_category":"dog","sound_category":"motorcycle","audio_type":"label","phase":"test","trial_type":"image-keyboard-response","trial_index":86,"time_elapsed":3011983,"internal_node_id":"0.0-13.0-2.8","match_key":"a","participant_id":"COGS219_2020_29","correct":true},{"rt":null,"stimulus":"Sounds/correct.wav","key_press":null,"block":1,"trial_type":"audio-keyboard-response","trial_index":87,"time_elapsed":3013987,"internal_node_id":"0.0-13.0-3.8","match_key":"a","participant_id":"COGS219_2020_29"},{"rt":null,"stimulus":"Sounds/car_sound.wav","key_press":null,"block":1,"trial_type":"audio-keyboard-response","trial_index":88,"time_elapsed":3015066,"internal_node_id":"0.0-13.0-0.9","match_key":"a","participant_id":"COGS219_2020_29"},{"rt":null,"stimulus":"<p style=\"font-size: 48px;\">+</p>","key_press":null,"block":1,"trial_type":"html-keyboard-response","trial_index":89,"time_elapsed":3016071,"internal_node_id":"0.0-13.0-1.9","match_key":"a","participant_id":"COGS219_2020_29"},{"rt":638.7899999972433,"stimulus":"Images/whistle_3.png","key_press":76,"stim_onset":1582842335710,"block":1,"match_type":"non-match","image_category":"whistle","sound_category":"car","audio_type":"sound","phase":"test","trial_type":"image-keyboard-response","trial_index":90,"time_elapsed":3016711,"internal_node_id":"0.0-13.0-2.9","match_key":"a","participant_id":"COGS219_2020_29","correct":true},{"rt":null,"stimulus":"Sounds/correct.wav","key_press":null,"block":1,"trial_type":"audio-keyboard-response","trial_index":91,"time_elapsed":3018720,"internal_node_id":"0.0-13.0-3.9","match_key":"a","participant_id":"COGS219_2020_29"},{"rt":null,"stimulus":"Sounds/dog_label.wav","key_press":null,"block":1,"trial_type":"audio-keyboard-response","trial_index":92,"time_elapsed":3019386,"internal_node_id":"0.0-13.0-0.10","match_key":"a","participant_id":"COGS219_2020_29"},{"rt":null,"stimulus":"<p style=\"font-size: 48px;\">+</p>","key_press":null,"block":1,"trial_type":"html-keyboard-response","trial_index":93,"time_elapsed":3020404,"internal_node_id":"0.0-13.0-1.10","match_key":"a","participant_id":"COGS219_2020_29"},{"rt":553.6800000118092,"stimulus":"Images/rooster_2.png","key_press":76,"stim_onset":1582842340043,"block":1,"match_type":"non-match","image_category":"rooster","sound_category":"dog","audio_type":"label","phase":"test","trial_type":"image-keyboard-response","trial_index":94,"time_elapsed":3020959,"internal_node_id":"0.0-13.0-2.10","match_key":"a","participant_id":"COGS219_2020_29","correct":true},{"rt":null,"stimulus":"Sounds/correct.wav","key_press":null,"block":1,"trial_type":"audio-keyboard-response","trial_index":95,"time_elapsed":3022961,"internal_node_id":"0.0-13.0-3.10","match_key":"a","participant_id":"COGS219_2020_29"},{"rt":null,"stimulus":"Sounds/car_sound.wav","key_press":null,"block":1,"trial_type":"audio-keyboard-response","trial_index":96,"time_elapsed":3024006,"internal_node_id":"0.0-13.0-0.11","match_key":"a","participant_id":"COGS219_2020_29"},{"rt":null,"stimulus":"<p style=\"font-size: 48px;\">+</p>","key_press":null,"block":1,"trial_type":"html-keyboard-response","trial_index":97,"time_elapsed":3025005,"internal_node_id":"0.0-13.0-1.11","match_key":"a","participant_id":"COGS219_2020_29"},{"rt":625.7299999706447,"stimulus":"Images/car_cartoon.png","key_press":76,"stim_onset":1582842344644,"block":1,"match_type":"match","image_category":"car","sound_category":"car","audio_type":"sound","phase":"test","trial_type":"image-keyboard-response","trial_index":98,"time_elapsed":3025631,"internal_node_id":"0.0-13.0-2.11","match_key":"a","participant_id":"COGS219_2020_29","correct":false},{"rt":null,"stimulus":"Sounds/incorrect.wav","key_press":null,"block":1,"trial_type":"audio-keyboard-response","trial_index":99,"time_elapsed":3027639,"internal_node_id":"0.0-13.0-3.11","match_key":"a","participant_id":"COGS219_2020_29"},{"rt":null,"stimulus":"Sounds/frog_label.wav","key_press":null,"block":1,"trial_type":"audio-keyboard-response","trial_index":100,"time_elapsed":3028546,"internal_node_id":"0.0-13.0-0.12","match_key":"a","participant_id":"COGS219_2020_29"},{"rt":null,"stimulus":"<p style=\"font-size: 48px;\">+</p>","key_press":null,"block":1,"trial_type":"html-keyboard-response","trial_index":101,"time_elapsed":3029538,"internal_node_id":"0.0-13.0-1.12","match_key":"a","participant_id":"COGS219_2020_29"},{"rt":468.0800000205636,"stimulus":"Images/frog_2.png","key_press":65,"stim_onset":1582842349177,"block":1,"match_type":"match","image_category":"frog","sound_category":"frog","audio_type":"label","phase":"test","trial_type":"image-keyboard-response","trial_index":102,"time_elapsed":3030007,"internal_node_id":"0.0-13.0-2.12","match_key":"a","participant_id":"COGS219_2020_29","correct":true},{"rt":null,"stimulus":"Sounds/correct.wav","key_press":null,"block":1,"trial_type":"audio-keyboard-response","trial_index":103,"time_elapsed":3032017,"internal_node_id":"0.0-13.0-3.12","match_key":"a","participant_id":"COGS219_2020_29"},{"rt":null,"stimulus":"Sounds/cat_label.wav","key_press":null,"block":1,"trial_type":"audio-keyboard-response","trial_index":104,"time_elapsed":3032846,"internal_node_id":"0.0-13.0-0.13","match_key":"a","participant_id":"COGS219_2020_29"},{"rt":null,"stimulus":"<p style=\"font-size: 48px;\">+</p>","key_press":null,"block":1,"trial_type":"html-keyboard-response","trial_index":105,"time_elapsed":3033838,"internal_node_id":"0.0-13.0-1.13","match_key":"a","participant_id":"COGS219_2020_29"},{"rt":448.5100000165403,"stimulus":"Images/cat_1.png","key_press":65,"stim_onset":1582842353477,"block":1,"match_type":"match","image_category":"cat","sound_category":"cat","audio_type":"label","phase":"test","trial_type":"image-keyboard-response","trial_index":106,"time_elapsed":3034288,"internal_node_id":"0.0-13.0-2.13","match_key":"a","participant_id":"COGS219_2020_29","correct":true},{"rt":null,"stimulus":"Sounds/correct.wav","key_press":null,"block":1,"trial_type":"audio-keyboard-response","trial_index":107,"time_elapsed":3036293,"internal_node_id":"0.0-13.0-3.13","match_key":"a","participant_id":"COGS219_2020_29"},{"rt":null,"stimulus":"Sounds/dog_sound.wav","key_press":null,"block":1,"trial_type":"audio-keyboard-response","trial_index":108,"time_elapsed":3037006,"internal_node_id":"0.0-13.0-0.14","match_key":"a","participant_id":"COGS219_2020_29"},{"rt":null,"stimulus":"<p style=\"font-size: 48px;\">+</p>","key_press":null,"block":1,"trial_type":"html-keyboard-response","trial_index":109,"time_elapsed":3038005,"internal_node_id":"0.0-13.0-1.14","match_key":"a","participant_id":"COGS219_2020_29"},{"rt":433.6650000186637,"stimulus":"Images/dog_2.png","key_press":65,"stim_onset":1582842357644,"block":1,"match_type":"match","image_category":"dog","sound_category":"dog","audio_type":"sound","phase":"test","trial_type":"image-keyboard-response","trial_index":110,"time_elapsed":3038439,"internal_node_id":"0.0-13.0-2.14","match_key":"a","participant_id":"COGS219_2020_29","correct":true},{"rt":null,"stimulus":"Sounds/correct.wav","key_press":null,"block":1,"trial_type":"audio-keyboard-response","trial_index":111,"time_elapsed":3040445,"internal_node_id":"0.0-13.0-3.14","match_key":"a","participant_id":"COGS219_2020_29"},{"rt":null,"stimulus":"Sounds/cow_label.wav","key_press":null,"block":1,"trial_type":"audio-keyboard-response","trial_index":112,"time_elapsed":3041466,"internal_node_id":"0.0-13.0-0.15","match_key":"a","participant_id":"COGS219_2020_29"},{"rt":null,"stimulus":"<p style=\"font-size: 48px;\">+</p>","key_press":null,"block":1,"trial_type":"html-keyboard-response","trial_index":113,"time_elapsed":3042472,"internal_node_id":"0.0-13.0-1.15","match_key":"a","participant_id":"COGS219_2020_29"},{"rt":446.55500003136694,"stimulus":"Images/car_1.png","key_press":76,"stim_onset":1582842362111,"block":1,"match_type":"non-match","image_category":"car","sound_category":"cow","audio_type":"label","phase":"test","trial_type":"image-keyboard-response","trial_index":114,"time_elapsed":3042919,"internal_node_id":"0.0-13.0-2.15","match_key":"a","participant_id":"COGS219_2020_29","correct":true},{"rt":null,"stimulus":"Sounds/correct.wav","key_press":null,"block":1,"trial_type":"audio-keyboard-response","trial_index":115,"time_elapsed":3044935,"internal_node_id":"0.0-13.0-3.15","match_key":"a","participant_id":"COGS219_2020_29"},{"rt":null,"stimulus":"Sounds/car_label.wav","key_press":null,"block":1,"trial_type":"audio-keyboard-response","trial_index":116,"time_elapsed":3046006,"internal_node_id":"0.0-13.0-0.16","match_key":"a","participant_id":"COGS219_2020_29"},{"rt":null,"stimulus":"<p style=\"font-size: 48px;\">+</p>","key_press":null,"block":1,"trial_type":"html-keyboard-response","trial_index":117,"time_elapsed":3047005,"internal_node_id":"0.0-13.0-1.16","match_key":"a","participant_id":"COGS219_2020_29"},{"rt":433.4650000091642,"stimulus":"Images/car_2.png","key_press":65,"stim_onset":1582842366644,"block":1,"match_type":"match","image_category":"car","sound_category":"car","audio_type":"label","phase":"test","trial_type":"image-keyboard-response","trial_index":118,"time_elapsed":3047439,"internal_node_id":"0.0-13.0-2.16","match_key":"a","participant_id":"COGS219_2020_29","correct":true},{"rt":null,"stimulus":"Sounds/correct.wav","key_press":null,"block":1,"trial_type":"audio-keyboard-response","trial_index":119,"time_elapsed":3049454,"internal_node_id":"0.0-13.0-3.16","match_key":"a","participant_id":"COGS219_2020_29"},{"rt":null,"stimulus":"Sounds/motorcycle_label.wav","key_press":null,"block":1,"trial_type":"audio-keyboard-response","trial_index":120,"time_elapsed":3050586,"internal_node_id":"0.0-13.0-0.17","match_key":"a","participant_id":"COGS219_2020_29"},{"rt":null,"stimulus":"<p style=\"font-size: 48px;\">+</p>","key_press":null,"block":1,"trial_type":"html-keyboard-response","trial_index":121,"time_elapsed":3051588,"internal_node_id":"0.0-13.0-1.17","match_key":"a","participant_id":"COGS219_2020_29"},{"rt":473.824999993667,"stimulus":"Images/motorcycle_cartoon.png","key_press":65,"stim_onset":1582842371227,"block":1,"match_type":"match","image_category":"motorcycle","sound_category":"motorcycle","audio_type":"label","phase":"test","trial_type":"image-keyboard-response","trial_index":122,"time_elapsed":3052063,"internal_node_id":"0.0-13.0-2.17","match_key":"a","participant_id":"COGS219_2020_29","correct":true},{"rt":null,"stimulus":"Sounds/correct.wav","key_press":null,"block":1,"trial_type":"audio-keyboard-response","trial_index":123,"time_elapsed":3054076,"internal_node_id":"0.0-13.0-3.17","match_key":"a","participant_id":"COGS219_2020_29"},{"rt":null,"stimulus":"Sounds/train_label.wav","key_press":null,"block":1,"trial_type":"audio-keyboard-response","trial_index":124,"time_elapsed":3055346,"internal_node_id":"0.0-13.0-0.18","match_key":"a","participant_id":"COGS219_2020_29"},{"rt":null,"stimulus":"<p style=\"font-size: 48px;\">+</p>","key_press":null,"block":1,"trial_type":"html-keyboard-response","trial_index":125,"time_elapsed":3056338,"internal_node_id":"0.0-13.0-1.18","match_key":"a","participant_id":"COGS219_2020_29"},{"rt":411.9799999753013,"stimulus":"Images/car_orig.png","key_press":65,"stim_onset":1582842375978,"block":1,"match_type":"non-match","image_category":"car","sound_category":"train","audio_type":"label","phase":"test","trial_type":"image-keyboard-response","trial_index":126,"time_elapsed":3056751,"internal_node_id":"0.0-13.0-2.18","match_key":"a","participant_id":"COGS219_2020_29","correct":false},{"rt":null,"stimulus":"Sounds/incorrect.wav","key_press":null,"block":1,"trial_type":"audio-keyboard-response","trial_index":127,"time_elapsed":3058756,"internal_node_id":"0.0-13.0-3.18","match_key":"a","participant_id":"COGS219_2020_29"},{"rt":null,"stimulus":"Sounds/car_label.wav","key_press":null,"block":1,"trial_type":"audio-keyboard-response","trial_index":128,"time_elapsed":3059806,"internal_node_id":"0.0-13.0-0.19","match_key":"a","participant_id":"COGS219_2020_29"},{"rt":null,"stimulus":"<p style=\"font-size: 48px;\">+</p>","key_press":null,"block":1,"trial_type":"html-keyboard-response","trial_index":129,"time_elapsed":3060805,"internal_node_id":"0.0-13.0-1.19","match_key":"a","participant_id":"COGS219_2020_29"},{"rt":513.5749999899417,"stimulus":"Images/train_3.png","key_press":65,"stim_onset":1582842380444,"block":1,"match_type":"non-match","image_category":"train","sound_category":"car","audio_type":"label","phase":"test","trial_type":"image-keyboard-response","trial_index":130,"time_elapsed":3061320,"internal_node_id":"0.0-13.0-2.19","match_key":"a","participant_id":"COGS219_2020_29","correct":false},{"rt":null,"stimulus":"Sounds/incorrect.wav","key_press":null,"block":1,"trial_type":"audio-keyboard-response","trial_index":131,"time_elapsed":3063331,"internal_node_id":"0.0-13.0-3.19","match_key":"a","participant_id":"COGS219_2020_29"},{"rt":null,"stimulus":"Sounds/cat_sound.wav","key_press":null,"block":1,"trial_type":"audio-keyboard-response","trial_index":132,"time_elapsed":3064166,"internal_node_id":"0.0-13.0-0.20","match_key":"a","participant_id":"COGS219_2020_29"},{"rt":null,"stimulus":"<p style=\"font-size: 48px;\">+</p>","key_press":null,"block":1,"trial_type":"html-keyboard-response","trial_index":133,"time_elapsed":3065155,"internal_node_id":"0.0-13.0-1.20","match_key":"a","participant_id":"COGS219_2020_29"},{"rt":467.18000003602356,"stimulus":"Images/cat_orig.png","key_press":65,"stim_onset":1582842384795,"block":1,"match_type":"match","image_category":"cat","sound_category":"cat","audio_type":"sound","phase":"test","trial_type":"image-keyboard-response","trial_index":134,"time_elapsed":3065623,"internal_node_id":"0.0-13.0-2.20","match_key":"a","participant_id":"COGS219_2020_29","correct":true},{"rt":null,"stimulus":"Sounds/correct.wav","key_press":null,"block":1,"trial_type":"audio-keyboard-response","trial_index":135,"time_elapsed":3067631,"internal_node_id":"0.0-13.0-3.20","match_key":"a","participant_id":"COGS219_2020_29"},{"rt":null,"stimulus":"Sounds/whistle_sound.wav","key_press":null,"block":1,"trial_type":"audio-keyboard-response","trial_index":136,"time_elapsed":3068326,"internal_node_id":"0.0-13.0-0.21","match_key":"a","participant_id":"COGS219_2020_29"},{"rt":null,"stimulus":"<p style=\"font-size: 48px;\">+</p>","key_press":null,"block":1,"trial_type":"html-keyboard-response","trial_index":137,"time_elapsed":3069322,"internal_node_id":"0.0-13.0-1.21","match_key":"a","participant_id":"COGS219_2020_29"},{"rt":532.3799999896437,"stimulus":"Images/motorcycle_3.png","key_press":76,"stim_onset":1582842388961,"block":1,"match_type":"non-match","image_category":"motorcycle","sound_category":"whistle","audio_type":"sound","phase":"test","trial_type":"image-keyboard-response","trial_index":138,"time_elapsed":3069855,"internal_node_id":"0.0-13.0-2.21","match_key":"a","participant_id":"COGS219_2020_29","correct":true},{"rt":null,"stimulus":"Sounds/correct.wav","key_press":null,"block":1,"trial_type":"audio-keyboard-response","trial_index":139,"time_elapsed":3071865,"internal_node_id":"0.0-13.0-3.21","match_key":"a","participant_id":"COGS219_2020_29"},{"rt":null,"stimulus":"Sounds/dog_label.wav","key_press":null,"block":1,"trial_type":"audio-keyboard-response","trial_index":140,"time_elapsed":3072527,"internal_node_id":"0.0-13.0-0.22","match_key":"a","participant_id":"COGS219_2020_29"},{"rt":null,"stimulus":"<p style=\"font-size: 48px;\">+</p>","key_press":null,"block":1,"trial_type":"html-keyboard-response","trial_index":141,"time_elapsed":3073522,"internal_node_id":"0.0-13.0-1.22","match_key":"a","participant_id":"COGS219_2020_29"},{"rt":524.4700000621378,"stimulus":"Images/gun_cartoon.png","key_press":76,"stim_onset":1582842393161,"block":1,"match_type":"non-match","image_category":"gun","sound_category":"dog","audio_type":"label","phase":"test","trial_type":"image-keyboard-response","trial_index":142,"time_elapsed":3074047,"internal_node_id":"0.0-13.0-2.22","match_key":"a","participant_id":"COGS219_2020_29","correct":true},{"rt":null,"stimulus":"Sounds/correct.wav","key_press":null,"block":1,"trial_type":"audio-keyboard-response","trial_index":143,"time_elapsed":3076063,"internal_node_id":"0.0-13.0-3.22","match_key":"a","participant_id":"COGS219_2020_29"},{"rt":null,"stimulus":"Sounds/frog_label.wav","key_press":null,"block":1,"trial_type":"audio-keyboard-response","trial_index":144,"time_elapsed":3076966,"internal_node_id":"0.0-13.0-0.23","match_key":"a","participant_id":"COGS219_2020_29"},{"rt":null,"stimulus":"<p style=\"font-size: 48px;\">+</p>","key_press":null,"block":1,"trial_type":"html-keyboard-response","trial_index":145,"time_elapsed":3077955,"internal_node_id":"0.0-13.0-1.23","match_key":"a","participant_id":"COGS219_2020_29"},{"rt":491.06000002939254,"stimulus":"Images/gun_1.png","key_press":76,"stim_onset":1582842397594,"block":1,"match_type":"non-match","image_category":"gun","sound_category":"frog","audio_type":"label","phase":"test","trial_type":"image-keyboard-response","trial_index":146,"time_elapsed":3078447,"internal_node_id":"0.0-13.0-2.23","match_key":"a","participant_id":"COGS219_2020_29","correct":true},{"rt":null,"stimulus":"Sounds/correct.wav","key_press":null,"block":1,"trial_type":"audio-keyboard-response","trial_index":147,"time_elapsed":3080451,"internal_node_id":"0.0-13.0-3.23","match_key":"a","participant_id":"COGS219_2020_29"},{"rt":null,"stimulus":"Sounds/train_label.wav","key_press":null,"block":1,"trial_type":"audio-keyboard-response","trial_index":148,"time_elapsed":3081726,"internal_node_id":"0.0-13.0-0.24","match_key":"a","participant_id":"COGS219_2020_29"},{"rt":null,"stimulus":"<p style=\"font-size: 48px;\">+</p>","key_press":null,"block":1,"trial_type":"html-keyboard-response","trial_index":149,"time_elapsed":3082722,"internal_node_id":"0.0-13.0-1.24","match_key":"a","participant_id":"COGS219_2020_29"},{"rt":532.3750000679865,"stimulus":"Images/frog_3.png","key_press":76,"stim_onset":1582842402361,"block":1,"match_type":"non-match","image_category":"frog","sound_category":"train","audio_type":"label","phase":"test","trial_type":"image-keyboard-response","trial_index":150,"time_elapsed":3083255,"internal_node_id":"0.0-13.0-2.24","match_key":"a","participant_id":"COGS219_2020_29","correct":true},{"rt":null,"stimulus":"Sounds/correct.wav","key_press":null,"block":1,"trial_type":"audio-keyboard-response","trial_index":151,"time_elapsed":3085264,"internal_node_id":"0.0-13.0-3.24","match_key":"a","participant_id":"COGS219_2020_29"},{"rt":null,"stimulus":"Sounds/train_sound.wav","key_press":null,"block":1,"trial_type":"audio-keyboard-response","trial_index":152,"time_elapsed":3086566,"internal_node_id":"0.0-13.0-0.25","match_key":"a","participant_id":"COGS219_2020_29"},{"rt":null,"stimulus":"<p style=\"font-size: 48px;\">+</p>","key_press":null,"block":1,"trial_type":"html-keyboard-response","trial_index":153,"time_elapsed":3087572,"internal_node_id":"0.0-13.0-1.25","match_key":"a","participant_id":"COGS219_2020_29"},{"rt":466.31000004708767,"stimulus":"Images/dog_1.png","key_press":76,"stim_onset":1582842407211,"block":1,"match_type":"non-match","image_category":"dog","sound_category":"train","audio_type":"sound","phase":"test","trial_type":"image-keyboard-response","trial_index":154,"time_elapsed":3088040,"internal_node_id":"0.0-13.0-2.25","match_key":"a","participant_id":"COGS219_2020_29","correct":true},{"rt":null,"stimulus":"Sounds/correct.wav","key_press":null,"block":1,"trial_type":"audio-keyboard-response","trial_index":155,"time_elapsed":3090052,"internal_node_id":"0.0-13.0-3.25","match_key":"a","participant_id":"COGS219_2020_29"},{"rt":null,"stimulus":"Sounds/cow_label.wav","key_press":null,"block":1,"trial_type":"audio-keyboard-response","trial_index":156,"time_elapsed":3091067,"internal_node_id":"0.0-13.0-0.26","match_key":"a","participant_id":"COGS219_2020_29"},{"rt":null,"stimulus":"<p style=\"font-size: 48px;\">+</p>","key_press":null,"block":1,"trial_type":"html-keyboard-response","trial_index":157,"time_elapsed":3092072,"internal_node_id":"0.0-13.0-1.26","match_key":"a","participant_id":"COGS219_2020_29"},{"rt":422.469999990426,"stimulus":"Images/cow_1.png","key_press":65,"stim_onset":1582842411711,"block":1,"match_type":"match","image_category":"cow","sound_category":"cow","audio_type":"label","phase":"test","trial_type":"image-keyboard-response","trial_index":158,"time_elapsed":3092496,"internal_node_id":"0.0-13.0-2.26","match_key":"a","participant_id":"COGS219_2020_29","correct":true},{"rt":null,"stimulus":"Sounds/correct.wav","key_press":null,"block":1,"trial_type":"audio-keyboard-response","trial_index":159,"time_elapsed":3094505,"internal_node_id":"0.0-13.0-3.26","match_key":"a","participant_id":"COGS219_2020_29"},{"rt":null,"stimulus":"Sounds/car_label.wav","key_press":null,"block":1,"trial_type":"audio-keyboard-response","trial_index":160,"time_elapsed":3095587,"internal_node_id":"0.0-13.0-0.27","match_key":"a","participant_id":"COGS219_2020_29"},{"rt":null,"stimulus":"<p style=\"font-size: 48px;\">+</p>","key_press":null,"block":1,"trial_type":"html-keyboard-response","trial_index":161,"time_elapsed":3096589,"internal_node_id":"0.0-13.0-1.27","match_key":"a","participant_id":"COGS219_2020_29"},{"rt":433.51000000257045,"stimulus":"Images/car_1.png","key_press":65,"stim_onset":1582842416228,"block":1,"match_type":"match","image_category":"car","sound_category":"car","audio_type":"label","phase":"test","trial_type":"image-keyboard-response","trial_index":162,"time_elapsed":3097023,"internal_node_id":"0.0-13.0-2.27","match_key":"a","participant_id":"COGS219_2020_29","correct":true},{"rt":null,"stimulus":"Sounds/correct.wav","key_press":null,"block":1,"trial_type":"audio-keyboard-response","trial_index":163,"time_elapsed":3099037,"internal_node_id":"0.0-13.0-3.27","match_key":"a","participant_id":"COGS219_2020_29"},{"rt":null,"stimulus":"Sounds/rooster_sound.wav","key_press":null,"block":1,"trial_type":"audio-keyboard-response","trial_index":164,"time_elapsed":3099727,"internal_node_id":"0.0-13.0-0.28","match_key":"a","participant_id":"COGS219_2020_29"},{"rt":null,"stimulus":"<p style=\"font-size: 48px;\">+</p>","key_press":null,"block":1,"trial_type":"html-keyboard-response","trial_index":165,"time_elapsed":3100722,"internal_node_id":"0.0-13.0-1.28","match_key":"a","participant_id":"COGS219_2020_29"},{"rt":452.27499993052334,"stimulus":"Images/rooster_2.png","key_press":65,"stim_onset":1582842420362,"block":1,"match_type":"match","image_category":"rooster","sound_category":"rooster","audio_type":"sound","phase":"test","trial_type":"image-keyboard-response","trial_index":166,"time_elapsed":3101176,"internal_node_id":"0.0-13.0-2.28","match_key":"a","participant_id":"COGS219_2020_29","correct":true},{"rt":null,"stimulus":"Sounds/correct.wav","key_press":null,"block":1,"trial_type":"audio-keyboard-response","trial_index":167,"time_elapsed":3103186,"internal_node_id":"0.0-13.0-3.28","match_key":"a","participant_id":"COGS219_2020_29"},{"rt":null,"stimulus":"Sounds/dog_sound.wav","key_press":null,"block":1,"trial_type":"audio-keyboard-response","trial_index":168,"time_elapsed":3103887,"internal_node_id":"0.0-13.0-0.29","match_key":"a","participant_id":"COGS219_2020_29"},{"rt":null,"stimulus":"<p style=\"font-size: 48px;\">+</p>","key_press":null,"block":1,"trial_type":"html-keyboard-response","trial_index":169,"time_elapsed":3104889,"internal_node_id":"0.0-13.0-1.29","match_key":"a","participant_id":"COGS219_2020_29"},{"rt":381.3300000037998,"stimulus":"Images/dog_1.png","key_press":65,"stim_onset":1582842424528,"block":1,"match_type":"match","image_category":"dog","sound_category":"dog","audio_type":"sound","phase":"test","trial_type":"image-keyboard-response","trial_index":170,"time_elapsed":3105271,"internal_node_id":"0.0-13.0-2.29","match_key":"a","participant_id":"COGS219_2020_29","correct":true},{"rt":null,"stimulus":"Sounds/correct.wav","key_press":null,"block":1,"trial_type":"audio-keyboard-response","trial_index":171,"time_elapsed":3107276,"internal_node_id":"0.0-13.0-3.29","match_key":"a","participant_id":"COGS219_2020_29"},{"rt":null,"stimulus":"Sounds/rooster_sound.wav","key_press":null,"block":1,"trial_type":"audio-keyboard-response","trial_index":172,"time_elapsed":3107947,"internal_node_id":"0.0-13.0-0.30","match_key":"a","participant_id":"COGS219_2020_29"},{"rt":null,"stimulus":"<p style=\"font-size: 48px;\">+</p>","key_press":null,"block":1,"trial_type":"html-keyboard-response","trial_index":173,"time_elapsed":3108939,"internal_node_id":"0.0-13.0-1.30","match_key":"a","participant_id":"COGS219_2020_29"},{"rt":499.0449999459088,"stimulus":"Images/frog_orig.png","key_press":76,"stim_onset":1582842428579,"block":1,"match_type":"non-match","image_category":"frog","sound_category":"rooster","audio_type":"sound","phase":"test","trial_type":"image-keyboard-response","trial_index":174,"time_elapsed":3109439,"internal_node_id":"0.0-13.0-2.30","match_key":"a","participant_id":"COGS219_2020_29","correct":true},{"rt":null,"stimulus":"Sounds/correct.wav","key_press":null,"block":1,"trial_type":"audio-keyboard-response","trial_index":175,"time_elapsed":3111450,"internal_node_id":"0.0-13.0-3.30","match_key":"a","participant_id":"COGS219_2020_29"},{"rt":null,"stimulus":"Sounds/train_label.wav","key_press":null,"block":1,"trial_type":"audio-keyboard-response","trial_index":176,"time_elapsed":3112727,"internal_node_id":"0.0-13.0-0.31","match_key":"a","participant_id":"COGS219_2020_29"},{"rt":null,"stimulus":"<p style=\"font-size: 48px;\">+</p>","key_press":null,"block":1,"trial_type":"html-keyboard-response","trial_index":177,"time_elapsed":3113722,"internal_node_id":"0.0-13.0-1.31","match_key":"a","participant_id":"COGS219_2020_29"},{"rt":548.2149999588728,"stimulus":"Images/whistle_2.png","key_press":76,"stim_onset":1582842433362,"block":1,"match_type":"non-match","image_category":"whistle","sound_category":"train","audio_type":"label","phase":"test","trial_type":"image-keyboard-response","trial_index":178,"time_elapsed":3114272,"internal_node_id":"0.0-13.0-2.31","match_key":"a","participant_id":"COGS219_2020_29","correct":true},{"rt":null,"stimulus":"Sounds/correct.wav","key_press":null,"block":1,"trial_type":"audio-keyboard-response","trial_index":179,"time_elapsed":3116280,"internal_node_id":"0.0-13.0-3.31","match_key":"a","participant_id":"COGS219_2020_29"},{"rt":null,"stimulus":"Sounds/gun_sound.wav","key_press":null,"block":1,"trial_type":"audio-keyboard-response","trial_index":180,"time_elapsed":3116847,"internal_node_id":"0.0-13.0-0.32","match_key":"a","participant_id":"COGS219_2020_29"},{"rt":null,"stimulus":"<p style=\"font-size: 48px;\">+</p>","key_press":null,"block":1,"trial_type":"html-keyboard-response","trial_index":181,"time_elapsed":3117839,"internal_node_id":"0.0-13.0-1.32","match_key":"a","participant_id":"COGS219_2020_29"},{"rt":455.1449998980388,"stimulus":"Images/gun_orig.png","key_press":65,"stim_onset":1582842437478,"block":1,"match_type":"match","image_category":"gun","sound_category":"gun","audio_type":"sound","phase":"test","trial_type":"image-keyboard-response","trial_index":182,"time_elapsed":3118295,"internal_node_id":"0.0-13.0-2.32","match_key":"a","participant_id":"COGS219_2020_29","correct":true},{"rt":null,"stimulus":"Sounds/correct.wav","key_press":null,"block":1,"trial_type":"audio-keyboard-response","trial_index":183,"time_elapsed":3120304,"internal_node_id":"0.0-13.0-3.32","match_key":"a","participant_id":"COGS219_2020_29"},{"rt":null,"stimulus":"Sounds/dog_sound.wav","key_press":null,"block":1,"trial_type":"audio-keyboard-response","trial_index":184,"time_elapsed":3120987,"internal_node_id":"0.0-13.0-0.33","match_key":"a","participant_id":"COGS219_2020_29"},{"rt":null,"stimulus":"<p style=\"font-size: 48px;\">+</p>","key_press":null,"block":1,"trial_type":"html-keyboard-response","trial_index":185,"time_elapsed":3121989,"internal_node_id":"0.0-13.0-1.33","match_key":"a","participant_id":"COGS219_2020_29"},{"rt":417.14000003412366,"stimulus":"Images/dog_3.png","key_press":65,"stim_onset":1582842441628,"block":1,"match_type":"match","image_category":"dog","sound_category":"dog","audio_type":"sound","phase":"test","trial_type":"image-keyboard-response","trial_index":186,"time_elapsed":3122407,"internal_node_id":"0.0-13.0-2.33","match_key":"a","participant_id":"COGS219_2020_29","correct":true},{"rt":null,"stimulus":"Sounds/correct.wav","key_press":null,"block":1,"trial_type":"audio-keyboard-response","trial_index":187,"time_elapsed":3124422,"internal_node_id":"0.0-13.0-3.33","match_key":"a","participant_id":"COGS219_2020_29"},{"rt":null,"stimulus":"Sounds/train_sound.wav","key_press":null,"block":1,"trial_type":"audio-keyboard-response","trial_index":188,"time_elapsed":3125727,"internal_node_id":"0.0-13.0-0.34","match_key":"a","participant_id":"COGS219_2020_29"},{"rt":null,"stimulus":"<p style=\"font-size: 48px;\">+</p>","key_press":null,"block":1,"trial_type":"html-keyboard-response","trial_index":189,"time_elapsed":3126723,"internal_node_id":"0.0-13.0-1.34","match_key":"a","participant_id":"COGS219_2020_29"},{"rt":539.8449999047443,"stimulus":"Images/motorcycle_cartoon.png","key_press":76,"stim_onset":1582842446362,"block":1,"match_type":"non-match","image_category":"motorcycle","sound_category":"train","audio_type":"sound","phase":"test","trial_type":"image-keyboard-response","trial_index":190,"time_elapsed":3127264,"internal_node_id":"0.0-13.0-2.34","match_key":"a","participant_id":"COGS219_2020_29","correct":true},{"rt":null,"stimulus":"Sounds/correct.wav","key_press":null,"block":1,"trial_type":"audio-keyboard-response","trial_index":191,"time_elapsed":3129281,"internal_node_id":"0.0-13.0-3.34","match_key":"a","participant_id":"COGS219_2020_29"},{"rt":null,"stimulus":"Sounds/gun_label.wav","key_press":null,"block":1,"trial_type":"audio-keyboard-response","trial_index":192,"time_elapsed":3129867,"internal_node_id":"0.0-13.0-0.35","match_key":"a","participant_id":"COGS219_2020_29"},{"rt":null,"stimulus":"<p style=\"font-size: 48px;\">+</p>","key_press":null,"block":1,"trial_type":"html-keyboard-response","trial_index":193,"time_elapsed":3130856,"internal_node_id":"0.0-13.0-1.35","match_key":"a","participant_id":"COGS219_2020_29"},{"rt":470.2800000086427,"stimulus":"Images/motorcycle_2.png","key_press":76,"stim_onset":1582842450495,"block":1,"match_type":"non-match","image_category":"motorcycle","sound_category":"gun","audio_type":"label","phase":"test","trial_type":"image-keyboard-response","trial_index":194,"time_elapsed":3131329,"internal_node_id":"0.0-13.0-2.35","match_key":"a","participant_id":"COGS219_2020_29","correct":true},{"rt":null,"stimulus":"Sounds/correct.wav","key_press":null,"block":1,"trial_type":"audio-keyboard-response","trial_index":195,"time_elapsed":3133343,"internal_node_id":"0.0-13.0-3.35","match_key":"a","participant_id":"COGS219_2020_29"},{"rt":null,"stimulus":"Sounds/frog_sound.wav","key_press":null,"block":1,"trial_type":"audio-keyboard-response","trial_index":196,"time_elapsed":3134247,"internal_node_id":"0.0-13.0-0.36","match_key":"a","participant_id":"COGS219_2020_29"},{"rt":null,"stimulus":"<p style=\"font-size: 48px;\">+</p>","key_press":null,"block":1,"trial_type":"html-keyboard-response","trial_index":197,"time_elapsed":3135239,"internal_node_id":"0.0-13.0-1.36","match_key":"a","participant_id":"COGS219_2020_29"},{"rt":423.08500001672655,"stimulus":"Images/whistle_1.png","key_press":76,"stim_onset":1582842454879,"block":1,"match_type":"non-match","image_category":"whistle","sound_category":"frog","audio_type":"sound","phase":"test","trial_type":"image-keyboard-response","trial_index":198,"time_elapsed":3135663,"internal_node_id":"0.0-13.0-2.36","match_key":"a","participant_id":"COGS219_2020_29","correct":true},{"rt":null,"stimulus":"Sounds/correct.wav","key_press":null,"block":1,"trial_type":"audio-keyboard-response","trial_index":199,"time_elapsed":3137674,"internal_node_id":"0.0-13.0-3.36","match_key":"a","participant_id":"COGS219_2020_29"},{"rt":null,"stimulus":"Sounds/whistle_label.wav","key_press":null,"block":1,"trial_type":"audio-keyboard-response","trial_index":200,"time_elapsed":3138367,"internal_node_id":"0.0-13.0-0.37","match_key":"a","participant_id":"COGS219_2020_29"},{"rt":null,"stimulus":"<p style=\"font-size: 48px;\">+</p>","key_press":null,"block":1,"trial_type":"html-keyboard-response","trial_index":201,"time_elapsed":3139356,"internal_node_id":"0.0-13.0-1.37","match_key":"a","participant_id":"COGS219_2020_29"},{"rt":594.5449999999255,"stimulus":"Images/whistle_3.png","key_press":65,"stim_onset":1582842458995,"block":1,"match_type":"match","image_category":"whistle","sound_category":"whistle","audio_type":"label","phase":"test","trial_type":"image-keyboard-response","trial_index":202,"time_elapsed":3139952,"internal_node_id":"0.0-13.0-2.37","match_key":"a","participant_id":"COGS219_2020_29","correct":true},{"rt":null,"stimulus":"Sounds/correct.wav","key_press":null,"block":1,"trial_type":"audio-keyboard-response","trial_index":203,"time_elapsed":3141961,"internal_node_id":"0.0-13.0-3.37","match_key":"a","participant_id":"COGS219_2020_29"},{"rt":null,"stimulus":"Sounds/rooster_label.wav","key_press":null,"block":1,"trial_type":"audio-keyboard-response","trial_index":204,"time_elapsed":3142647,"internal_node_id":"0.0-13.0-0.38","match_key":"a","participant_id":"COGS219_2020_29"},{"rt":null,"stimulus":"<p style=\"font-size: 48px;\">+</p>","key_press":null,"block":1,"trial_type":"html-keyboard-response","trial_index":205,"time_elapsed":3143639,"internal_node_id":"0.0-13.0-1.38","match_key":"a","participant_id":"COGS219_2020_29"},{"rt":398.76999997068197,"stimulus":"Images/rooster_cartoon.png","key_press":65,"stim_onset":1582842463279,"block":1,"match_type":"match","image_category":"rooster","sound_category":"rooster","audio_type":"label","phase":"test","trial_type":"image-keyboard-response","trial_index":206,"time_elapsed":3144039,"internal_node_id":"0.0-13.0-2.38","match_key":"a","participant_id":"COGS219_2020_29","correct":true},{"rt":null,"stimulus":"Sounds/correct.wav","key_press":null,"block":1,"trial_type":"audio-keyboard-response","trial_index":207,"time_elapsed":3146042,"internal_node_id":"0.0-13.0-3.38","match_key":"a","participant_id":"COGS219_2020_29"},{"rt":null,"stimulus":"Sounds/whistle_sound.wav","key_press":null,"block":1,"trial_type":"audio-keyboard-response","trial_index":208,"time_elapsed":3146747,"internal_node_id":"0.0-13.0-0.39","match_key":"a","participant_id":"COGS219_2020_29"},{"rt":null,"stimulus":"<p style=\"font-size: 48px;\">+</p>","key_press":null,"block":1,"trial_type":"html-keyboard-response","trial_index":209,"time_elapsed":3147739,"internal_node_id":"0.0-13.0-1.39","match_key":"a","participant_id":"COGS219_2020_29"},{"rt":458.95000000018626,"stimulus":"Images/whistle_2.png","key_press":65,"stim_onset":1582842467379,"block":1,"match_type":"match","image_category":"whistle","sound_category":"whistle","audio_type":"sound","phase":"test","trial_type":"image-keyboard-response","trial_index":210,"time_elapsed":3148199,"internal_node_id":"0.0-13.0-2.39","match_key":"a","participant_id":"COGS219_2020_29","correct":true},{"rt":null,"stimulus":"Sounds/correct.wav","key_press":null,"block":1,"trial_type":"audio-keyboard-response","trial_index":211,"time_elapsed":3150204,"internal_node_id":"0.0-13.0-3.39","match_key":"a","participant_id":"COGS219_2020_29"},{"rt":null,"stimulus":"Sounds/cat_sound.wav","key_press":null,"block":1,"trial_type":"audio-keyboard-response","trial_index":212,"time_elapsed":3151047,"internal_node_id":"0.0-13.0-0.40","match_key":"a","participant_id":"COGS219_2020_29"},{"rt":null,"stimulus":"<p style=\"font-size: 48px;\">+</p>","key_press":null,"block":1,"trial_type":"html-keyboard-response","trial_index":213,"time_elapsed":3152039,"internal_node_id":"0.0-13.0-1.40","match_key":"a","participant_id":"COGS219_2020_29"},{"rt":527.1799999754876,"stimulus":"Images/whistle_orig.png","key_press":76,"stim_onset":1582842471679,"block":1,"match_type":"non-match","image_category":"whistle","sound_category":"cat","audio_type":"sound","phase":"test","trial_type":"image-keyboard-response","trial_index":214,"time_elapsed":3152568,"internal_node_id":"0.0-13.0-2.40","match_key":"a","participant_id":"COGS219_2020_29","correct":true},{"rt":null,"stimulus":"Sounds/correct.wav","key_press":null,"block":1,"trial_type":"audio-keyboard-response","trial_index":215,"time_elapsed":3154581,"internal_node_id":"0.0-13.0-3.40","match_key":"a","participant_id":"COGS219_2020_29"},{"rt":null,"stimulus":"Sounds/car_label.wav","key_press":null,"block":1,"trial_type":"audio-keyboard-response","trial_index":216,"time_elapsed":3155667,"internal_node_id":"0.0-13.0-0.41","match_key":"a","participant_id":"COGS219_2020_29"},{"rt":null,"stimulus":"<p style=\"font-size: 48px;\">+</p>","key_press":null,"block":1,"trial_type":"html-keyboard-response","trial_index":217,"time_elapsed":3156656,"internal_node_id":"0.0-13.0-1.41","match_key":"a","participant_id":"COGS219_2020_29"},{"rt":430.1700000651181,"stimulus":"Images/gun_orig.png","key_press":76,"stim_onset":1582842476296,"block":1,"match_type":"non-match","image_category":"gun","sound_category":"car","audio_type":"label","phase":"test","trial_type":"image-keyboard-response","trial_index":218,"time_elapsed":3157087,"internal_node_id":"0.0-13.0-2.41","match_key":"a","participant_id":"COGS219_2020_29","correct":true},{"rt":null,"stimulus":"Sounds/correct.wav","key_press":null,"block":1,"trial_type":"audio-keyboard-response","trial_index":219,"time_elapsed":3159105,"internal_node_id":"0.0-13.0-3.41","match_key":"a","participant_id":"COGS219_2020_29"},{"rt":null,"stimulus":"Sounds/whistle_sound.wav","key_press":null,"block":1,"trial_type":"audio-keyboard-response","trial_index":220,"time_elapsed":3159787,"internal_node_id":"0.0-13.0-0.42","match_key":"a","participant_id":"COGS219_2020_29"},{"rt":null,"stimulus":"<p style=\"font-size: 48px;\">+</p>","key_press":null,"block":1,"trial_type":"html-keyboard-response","trial_index":221,"time_elapsed":3160789,"internal_node_id":"0.0-13.0-1.42","match_key":"a","participant_id":"COGS219_2020_29"},{"rt":408.77500001806766,"stimulus":"Images/frog_2.png","key_press":76,"stim_onset":1582842480429,"block":1,"match_type":"non-match","image_category":"frog","sound_category":"whistle","audio_type":"sound","phase":"test","trial_type":"image-keyboard-response","trial_index":222,"time_elapsed":3161199,"internal_node_id":"0.0-13.0-2.42","match_key":"a","participant_id":"COGS219_2020_29","correct":true},{"rt":null,"stimulus":"Sounds/correct.wav","key_press":null,"block":1,"trial_type":"audio-keyboard-response","trial_index":223,"time_elapsed":3163207,"internal_node_id":"0.0-13.0-3.42","match_key":"a","participant_id":"COGS219_2020_29"},{"rt":null,"stimulus":"Sounds/car_sound.wav","key_press":null,"block":1,"trial_type":"audio-keyboard-response","trial_index":224,"time_elapsed":3164287,"internal_node_id":"0.0-13.0-0.43","match_key":"a","participant_id":"COGS219_2020_29"},{"rt":null,"stimulus":"<p style=\"font-size: 48px;\">+</p>","key_press":null,"block":1,"trial_type":"html-keyboard-response","trial_index":225,"time_elapsed":3165290,"internal_node_id":"0.0-13.0-1.43","match_key":"a","participant_id":"COGS219_2020_29"},{"rt":444.7449999861419,"stimulus":"Images/cow_2.png","key_press":76,"stim_onset":1582842484929,"block":1,"match_type":"non-match","image_category":"cow","sound_category":"car","audio_type":"sound","phase":"test","trial_type":"image-keyboard-response","trial_index":226,"time_elapsed":3165736,"internal_node_id":"0.0-13.0-2.43","match_key":"a","participant_id":"COGS219_2020_29","correct":true},{"rt":null,"stimulus":"Sounds/correct.wav","key_press":null,"block":1,"trial_type":"audio-keyboard-response","trial_index":227,"time_elapsed":3167753,"internal_node_id":"0.0-13.0-3.43","match_key":"a","participant_id":"COGS219_2020_29"},{"rt":null,"stimulus":"Sounds/cat_sound.wav","key_press":null,"block":1,"trial_type":"audio-keyboard-response","trial_index":228,"time_elapsed":3168567,"internal_node_id":"0.0-13.0-0.44","match_key":"a","participant_id":"COGS219_2020_29"},{"rt":null,"stimulus":"<p style=\"font-size: 48px;\">+</p>","key_press":null,"block":1,"trial_type":"html-keyboard-response","trial_index":229,"time_elapsed":3169556,"internal_node_id":"0.0-13.0-1.44","match_key":"a","participant_id":"COGS219_2020_29"},{"rt":393.9300000201911,"stimulus":"Images/cow_1.png","key_press":76,"stim_onset":1582842489196,"block":1,"match_type":"non-match","image_category":"cow","sound_category":"cat","audio_type":"sound","phase":"test","trial_type":"image-keyboard-response","trial_index":230,"time_elapsed":3169951,"internal_node_id":"0.0-13.0-2.44","match_key":"a","participant_id":"COGS219_2020_29","correct":true},{"rt":null,"stimulus":"Sounds/correct.wav","key_press":null,"block":1,"trial_type":"audio-keyboard-response","trial_index":231,"time_elapsed":3171959,"internal_node_id":"0.0-13.0-3.44","match_key":"a","participant_id":"COGS219_2020_29"},{"rt":null,"stimulus":"Sounds/frog_label.wav","key_press":null,"block":1,"trial_type":"audio-keyboard-response","trial_index":232,"time_elapsed":3172847,"internal_node_id":"0.0-13.0-0.45","match_key":"a","participant_id":"COGS219_2020_29"},{"rt":null,"stimulus":"<p style=\"font-size: 48px;\">+</p>","key_press":null,"block":1,"trial_type":"html-keyboard-response","trial_index":233,"time_elapsed":3173840,"internal_node_id":"0.0-13.0-1.45","match_key":"a","participant_id":"COGS219_2020_29"},{"rt":390.625,"stimulus":"Images/frog_3.png","key_press":65,"stim_onset":1582842493479,"block":1,"match_type":"match","image_category":"frog","sound_category":"frog","audio_type":"label","phase":"test","trial_type":"image-keyboard-response","trial_index":234,"time_elapsed":3174231,"internal_node_id":"0.0-13.0-2.45","match_key":"a","participant_id":"COGS219_2020_29","correct":true},{"rt":null,"stimulus":"Sounds/correct.wav","key_press":null,"block":1,"trial_type":"audio-keyboard-response","trial_index":235,"time_elapsed":3176242,"internal_node_id":"0.0-13.0-3.45","match_key":"a","participant_id":"COGS219_2020_29"},{"rt":null,"stimulus":"Sounds/gun_sound.wav","key_press":null,"block":1,"trial_type":"audio-keyboard-response","trial_index":236,"time_elapsed":3176827,"internal_node_id":"0.0-13.0-0.46","match_key":"a","participant_id":"COGS219_2020_29"},{"rt":null,"stimulus":"<p style=\"font-size: 48px;\">+</p>","key_press":null,"block":1,"trial_type":"html-keyboard-response","trial_index":237,"time_elapsed":3177823,"internal_node_id":"0.0-13.0-1.46","match_key":"a","participant_id":"COGS219_2020_29"},{"rt":439.43000002764165,"stimulus":"Images/frog_cartoon.png","key_press":76,"stim_onset":1582842497462,"block":1,"match_type":"non-match","image_category":"frog","sound_category":"gun","audio_type":"sound","phase":"test","trial_type":"image-keyboard-response","trial_index":238,"time_elapsed":3178263,"internal_node_id":"0.0-13.0-2.46","match_key":"a","participant_id":"COGS219_2020_29","correct":true},{"rt":null,"stimulus":"Sounds/correct.wav","key_press":null,"block":1,"trial_type":"audio-keyboard-response","trial_index":239,"time_elapsed":3180273,"internal_node_id":"0.0-13.0-3.46","match_key":"a","participant_id":"COGS219_2020_29"},{"rt":null,"stimulus":"Sounds/rooster_sound.wav","key_press":null,"block":1,"trial_type":"audio-keyboard-response","trial_index":240,"time_elapsed":3180967,"internal_node_id":"0.0-13.0-0.47","match_key":"a","participant_id":"COGS219_2020_29"},{"rt":null,"stimulus":"<p style=\"font-size: 48px;\">+</p>","key_press":null,"block":1,"trial_type":"html-keyboard-response","trial_index":241,"time_elapsed":3181956,"internal_node_id":"0.0-13.0-1.47","match_key":"a","participant_id":"COGS219_2020_29"},{"rt":481.8149999482557,"stimulus":"Images/train_2.png","key_press":76,"stim_onset":1582842501596,"block":1,"match_type":"non-match","image_category":"train","sound_category":"rooster","audio_type":"sound","phase":"test","trial_type":"image-keyboard-response","trial_index":242,"time_elapsed":3182439,"internal_node_id":"0.0-13.0-2.47","match_key":"a","participant_id":"COGS219_2020_29","correct":true},{"rt":null,"stimulus":"Sounds/correct.wav","key_press":null,"block":1,"trial_type":"audio-keyboard-response","trial_index":243,"time_elapsed":3184451,"internal_node_id":"0.0-13.0-3.47","match_key":"a","participant_id":"COGS219_2020_29"},{"rt":null,"stimulus":"Sounds/frog_sound.wav","key_press":null,"block":1,"trial_type":"audio-keyboard-response","trial_index":244,"time_elapsed":3185366,"internal_node_id":"0.0-13.0-0.48","match_key":"a","participant_id":"COGS219_2020_29"},{"rt":null,"stimulus":"<p style=\"font-size: 48px;\">+</p>","key_press":null,"block":1,"trial_type":"html-keyboard-response","trial_index":245,"time_elapsed":3186356,"internal_node_id":"0.0-13.0-1.48","match_key":"a","participant_id":"COGS219_2020_29"},{"rt":601.825000019744,"stimulus":"Images/frog_cartoon.png","key_press":65,"stim_onset":1582842505996,"block":1,"match_type":"match","image_category":"frog","sound_category":"frog","audio_type":"sound","phase":"test","trial_type":"image-keyboard-response","trial_index":246,"time_elapsed":3186960,"internal_node_id":"0.0-13.0-2.48","match_key":"a","participant_id":"COGS219_2020_29","correct":true},{"rt":null,"stimulus":"Sounds/correct.wav","key_press":null,"block":1,"trial_type":"audio-keyboard-response","trial_index":247,"time_elapsed":3188974,"internal_node_id":"0.0-13.0-3.48","match_key":"a","participant_id":"COGS219_2020_29"},{"rt":null,"stimulus":"Sounds/whistle_label.wav","key_press":null,"block":1,"trial_type":"audio-keyboard-response","trial_index":248,"time_elapsed":3189667,"internal_node_id":"0.0-13.0-0.49","match_key":"a","participant_id":"COGS219_2020_29"},{"rt":null,"stimulus":"<p style=\"font-size: 48px;\">+</p>","key_press":null,"block":1,"trial_type":"html-keyboard-response","trial_index":249,"time_elapsed":3190656,"internal_node_id":"0.0-13.0-1.49","match_key":"a","participant_id":"COGS219_2020_29"},{"rt":462.0100000174716,"stimulus":"Images/whistle_orig.png","key_press":65,"stim_onset":1582842510296,"block":1,"match_type":"match","image_category":"whistle","sound_category":"whistle","audio_type":"label","phase":"test","trial_type":"image-keyboard-response","trial_index":250,"time_elapsed":3191120,"internal_node_id":"0.0-13.0-2.49","match_key":"a","participant_id":"COGS219_2020_29","correct":true},{"rt":null,"stimulus":"Sounds/correct.wav","key_press":null,"block":1,"trial_type":"audio-keyboard-response","trial_index":251,"time_elapsed":3193137,"internal_node_id":"0.0-13.0-3.49","match_key":"a","participant_id":"COGS219_2020_29"},{"rt":null,"stimulus":"Sounds/car_label.wav","key_press":null,"block":1,"trial_type":"audio-keyboard-response","trial_index":252,"time_elapsed":3194207,"internal_node_id":"0.0-13.0-0.50","match_key":"a","participant_id":"COGS219_2020_29"},{"rt":null,"stimulus":"<p style=\"font-size: 48px;\">+</p>","key_press":null,"block":1,"trial_type":"html-keyboard-response","trial_index":253,"time_elapsed":3195206,"internal_node_id":"0.0-13.0-1.50","match_key":"a","participant_id":"COGS219_2020_29"},{"rt":455.8800000231713,"stimulus":"Images/cat_cartoon.png","key_press":76,"stim_onset":1582842514846,"block":1,"match_type":"non-match","image_category":"cat","sound_category":"car","audio_type":"label","phase":"test","trial_type":"image-keyboard-response","trial_index":254,"time_elapsed":3195663,"internal_node_id":"0.0-13.0-2.50","match_key":"a","participant_id":"COGS219_2020_29","correct":true},{"rt":null,"stimulus":"Sounds/correct.wav","key_press":null,"block":1,"trial_type":"audio-keyboard-response","trial_index":255,"time_elapsed":3197671,"internal_node_id":"0.0-13.0-3.50","match_key":"a","participant_id":"COGS219_2020_29"},{"rt":null,"stimulus":"Sounds/cat_sound.wav","key_press":null,"block":1,"trial_type":"audio-keyboard-response","trial_index":256,"time_elapsed":3198507,"internal_node_id":"0.0-13.0-0.51","match_key":"a","participant_id":"COGS219_2020_29"},{"rt":null,"stimulus":"<p style=\"font-size: 48px;\">+</p>","key_press":null,"block":1,"trial_type":"html-keyboard-response","trial_index":257,"time_elapsed":3199507,"internal_node_id":"0.0-13.0-1.51","match_key":"a","participant_id":"COGS219_2020_29"},{"rt":523.7249999772757,"stimulus":"Images/dog_2.png","key_press":76,"stim_onset":1582842519146,"block":1,"match_type":"non-match","image_category":"dog","sound_category":"cat","audio_type":"sound","phase":"test","trial_type":"image-keyboard-response","trial_index":258,"time_elapsed":3200031,"internal_node_id":"0.0-13.0-2.51","match_key":"a","participant_id":"COGS219_2020_29","correct":true},{"rt":null,"stimulus":"Sounds/correct.wav","key_press":null,"block":1,"trial_type":"audio-keyboard-response","trial_index":259,"time_elapsed":3202049,"internal_node_id":"0.0-13.0-3.51","match_key":"a","participant_id":"COGS219_2020_29"},{"rt":null,"stimulus":"Sounds/frog_label.wav","key_press":null,"block":1,"trial_type":"audio-keyboard-response","trial_index":260,"time_elapsed":3202947,"internal_node_id":"0.0-13.0-0.52","match_key":"a","participant_id":"COGS219_2020_29"},{"rt":null,"stimulus":"<p style=\"font-size: 48px;\">+</p>","key_press":null,"block":1,"trial_type":"html-keyboard-response","trial_index":261,"time_elapsed":3203940,"internal_node_id":"0.0-13.0-1.52","match_key":"a","participant_id":"COGS219_2020_29"},{"rt":370.5399999162182,"stimulus":"Images/frog_1.png","key_press":65,"stim_onset":1582842523579,"block":1,"match_type":"match","image_category":"frog","sound_category":"frog","audio_type":"label","phase":"test","trial_type":"image-keyboard-response","trial_index":262,"time_elapsed":3204312,"internal_node_id":"0.0-13.0-2.52","match_key":"a","participant_id":"COGS219_2020_29","correct":true},{"rt":null,"stimulus":"Sounds/correct.wav","key_press":null,"block":1,"trial_type":"audio-keyboard-response","trial_index":263,"time_elapsed":3206328,"internal_node_id":"0.0-13.0-3.52","match_key":"a","participant_id":"COGS219_2020_29"},{"rt":null,"stimulus":"Sounds/dog_label.wav","key_press":null,"block":1,"trial_type":"audio-keyboard-response","trial_index":264,"time_elapsed":3206986,"internal_node_id":"0.0-13.0-0.53","match_key":"a","participant_id":"COGS219_2020_29"},{"rt":null,"stimulus":"<p style=\"font-size: 48px;\">+</p>","key_press":null,"block":1,"trial_type":"html-keyboard-response","trial_index":265,"time_elapsed":3207990,"internal_node_id":"0.0-13.0-1.53","match_key":"a","participant_id":"COGS219_2020_29"},{"rt":408.3099999697879,"stimulus":"Images/train_1.png","key_press":76,"stim_onset":1582842527629,"block":1,"match_type":"non-match","image_category":"train","sound_category":"dog","audio_type":"label","phase":"test","trial_type":"image-keyboard-response","trial_index":266,"time_elapsed":3208399,"internal_node_id":"0.0-13.0-2.53","match_key":"a","participant_id":"COGS219_2020_29","correct":true},{"rt":null,"stimulus":"Sounds/correct.wav","key_press":null,"block":1,"trial_type":"audio-keyboard-response","trial_index":267,"time_elapsed":3210407,"internal_node_id":"0.0-13.0-3.53","match_key":"a","participant_id":"COGS219_2020_29"},{"rt":null,"stimulus":"Sounds/rooster_sound.wav","key_press":null,"block":1,"trial_type":"audio-keyboard-response","trial_index":268,"time_elapsed":3211106,"internal_node_id":"0.0-13.0-0.54","match_key":"a","participant_id":"COGS219_2020_29"},{"rt":null,"stimulus":"<p style=\"font-size: 48px;\">+</p>","key_press":null,"block":1,"trial_type":"html-keyboard-response","trial_index":269,"time_elapsed":3212107,"internal_node_id":"0.0-13.0-1.54","match_key":"a","participant_id":"COGS219_2020_29"},{"rt":459.1350000118837,"stimulus":"Images/rooster_3.png","key_press":65,"stim_onset":1582842531746,"block":1,"match_type":"match","image_category":"rooster","sound_category":"rooster","audio_type":"sound","phase":"test","trial_type":"image-keyboard-response","trial_index":270,"time_elapsed":3212567,"internal_node_id":"0.0-13.0-2.54","match_key":"a","participant_id":"COGS219_2020_29","correct":true},{"rt":null,"stimulus":"Sounds/correct.wav","key_press":null,"block":1,"trial_type":"audio-keyboard-response","trial_index":271,"time_elapsed":3214572,"internal_node_id":"0.0-13.0-3.54","match_key":"a","participant_id":"COGS219_2020_29"},{"rt":null,"stimulus":"Sounds/rooster_label.wav","key_press":null,"block":1,"trial_type":"audio-keyboard-response","trial_index":272,"time_elapsed":3215266,"internal_node_id":"0.0-13.0-0.55","match_key":"a","participant_id":"COGS219_2020_29"},{"rt":null,"stimulus":"<p style=\"font-size: 48px;\">+</p>","key_press":null,"block":1,"trial_type":"html-keyboard-response","trial_index":273,"time_elapsed":3216257,"internal_node_id":"0.0-13.0-1.55","match_key":"a","participant_id":"COGS219_2020_29"},{"rt":437.67999997362494,"stimulus":"Images/rooster_1.png","key_press":65,"stim_onset":1582842535896,"block":1,"match_type":"match","image_category":"rooster","sound_category":"rooster","audio_type":"label","phase":"test","trial_type":"image-keyboard-response","trial_index":274,"time_elapsed":3216695,"internal_node_id":"0.0-13.0-2.55","match_key":"a","participant_id":"COGS219_2020_29","correct":true},{"rt":null,"stimulus":"Sounds/correct.wav","key_press":null,"block":1,"trial_type":"audio-keyboard-response","trial_index":275,"time_elapsed":3218706,"internal_node_id":"0.0-13.0-3.55","match_key":"a","participant_id":"COGS219_2020_29"},{"rt":null,"stimulus":"Sounds/frog_label.wav","key_press":null,"block":1,"trial_type":"audio-keyboard-response","trial_index":276,"time_elapsed":3219586,"internal_node_id":"0.0-13.0-0.56","match_key":"a","participant_id":"COGS219_2020_29"},{"rt":null,"stimulus":"<p style=\"font-size: 48px;\">+</p>","key_press":null,"block":1,"trial_type":"html-keyboard-response","trial_index":277,"time_elapsed":3220590,"internal_node_id":"0.0-13.0-1.56","match_key":"a","participant_id":"COGS219_2020_29"},{"rt":568.3100000023842,"stimulus":"Images/train_orig.png","key_press":76,"stim_onset":1582842540229,"block":1,"match_type":"non-match","image_category":"train","sound_category":"frog","audio_type":"label","phase":"test","trial_type":"image-keyboard-response","trial_index":278,"time_elapsed":3221159,"internal_node_id":"0.0-13.0-2.56","match_key":"a","participant_id":"COGS219_2020_29","correct":true},{"rt":null,"stimulus":"Sounds/correct.wav","key_press":null,"block":1,"trial_type":"audio-keyboard-response","trial_index":279,"time_elapsed":3223163,"internal_node_id":"0.0-13.0-3.56","match_key":"a","participant_id":"COGS219_2020_29"},{"rt":null,"stimulus":"Sounds/cow_sound.wav","key_press":null,"block":1,"trial_type":"audio-keyboard-response","trial_index":280,"time_elapsed":3224186,"internal_node_id":"0.0-13.0-0.57","match_key":"a","participant_id":"COGS219_2020_29"},{"rt":null,"stimulus":"<p style=\"font-size: 48px;\">+</p>","key_press":null,"block":1,"trial_type":"html-keyboard-response","trial_index":281,"time_elapsed":3225190,"internal_node_id":"0.0-13.0-1.57","match_key":"a","participant_id":"COGS219_2020_29"},{"rt":424.18999993242323,"stimulus":"Images/cow_2.png","key_press":65,"stim_onset":1582842544829,"block":1,"match_type":"match","image_category":"cow","sound_category":"cow","audio_type":"sound","phase":"test","trial_type":"image-keyboard-response","trial_index":282,"time_elapsed":3225615,"internal_node_id":"0.0-13.0-2.57","match_key":"a","participant_id":"COGS219_2020_29","correct":true},{"rt":null,"stimulus":"Sounds/correct.wav","key_press":null,"block":1,"trial_type":"audio-keyboard-response","trial_index":283,"time_elapsed":3227623,"internal_node_id":"0.0-13.0-3.57","match_key":"a","participant_id":"COGS219_2020_29"},{"rt":null,"stimulus":"Sounds/gun_label.wav","key_press":null,"block":1,"trial_type":"audio-keyboard-response","trial_index":284,"time_elapsed":3228206,"internal_node_id":"0.0-13.0-0.58","match_key":"a","participant_id":"COGS219_2020_29"},{"rt":null,"stimulus":"<p style=\"font-size: 48px;\">+</p>","key_press":null,"block":1,"trial_type":"html-keyboard-response","trial_index":285,"time_elapsed":3229207,"internal_node_id":"0.0-13.0-1.58","match_key":"a","participant_id":"COGS219_2020_29"},{"rt":543.6650000046939,"stimulus":"Images/gun_2.png","key_press":65,"stim_onset":1582842548846,"block":1,"match_type":"match","image_category":"gun","sound_category":"gun","audio_type":"label","phase":"test","trial_type":"image-keyboard-response","trial_index":286,"time_elapsed":3229751,"internal_node_id":"0.0-13.0-2.58","match_key":"a","participant_id":"COGS219_2020_29","correct":true},{"rt":null,"stimulus":"Sounds/correct.wav","key_press":null,"block":1,"trial_type":"audio-keyboard-response","trial_index":287,"time_elapsed":3231764,"internal_node_id":"0.0-13.0-3.58","match_key":"a","participant_id":"COGS219_2020_29"},{"rt":null,"stimulus":"Sounds/cow_sound.wav","key_press":null,"block":1,"trial_type":"audio-keyboard-response","trial_index":288,"time_elapsed":3232746,"internal_node_id":"0.0-13.0-0.59","match_key":"a","participant_id":"COGS219_2020_29"},{"rt":null,"stimulus":"<p style=\"font-size: 48px;\">+</p>","key_press":null,"block":1,"trial_type":"html-keyboard-response","trial_index":289,"time_elapsed":3233740,"internal_node_id":"0.0-13.0-1.59","match_key":"a","participant_id":"COGS219_2020_29"},{"rt":401.9799999659881,"stimulus":"Images/gun_3.png","key_press":76,"stim_onset":1582842553379,"block":1,"match_type":"non-match","image_category":"gun","sound_category":"cow","audio_type":"sound","phase":"test","trial_type":"image-keyboard-response","trial_index":290,"time_elapsed":3234143,"internal_node_id":"0.0-13.0-2.59","match_key":"a","participant_id":"COGS219_2020_29","correct":true},{"rt":null,"stimulus":"Sounds/correct.wav","key_press":null,"block":1,"trial_type":"audio-keyboard-response","trial_index":291,"time_elapsed":3236147,"internal_node_id":"0.0-13.0-3.59","match_key":"a","participant_id":"COGS219_2020_29"},{"rt":null,"stimulus":"Sounds/cow_sound.wav","key_press":null,"block":1,"trial_type":"audio-keyboard-response","trial_index":292,"time_elapsed":3237146,"internal_node_id":"0.0-13.0-0.60","match_key":"a","participant_id":"COGS219_2020_29"},{"rt":null,"stimulus":"<p style=\"font-size: 48px;\">+</p>","key_press":null,"block":1,"trial_type":"html-keyboard-response","trial_index":293,"time_elapsed":3238140,"internal_node_id":"0.0-13.0-1.60","match_key":"a","participant_id":"COGS219_2020_29"},{"rt":482.0149999577552,"stimulus":"Images/cow_orig.png","key_press":65,"stim_onset":1582842557779,"block":1,"match_type":"match","image_category":"cow","sound_category":"cow","audio_type":"sound","phase":"test","trial_type":"image-keyboard-response","trial_index":294,"time_elapsed":3238623,"internal_node_id":"0.0-13.0-2.60","match_key":"a","participant_id":"COGS219_2020_29","correct":true},{"rt":null,"stimulus":"Sounds/correct.wav","key_press":null,"block":1,"trial_type":"audio-keyboard-response","trial_index":295,"time_elapsed":3240636,"internal_node_id":"0.0-13.0-3.60","match_key":"a","participant_id":"COGS219_2020_29"},{"rt":null,"stimulus":"Sounds/cow_label.wav","key_press":null,"block":1,"trial_type":"audio-keyboard-response","trial_index":296,"time_elapsed":3241646,"internal_node_id":"0.0-13.0-0.61","match_key":"a","participant_id":"COGS219_2020_29"},{"rt":null,"stimulus":"<p style=\"font-size: 48px;\">+</p>","key_press":null,"block":1,"trial_type":"html-keyboard-response","trial_index":297,"time_elapsed":3242640,"internal_node_id":"0.0-13.0-1.61","match_key":"a","participant_id":"COGS219_2020_29"},{"rt":534.2050000326708,"stimulus":"Images/cow_cartoon.png","key_press":65,"stim_onset":1582842562279,"block":1,"match_type":"match","image_category":"cow","sound_category":"cow","audio_type":"label","phase":"test","trial_type":"image-keyboard-response","trial_index":298,"time_elapsed":3243176,"internal_node_id":"0.0-13.0-2.61","match_key":"a","participant_id":"COGS219_2020_29","correct":true},{"rt":null,"stimulus":"Sounds/correct.wav","key_press":null,"block":1,"trial_type":"audio-keyboard-response","trial_index":299,"time_elapsed":3245182,"internal_node_id":"0.0-13.0-3.61","match_key":"a","participant_id":"COGS219_2020_29"},{"rt":null,"stimulus":"Sounds/gun_label.wav","key_press":null,"block":1,"trial_type":"audio-keyboard-response","trial_index":300,"time_elapsed":3245746,"internal_node_id":"0.0-13.0-0.62","match_key":"a","participant_id":"COGS219_2020_29"},{"rt":null,"stimulus":"<p style=\"font-size: 48px;\">+</p>","key_press":null,"block":1,"trial_type":"html-keyboard-response","trial_index":301,"time_elapsed":3246740,"internal_node_id":"0.0-13.0-1.62","match_key":"a","participant_id":"COGS219_2020_29"},{"rt":618.030000012368,"stimulus":"Images/cow_orig.png","key_press":65,"stim_onset":1582842566380,"block":1,"match_type":"non-match","image_category":"cow","sound_category":"gun","audio_type":"label","phase":"test","trial_type":"image-keyboard-response","trial_index":302,"time_elapsed":3247359,"internal_node_id":"0.0-13.0-2.62","match_key":"a","participant_id":"COGS219_2020_29","correct":false},{"rt":null,"stimulus":"Sounds/incorrect.wav","key_press":null,"block":1,"trial_type":"audio-keyboard-response","trial_index":303,"time_elapsed":3249376,"internal_node_id":"0.0-13.0-3.62","match_key":"a","participant_id":"COGS219_2020_29"},{"rt":null,"stimulus":"Sounds/train_sound.wav","key_press":null,"block":1,"trial_type":"audio-keyboard-response","trial_index":304,"time_elapsed":3250666,"internal_node_id":"0.0-13.0-0.63","match_key":"a","participant_id":"COGS219_2020_29"},{"rt":null,"stimulus":"<p style=\"font-size: 48px;\">+</p>","key_press":null,"block":1,"trial_type":"html-keyboard-response","trial_index":305,"time_elapsed":3251657,"internal_node_id":"0.0-13.0-1.63","match_key":"a","participant_id":"COGS219_2020_29"},{"rt":469.21500004827976,"stimulus":"Images/train_1.png","key_press":65,"stim_onset":1582842571296,"block":1,"match_type":"match","image_category":"train","sound_category":"train","audio_type":"sound","phase":"test","trial_type":"image-keyboard-response","trial_index":306,"time_elapsed":3252127,"internal_node_id":"0.0-13.0-2.63","match_key":"a","participant_id":"COGS219_2020_29","correct":true},{"rt":null,"stimulus":"Sounds/correct.wav","key_press":null,"block":1,"trial_type":"audio-keyboard-response","trial_index":307,"time_elapsed":3254137,"internal_node_id":"0.0-13.0-3.63","match_key":"a","participant_id":"COGS219_2020_29"},{"rt":null,"stimulus":"Sounds/rooster_sound.wav","key_press":null,"block":1,"trial_type":"audio-keyboard-response","trial_index":308,"time_elapsed":3254846,"internal_node_id":"0.0-13.0-0.64","match_key":"a","participant_id":"COGS219_2020_29"},{"rt":null,"stimulus":"<p style=\"font-size: 48px;\">+</p>","key_press":null,"block":1,"trial_type":"html-keyboard-response","trial_index":309,"time_elapsed":3255841,"internal_node_id":"0.0-13.0-1.64","match_key":"a","participant_id":"COGS219_2020_29"},{"rt":445.7399999955669,"stimulus":"Images/dog_orig.png","key_press":76,"stim_onset":1582842575479,"block":1,"match_type":"non-match","image_category":"dog","sound_category":"rooster","audio_type":"sound","phase":"test","trial_type":"image-keyboard-response","trial_index":310,"time_elapsed":3256287,"internal_node_id":"0.0-13.0-2.64","match_key":"a","participant_id":"COGS219_2020_29","correct":true},{"rt":null,"stimulus":"Sounds/correct.wav","key_press":null,"block":1,"trial_type":"audio-keyboard-response","trial_index":311,"time_elapsed":3258305,"internal_node_id":"0.0-13.0-3.64","match_key":"a","participant_id":"COGS219_2020_29"},{"rt":null,"stimulus":"Sounds/rooster_label.wav","key_press":null,"block":1,"trial_type":"audio-keyboard-response","trial_index":312,"time_elapsed":3259006,"internal_node_id":"0.0-13.0-0.65","match_key":"a","participant_id":"COGS219_2020_29"},{"rt":null,"stimulus":"<p style=\"font-size: 48px;\">+</p>","key_press":null,"block":1,"trial_type":"html-keyboard-response","trial_index":313,"time_elapsed":3260024,"internal_node_id":"0.0-13.0-1.65","match_key":"a","participant_id":"COGS219_2020_29"},{"rt":406.3399999868125,"stimulus":"Images/car_3.png","key_press":76,"stim_onset":1582842579663,"block":1,"match_type":"non-match","image_category":"car","sound_category":"rooster","audio_type":"label","phase":"test","trial_type":"image-keyboard-response","trial_index":314,"time_elapsed":3260431,"internal_node_id":"0.0-13.0-2.65","match_key":"a","participant_id":"COGS219_2020_29","correct":true},{"rt":null,"stimulus":"Sounds/correct.wav","key_press":null,"block":1,"trial_type":"audio-keyboard-response","trial_index":315,"time_elapsed":3262440,"internal_node_id":"0.0-13.0-3.65","match_key":"a","participant_id":"COGS219_2020_29"},{"rt":null,"stimulus":"Sounds/gun_sound.wav","key_press":null,"block":1,"trial_type":"audio-keyboard-response","trial_index":316,"time_elapsed":3263026,"internal_node_id":"0.0-13.0-0.66","match_key":"a","participant_id":"COGS219_2020_29"},{"rt":null,"stimulus":"<p style=\"font-size: 48px;\">+</p>","key_press":null,"block":1,"trial_type":"html-keyboard-response","trial_index":317,"time_elapsed":3264024,"internal_node_id":"0.0-13.0-1.66","match_key":"a","participant_id":"COGS219_2020_29"},{"rt":493.61499992664903,"stimulus":"Images/gun_3.png","key_press":65,"stim_onset":1582842583663,"block":1,"match_type":"match","image_category":"gun","sound_category":"gun","audio_type":"sound","phase":"test","trial_type":"image-keyboard-response","trial_index":318,"time_elapsed":3264519,"internal_node_id":"0.0-13.0-2.66","match_key":"a","participant_id":"COGS219_2020_29","correct":true},{"rt":null,"stimulus":"Sounds/correct.wav","key_press":null,"block":1,"trial_type":"audio-keyboard-response","trial_index":319,"time_elapsed":3266533,"internal_node_id":"0.0-13.0-3.66","match_key":"a","participant_id":"COGS219_2020_29"},{"rt":null,"stimulus":"Sounds/cat_label.wav","key_press":null,"block":1,"trial_type":"audio-keyboard-response","trial_index":320,"time_elapsed":3267366,"internal_node_id":"0.0-13.0-0.67","match_key":"a","participant_id":"COGS219_2020_29"},{"rt":null,"stimulus":"<p style=\"font-size: 48px;\">+</p>","key_press":null,"block":1,"trial_type":"html-keyboard-response","trial_index":321,"time_elapsed":3268357,"internal_node_id":"0.0-13.0-1.67","match_key":"a","participant_id":"COGS219_2020_29"},{"rt":584.6499999752268,"stimulus":"Images/cat_3.png","key_press":65,"stim_onset":1582842587996,"block":1,"match_type":"match","image_category":"cat","sound_category":"cat","audio_type":"label","phase":"test","trial_type":"image-keyboard-response","trial_index":322,"time_elapsed":3268943,"internal_node_id":"0.0-13.0-2.67","match_key":"a","participant_id":"COGS219_2020_29","correct":true},{"rt":null,"stimulus":"Sounds/correct.wav","key_press":null,"block":1,"trial_type":"audio-keyboard-response","trial_index":323,"time_elapsed":3270961,"internal_node_id":"0.0-13.0-3.67","match_key":"a","participant_id":"COGS219_2020_29"},{"rt":null,"stimulus":"Sounds/whistle_sound.wav","key_press":null,"block":1,"trial_type":"audio-keyboard-response","trial_index":324,"time_elapsed":3271666,"internal_node_id":"0.0-13.0-0.68","match_key":"a","participant_id":"COGS219_2020_29"},{"rt":null,"stimulus":"<p style=\"font-size: 48px;\">+</p>","key_press":null,"block":1,"trial_type":"html-keyboard-response","trial_index":325,"time_elapsed":3272674,"internal_node_id":"0.0-13.0-1.68","match_key":"a","participant_id":"COGS219_2020_29"},{"rt":516.3750000065193,"stimulus":"Images/dog_3.png","key_press":76,"stim_onset":1582842592313,"block":1,"match_type":"non-match","image_category":"dog","sound_category":"whistle","audio_type":"sound","phase":"test","trial_type":"image-keyboard-response","trial_index":326,"time_elapsed":3273191,"internal_node_id":"0.0-13.0-2.68","match_key":"a","participant_id":"COGS219_2020_29","correct":true},{"rt":null,"stimulus":"Sounds/correct.wav","key_press":null,"block":1,"trial_type":"audio-keyboard-response","trial_index":327,"time_elapsed":3275198,"internal_node_id":"0.0-13.0-3.68","match_key":"a","participant_id":"COGS219_2020_29"},{"rt":null,"stimulus":"Sounds/frog_label.wav","key_press":null,"block":1,"trial_type":"audio-keyboard-response","trial_index":328,"time_elapsed":3276106,"internal_node_id":"0.0-13.0-0.69","match_key":"a","participant_id":"COGS219_2020_29"},{"rt":null,"stimulus":"<p style=\"font-size: 48px;\">+</p>","key_press":null,"block":1,"trial_type":"html-keyboard-response","trial_index":329,"time_elapsed":3277124,"internal_node_id":"0.0-13.0-1.69","match_key":"a","participant_id":"COGS219_2020_29"},{"rt":458.1849999958649,"stimulus":"Images/cat_orig.png","key_press":76,"stim_onset":1582842596763,"block":1,"match_type":"non-match","image_category":"cat","sound_category":"frog","audio_type":"label","phase":"test","trial_type":"image-keyboard-response","trial_index":330,"time_elapsed":3277583,"internal_node_id":"0.0-13.0-2.69","match_key":"a","participant_id":"COGS219_2020_29","correct":true},{"rt":null,"stimulus":"Sounds/correct.wav","key_press":null,"block":1,"trial_type":"audio-keyboard-response","trial_index":331,"time_elapsed":3279586,"internal_node_id":"0.0-13.0-3.69","match_key":"a","participant_id":"COGS219_2020_29"},{"rt":null,"stimulus":"Sounds/train_sound.wav","key_press":null,"block":1,"trial_type":"audio-keyboard-response","trial_index":332,"time_elapsed":3280886,"internal_node_id":"0.0-13.0-0.70","match_key":"a","participant_id":"COGS219_2020_29"},{"rt":null,"stimulus":"<p style=\"font-size: 48px;\">+</p>","key_press":null,"block":1,"trial_type":"html-keyboard-response","trial_index":333,"time_elapsed":3281890,"internal_node_id":"0.0-13.0-1.70","match_key":"a","participant_id":"COGS219_2020_29"},{"rt":547.7849999442697,"stimulus":"Images/train_2.png","key_press":65,"stim_onset":1582842601530,"block":1,"match_type":"match","image_category":"train","sound_category":"train","audio_type":"sound","phase":"test","trial_type":"image-keyboard-response","trial_index":334,"time_elapsed":3282439,"internal_node_id":"0.0-13.0-2.70","match_key":"a","participant_id":"COGS219_2020_29","correct":true},{"rt":null,"stimulus":"Sounds/correct.wav","key_press":null,"block":1,"trial_type":"audio-keyboard-response","trial_index":335,"time_elapsed":3284447,"internal_node_id":"0.0-13.0-3.70","match_key":"a","participant_id":"COGS219_2020_29"},{"rt":null,"stimulus":"Sounds/gun_label.wav","key_press":null,"block":1,"trial_type":"audio-keyboard-response","trial_index":336,"time_elapsed":3285026,"internal_node_id":"0.0-13.0-0.71","match_key":"a","participant_id":"COGS219_2020_29"},{"rt":null,"stimulus":"<p style=\"font-size: 48px;\">+</p>","key_press":null,"block":1,"trial_type":"html-keyboard-response","trial_index":337,"time_elapsed":3286024,"internal_node_id":"0.0-13.0-1.71","match_key":"a","participant_id":"COGS219_2020_29"},{"rt":502.0500000100583,"stimulus":"Images/rooster_orig.png","key_press":76,"stim_onset":1582842605663,"block":1,"match_type":"non-match","image_category":"rooster","sound_category":"gun","audio_type":"label","phase":"test","trial_type":"image-keyboard-response","trial_index":338,"time_elapsed":3286527,"internal_node_id":"0.0-13.0-2.71","match_key":"a","participant_id":"COGS219_2020_29","correct":true},{"rt":null,"stimulus":"Sounds/correct.wav","key_press":null,"block":1,"trial_type":"audio-keyboard-response","trial_index":339,"time_elapsed":3288534,"internal_node_id":"0.0-13.0-3.71","match_key":"a","participant_id":"COGS219_2020_29"},{"rt":null,"stimulus":"Sounds/cat_label.wav","key_press":null,"block":1,"trial_type":"audio-keyboard-response","trial_index":340,"time_elapsed":3289366,"internal_node_id":"0.0-13.0-0.72","match_key":"a","participant_id":"COGS219_2020_29"},{"rt":null,"stimulus":"<p style=\"font-size: 48px;\">+</p>","key_press":null,"block":1,"trial_type":"html-keyboard-response","trial_index":341,"time_elapsed":3290357,"internal_node_id":"0.0-13.0-1.72","match_key":"a","participant_id":"COGS219_2020_29"},{"rt":568.764999974519,"stimulus":"Images/cat_cartoon.png","key_press":65,"stim_onset":1582842609996,"block":1,"match_type":"match","image_category":"cat","sound_category":"cat","audio_type":"label","phase":"test","trial_type":"image-keyboard-response","trial_index":342,"time_elapsed":3290927,"internal_node_id":"0.0-13.0-2.72","match_key":"a","participant_id":"COGS219_2020_29","correct":true},{"rt":null,"stimulus":"Sounds/correct.wav","key_press":null,"block":1,"trial_type":"audio-keyboard-response","trial_index":343,"time_elapsed":3292930,"internal_node_id":"0.0-13.0-3.72","match_key":"a","participant_id":"COGS219_2020_29"},{"rt":null,"stimulus":"Sounds/motorcycle_sound.wav","key_press":null,"block":1,"trial_type":"audio-keyboard-response","trial_index":344,"time_elapsed":3294046,"internal_node_id":"0.0-13.0-0.73","match_key":"a","participant_id":"COGS219_2020_29"},{"rt":null,"stimulus":"<p style=\"font-size: 48px;\">+</p>","key_press":null,"block":1,"trial_type":"html-keyboard-response","trial_index":345,"time_elapsed":3295040,"internal_node_id":"0.0-13.0-1.73","match_key":"a","participant_id":"COGS219_2020_29"},{"rt":685.7500000623986,"stimulus":"Images/motorcycle_3.png","key_press":76,"stim_onset":1582842614680,"block":1,"match_type":"match","image_category":"motorcycle","sound_category":"motorcycle","audio_type":"sound","phase":"test","trial_type":"image-keyboard-response","trial_index":346,"time_elapsed":3295727,"internal_node_id":"0.0-13.0-2.73","match_key":"a","participant_id":"COGS219_2020_29","correct":false},{"rt":null,"stimulus":"Sounds/incorrect.wav","key_press":null,"block":1,"trial_type":"audio-keyboard-response","trial_index":347,"time_elapsed":3297738,"internal_node_id":"0.0-13.0-3.73","match_key":"a","participant_id":"COGS219_2020_29"},{"rt":null,"stimulus":"Sounds/cat_label.wav","key_press":null,"block":1,"trial_type":"audio-keyboard-response","trial_index":348,"time_elapsed":3298546,"internal_node_id":"0.0-13.0-0.74","match_key":"a","participant_id":"COGS219_2020_29"},{"rt":null,"stimulus":"<p style=\"font-size: 48px;\">+</p>","key_press":null,"block":1,"trial_type":"html-keyboard-response","trial_index":34