[{"rt":12694.155000033788,"responses":"{\"Q0\":\"COGS219_2020_30\"}","trial_type":"survey-text","trial_index":0,"time_elapsed":12736,"internal_node_id":"0.0-0.0","match_key":"l","participant_id":"COGS219_2020_30"},{"rt":103174.30999991484,"stimulus":"<p>Use KEYBOARD 1 (match RIGHT)</p><p>Press MATCH to continue.</p>","key_press":76,"trial_type":"html-keyboard-response","trial_index":1,"time_elapsed":115933,"internal_node_id":"0.0-1.0","match_key":"l","participant_id":"COGS219_2020_30"},{"rt":1444060.5050000595,"stimulus":"<p>Welcome to the experiment.</p>","key_press":32,"trial_type":"html-keyboard-response","trial_index":2,"time_elapsed":1560199,"internal_node_id":"0.0-2.0","match_key":"l","participant_id":"COGS219_2020_30"},{"rt":8296.929999953136,"stimulus":"<p>Thank you for agreeing to participate in this study.</p><p>If during any part of the procedure you must stop for any reason, please inform the researcher that you do not wish to continue.</p>","key_press":32,"trial_type":"html-keyboard-response","trial_index":3,"time_elapsed":1568502,"internal_node_id":"0.0-3.0","match_key":"l","participant_id":"COGS219_2020_30"},{"rt":17775.534999906085,"stimulus":"<p>In this experiment, you will hear various words or sounds and see pictures of various animals and objects.</p><p>Most of the images will be of common everyday objects, such as cars, cats, cows, firearms, frogs, chickens, whistles, trains, motorcycles, and dogs.</p><p>Some of the images will be real-life stills, while others will be cartoons.</p>","key_press":32,"trial_type":"html-keyboard-response","trial_index":4,"time_elapsed":1586279,"internal_node_id":"0.0-4.0","match_key":"l","participant_id":"COGS219_2020_30"},{"rt":14382.510000024922,"stimulus":"<p>Sometimes, the word/sound will match the picture, for example you'll hear a meowing sound and see a cat.</p><p>Other times, the picture will not match the sound or word.</p><p>Your task is to decide as quickly as possible if the word/sound matches the picture or not. </p>","key_press":32,"trial_type":"html-keyboard-response","trial_index":5,"time_elapsed":1600662,"internal_node_id":"0.0-5.0","match_key":"l","participant_id":"COGS219_2020_30"},{"rt":15022.510000038892,"stimulus":"<p>For example, if you hear the word \"cat\" or hear a meowing sound, and then see a picture of a cat, you should press the MATCH key.</p><p> If the sound and image do not match, press the NOT-MATCH key to indicate that there is not a match.</p>","key_press":32,"trial_type":"html-keyboard-response","trial_index":6,"time_elapsed":1615686,"internal_node_id":"0.0-6.0","match_key":"l","participant_id":"COGS219_2020_30"},{"rt":10543.25499990955,"stimulus":"<p>If you make a mistake, you will hear a buzzing sound instead of a more pleasant sound.</p><p> Try to respond as quickly as possible, while making as few errors as possible. If you are making mistakes, you are probably rushing.</p>","key_press":32,"trial_type":"html-keyboard-response","trial_index":7,"time_elapsed":1626230,"internal_node_id":"0.0-7.0","match_key":"l","participant_id":"COGS219_2020_30"},{"rt":10254.13000001572,"stimulus":"<p>Please try to not move or blink your eyes during the presentation of the images. You can move and blink between images.</p><p>During the experiment there will be some breaks during which you can rest your eyes.</p>","key_press":32,"trial_type":"html-keyboard-response","trial_index":8,"time_elapsed":1636486,"internal_node_id":"0.0-8.0","match_key":"l","participant_id":"COGS219_2020_30"},{"rt":7118.355000042357,"stimulus":"<p>We will begin with 10 practice trials. Please let the experimenter know if you have any questions.</p>","key_press":32,"trial_type":"html-keyboard-response","trial_index":9,"time_elapsed":1643605,"internal_node_id":"0.0-9.0","match_key":"l","participant_id":"COGS219_2020_30"},{"rt":null,"stimulus":"Sounds/dog_sound.wav","key_press":null,"block":0,"trial_type":"audio-keyboard-response","trial_index":10,"time_elapsed":1644410,"internal_node_id":"0.0-10.0-0.0","match_key":"l","participant_id":"COGS219_2020_30"},{"rt":null,"stimulus":"<p style=\"font-size: 48px;\">+</p>","key_press":null,"block":0,"trial_type":"html-keyboard-response","trial_index":11,"time_elapsed":1645428,"internal_node_id":"0.0-10.0-1.0","match_key":"l","participant_id":"COGS219_2020_30"},{"rt":1422.9200000409037,"stimulus":"Images/dog_3.png","key_press":76,"stim_onset":1582848171657,"block":0,"match_type":"match","image_category":"dog","sound_category":"dog","audio_type":"sound","phase":"practice","trial_type":"image-keyboard-response","trial_index":12,"time_elapsed":1646853,"internal_node_id":"0.0-10.0-2.0","match_key":"l","participant_id":"COGS219_2020_30","correct":true},{"rt":null,"stimulus":"Sounds/correct.wav","key_press":null,"block":0,"trial_type":"audio-keyboard-response","trial_index":13,"time_elapsed":1648868,"internal_node_id":"0.0-10.0-3.0","match_key":"l","participant_id":"COGS219_2020_30"},{"rt":null,"stimulus":"Sounds/train_label.wav","key_press":null,"block":0,"trial_type":"audio-keyboard-response","trial_index":14,"time_elapsed":1650150,"internal_node_id":"0.0-10.0-0.1","match_key":"l","participant_id":"COGS219_2020_30"},{"rt":null,"stimulus":"<p style=\"font-size: 48px;\">+</p>","key_press":null,"block":0,"trial_type":"html-keyboard-response","trial_index":15,"time_elapsed":1651145,"internal_node_id":"0.0-10.0-1.1","match_key":"l","participant_id":"COGS219_2020_30"},{"rt":1787.0500000426546,"stimulus":"Images/train_orig.png","key_press":76,"stim_onset":1582848177374,"block":0,"match_type":"match","image_category":"train","sound_category":"train","audio_type":"label","phase":"practice","trial_type":"image-keyboard-response","trial_index":16,"time_elapsed":1652933,"internal_node_id":"0.0-10.0-2.1","match_key":"l","participant_id":"COGS219_2020_30","correct":true},{"rt":null,"stimulus":"Sounds/correct.wav","key_press":null,"block":0,"trial_type":"audio-keyboard-response","trial_index":17,"time_elapsed":1654951,"internal_node_id":"0.0-10.0-3.1","match_key":"l","participant_id":"COGS219_2020_30"},{"rt":null,"stimulus":"Sounds/whistle_label.wav","key_press":null,"block":0,"trial_type":"audio-keyboard-response","trial_index":18,"time_elapsed":1655650,"internal_node_id":"0.0-10.0-0.2","match_key":"l","participant_id":"COGS219_2020_30"},{"rt":null,"stimulus":"<p style=\"font-size: 48px;\">+</p>","key_press":null,"block":0,"trial_type":"html-keyboard-response","trial_index":19,"time_elapsed":1656645,"internal_node_id":"0.0-10.0-1.2","match_key":"l","participant_id":"COGS219_2020_30"},{"rt":1119.2549999104813,"stimulus":"Images/whistle_orig.png","key_press":76,"stim_onset":1582848182874,"block":0,"match_type":"match","image_category":"whistle","sound_category":"whistle","audio_type":"label","phase":"practice","trial_type":"image-keyboard-response","trial_index":20,"time_elapsed":1657765,"internal_node_id":"0.0-10.0-2.2","match_key":"l","participant_id":"COGS219_2020_30","correct":true},{"rt":null,"stimulus":"Sounds/correct.wav","key_press":null,"block":0,"trial_type":"audio-keyboard-response","trial_index":21,"time_elapsed":1659782,"internal_node_id":"0.0-10.0-3.2","match_key":"l","participant_id":"COGS219_2020_30"},{"rt":null,"stimulus":"Sounds/cat_label.wav","key_press":null,"block":0,"trial_type":"audio-keyboard-response","trial_index":22,"time_elapsed":1660630,"internal_node_id":"0.0-10.0-0.3","match_key":"l","participant_id":"COGS219_2020_30"},{"rt":null,"stimulus":"<p style=\"font-size: 48px;\">+</p>","key_press":null,"block":0,"trial_type":"html-keyboard-response","trial_index":23,"time_elapsed":1661628,"internal_node_id":"0.0-10.0-1.3","match_key":"l","participant_id":"COGS219_2020_30"},{"rt":1063.7400000123307,"stimulus":"Images/cow_cartoon.png","key_press":65,"stim_onset":1582848187857,"block":0,"match_type":"non-match","image_category":"cow","sound_category":"cat","audio_type":"label","phase":"practice","trial_type":"image-keyboard-response","trial_index":24,"time_elapsed":1662693,"internal_node_id":"0.0-10.0-2.3","match_key":"l","participant_id":"COGS219_2020_30","correct":true},{"rt":null,"stimulus":"Sounds/correct.wav","key_press":null,"block":0,"trial_type":"audio-keyboard-response","trial_index":25,"time_elapsed":1664709,"internal_node_id":"0.0-10.0-3.3","match_key":"l","participant_id":"COGS219_2020_30"},{"rt":null,"stimulus":"Sounds/gun_label.wav","key_press":null,"block":0,"trial_type":"audio-keyboard-response","trial_index":26,"time_elapsed":1665290,"internal_node_id":"0.0-10.0-0.4","match_key":"l","participant_id":"COGS219_2020_30"},{"rt":null,"stimulus":"<p style=\"font-size: 48px;\">+</p>","key_press":null,"block":0,"trial_type":"html-keyboard-response","trial_index":27,"time_elapsed":1666295,"internal_node_id":"0.0-10.0-1.4","match_key":"l","participant_id":"COGS219_2020_30"},{"rt":953.9100000401959,"stimulus":"Images/cow_2.png","key_press":65,"stim_onset":1582848192524,"block":0,"match_type":"non-match","image_category":"cow","sound_category":"gun","audio_type":"label","phase":"practice","trial_type":"image-keyboard-response","trial_index":28,"time_elapsed":1667253,"internal_node_id":"0.0-10.0-2.4","match_key":"l","participant_id":"COGS219_2020_30","correct":true},{"rt":null,"stimulus":"Sounds/correct.wav","key_press":null,"block":0,"trial_type":"audio-keyboard-response","trial_index":29,"time_elapsed":1669265,"internal_node_id":"0.0-10.0-3.4","match_key":"l","participant_id":"COGS219_2020_30"},{"rt":null,"stimulus":"Sounds/whistle_label.wav","key_press":null,"block":0,"trial_type":"audio-keyboard-response","trial_index":30,"time_elapsed":1669930,"internal_node_id":"0.0-10.0-0.5","match_key":"l","participant_id":"COGS219_2020_30"},{"rt":null,"stimulus":"<p style=\"font-size: 48px;\">+</p>","key_press":null,"block":0,"trial_type":"html-keyboard-response","trial_index":31,"time_elapsed":1670928,"internal_node_id":"0.0-10.0-1.5","match_key":"l","participant_id":"COGS219_2020_30"},{"rt":691.8600000208244,"stimulus":"Images/rooster_3.png","key_press":65,"stim_onset":1582848197157,"block":0,"match_type":"non-match","image_category":"rooster","sound_category":"whistle","audio_type":"label","phase":"practice","trial_type":"image-keyboard-response","trial_index":32,"time_elapsed":1671621,"internal_node_id":"0.0-10.0-2.5","match_key":"l","participant_id":"COGS219_2020_30","correct":true},{"rt":null,"stimulus":"Sounds/correct.wav","key_press":null,"block":0,"trial_type":"audio-keyboard-response","trial_index":33,"time_elapsed":1673625,"internal_node_id":"0.0-10.0-3.5","match_key":"l","participant_id":"COGS219_2020_30"},{"rt":null,"stimulus":"Sounds/cow_label.wav","key_press":null,"block":0,"trial_type":"audio-keyboard-response","trial_index":34,"time_elapsed":1674650,"internal_node_id":"0.0-10.0-0.6","match_key":"l","participant_id":"COGS219_2020_30"},{"rt":null,"stimulus":"<p style=\"font-size: 48px;\">+</p>","key_press":null,"block":0,"trial_type":"html-keyboard-response","trial_index":35,"time_elapsed":1675645,"internal_node_id":"0.0-10.0-1.6","match_key":"l","participant_id":"COGS219_2020_30"},{"rt":663.0349999759346,"stimulus":"Images/whistle_orig.png","key_press":65,"stim_onset":1582848201874,"block":0,"match_type":"non-match","image_category":"whistle","sound_category":"cow","audio_type":"label","phase":"practice","trial_type":"image-keyboard-response","trial_index":36,"time_elapsed":1676309,"internal_node_id":"0.0-10.0-2.6","match_key":"l","participant_id":"COGS219_2020_30","correct":true},{"rt":null,"stimulus":"Sounds/correct.wav","key_press":null,"block":0,"trial_type":"audio-keyboard-response","trial_index":37,"time_elapsed":1678318,"internal_node_id":"0.0-10.0-3.6","match_key":"l","participant_id":"COGS219_2020_30"},{"rt":null,"stimulus":"Sounds/car_sound.wav","key_press":null,"block":0,"trial_type":"audio-keyboard-response","trial_index":38,"time_elapsed":1679390,"internal_node_id":"0.0-10.0-0.7","match_key":"l","participant_id":"COGS219_2020_30"},{"rt":null,"stimulus":"<p style=\"font-size: 48px;\">+</p>","key_press":null,"block":0,"trial_type":"html-keyboard-response","trial_index":39,"time_elapsed":1680395,"internal_node_id":"0.0-10.0-1.7","match_key":"l","participant_id":"COGS219_2020_30"},{"rt":1080.7750000385568,"stimulus":"Images/car_3.png","key_press":76,"stim_onset":1582848206624,"block":0,"match_type":"match","image_category":"car","sound_category":"car","audio_type":"sound","phase":"practice","trial_type":"image-keyboard-response","trial_index":40,"time_elapsed":1681477,"internal_node_id":"0.0-10.0-2.7","match_key":"l","participant_id":"COGS219_2020_30","correct":true},{"rt":null,"stimulus":"Sounds/correct.wav","key_press":null,"block":0,"trial_type":"audio-keyboard-response","trial_index":41,"time_elapsed":1683482,"internal_node_id":"0.0-10.0-3.7","match_key":"l","participant_id":"COGS219_2020_30"},{"rt":null,"stimulus":"Sounds/rooster_sound.wav","key_press":null,"block":0,"trial_type":"audio-keyboard-response","trial_index":42,"time_elapsed":1684190,"internal_node_id":"0.0-10.0-0.8","match_key":"l","participant_id":"COGS219_2020_30"},{"rt":null,"stimulus":"<p style=\"font-size: 48px;\">+</p>","key_press":null,"block":0,"trial_type":"html-keyboard-response","trial_index":43,"time_elapsed":1685195,"internal_node_id":"0.0-10.0-1.8","match_key":"l","participant_id":"COGS219_2020_30"},{"rt":1016.8549999361858,"stimulus":"Images/car_1.png","key_press":65,"stim_onset":1582848211424,"block":0,"match_type":"non-match","image_category":"car","sound_category":"rooster","audio_type":"sound","phase":"practice","trial_type":"image-keyboard-response","trial_index":44,"time_elapsed":1686213,"internal_node_id":"0.0-10.0-2.8","match_key":"l","participant_id":"COGS219_2020_30","correct":true},{"rt":null,"stimulus":"Sounds/correct.wav","key_press":null,"block":0,"trial_type":"audio-keyboard-response","trial_index":45,"time_elapsed":1688217,"internal_node_id":"0.0-10.0-3.8","match_key":"l","participant_id":"COGS219_2020_30"},{"rt":null,"stimulus":"Sounds/motorcycle_sound.wav","key_press":null,"block":0,"trial_type":"audio-keyboard-response","trial_index":46,"time_elapsed":1689331,"internal_node_id":"0.0-10.0-0.9","match_key":"l","participant_id":"COGS219_2020_30"},{"rt":null,"stimulus":"<p style=\"font-size: 48px;\">+</p>","key_press":null,"block":0,"trial_type":"html-keyboard-response","trial_index":47,"time_elapsed":1690329,"internal_node_id":"0.0-10.0-1.9","match_key":"l","participant_id":"COGS219_2020_30"},{"rt":1051.6649999190122,"stimulus":"Images/motorcycle_3.png","key_press":76,"stim_onset":1582848216558,"block":0,"match_type":"match","image_category":"motorcycle","sound_category":"motorcycle","audio_type":"sound","phase":"practice","trial_type":"image-keyboard-response","trial_index":48,"time_elapsed":1691382,"internal_node_id":"0.0-10.0-2.9","match_key":"l","participant_id":"COGS219_2020_30","correct":true},{"rt":null,"stimulus":"Sounds/correct.wav","key_press":null,"block":0,"trial_type":"audio-keyboard-response","trial_index":49,"time_elapsed":1693385,"internal_node_id":"0.0-10.0-3.9","match_key":"l","participant_id":"COGS219_2020_30"},{"rt":13931.689999997616,"stimulus":"<p>The rest of the experiment is divided into five blocks with 100 trials in each block. It will take about 45 minutes to complete.</p><p>The experimenter will be in the outer room and you can communicate with them through the monitor if you have any questions or wish to stop the experiment.</p>","key_press":32,"trial_type":"html-keyboard-response","trial_index":50,"time_elapsed":1707318,"internal_node_id":"0.0-11.0","match_key":"l","participant_id":"COGS219_2020_30"},{"rt":18127.310000010766,"stimulus":"<p>Remember, please try not to move or blink your eyes during the presentation of the images. </p><p>At the end of the experiment, we will show you your scores on the task so you can see how you did.</p><p>The experiment will start on the next screen.</p>","key_press":32,"trial_type":"html-keyboard-response","trial_index":51,"time_elapsed":1725446,"internal_node_id":"0.0-12.0","match_key":"l","participant_id":"COGS219_2020_30"},{"rt":null,"stimulus":"Sounds/train_label.wav","key_press":null,"block":1,"trial_type":"audio-keyboard-response","trial_index":52,"time_elapsed":1728742,"internal_node_id":"0.0-13.0-0.0","match_key":"l","participant_id":"COGS219_2020_30"},{"rt":null,"stimulus":"<p style=\"font-size: 48px;\">+</p>","key_press":null,"block":1,"trial_type":"html-keyboard-response","trial_index":53,"time_elapsed":1729746,"internal_node_id":"0.0-13.0-1.0","match_key":"l","participant_id":"COGS219_2020_30"},{"rt":690.610000048764,"stimulus":"Images/train_1.png","key_press":76,"stim_onset":1582848255975,"block":1,"match_type":"match","image_category":"train","sound_category":"train","audio_type":"label","phase":"test","trial_type":"image-keyboard-response","trial_index":54,"time_elapsed":1730438,"internal_node_id":"0.0-13.0-2.0","match_key":"l","participant_id":"COGS219_2020_30","correct":true},{"rt":null,"stimulus":"Sounds/correct.wav","key_press":null,"block":1,"trial_type":"audio-keyboard-response","trial_index":55,"time_elapsed":1732453,"internal_node_id":"0.0-13.0-3.0","match_key":"l","participant_id":"COGS219_2020_30"},{"rt":null,"stimulus":"Sounds/train_label.wav","key_press":null,"block":1,"trial_type":"audio-keyboard-response","trial_index":56,"time_elapsed":1733703,"internal_node_id":"0.0-13.0-0.1","match_key":"l","participant_id":"COGS219_2020_30"},{"rt":null,"stimulus":"<p style=\"font-size: 48px;\">+</p>","key_press":null,"block":1,"trial_type":"html-keyboard-response","trial_index":57,"time_elapsed":1734696,"internal_node_id":"0.0-13.0-1.1","match_key":"l","participant_id":"COGS219_2020_30"},{"rt":636.434999993071,"stimulus":"Images/whistle_1.png","key_press":65,"stim_onset":1582848260925,"block":1,"match_type":"non-match","image_category":"whistle","sound_category":"train","audio_type":"label","phase":"test","trial_type":"image-keyboard-response","trial_index":58,"time_elapsed":1735334,"internal_node_id":"0.0-13.0-2.1","match_key":"l","participant_id":"COGS219_2020_30","correct":true},{"rt":null,"stimulus":"Sounds/correct.wav","key_press":null,"block":1,"trial_type":"audio-keyboard-response","trial_index":59,"time_elapsed":1737339,"internal_node_id":"0.0-13.0-3.1","match_key":"l","participant_id":"COGS219_2020_30"},{"rt":null,"stimulus":"Sounds/motorcycle_sound.wav","key_press":null,"block":1,"trial_type":"audio-keyboard-response","trial_index":60,"time_elapsed":1738462,"internal_node_id":"0.0-13.0-0.2","match_key":"l","participant_id":"COGS219_2020_30"},{"rt":null,"stimulus":"<p style=\"font-size: 48px;\">+</p>","key_press":null,"block":1,"trial_type":"html-keyboard-response","trial_index":61,"time_elapsed":1739479,"internal_node_id":"0.0-13.0-1.2","match_key":"l","participant_id":"COGS219_2020_30"},{"rt":780.3050000220537,"stimulus":"Images/motorcycle_cartoon.png","key_press":76,"stim_onset":1582848265708,"block":1,"match_type":"match","image_category":"motorcycle","sound_category":"motorcycle","audio_type":"sound","phase":"test","trial_type":"image-keyboard-response","trial_index":62,"time_elapsed":1740262,"internal_node_id":"0.0-13.0-2.2","match_key":"l","participant_id":"COGS219_2020_30","correct":true},{"rt":null,"stimulus":"Sounds/correct.wav","key_press":null,"block":1,"trial_type":"audio-keyboard-response","trial_index":63,"time_elapsed":1742271,"internal_node_id":"0.0-13.0-3.2","match_key":"l","participant_id":"COGS219_2020_30"},{"rt":null,"stimulus":"Sounds/dog_sound.wav","key_press":null,"block":1,"trial_type":"audio-keyboard-response","trial_index":64,"time_elapsed":1742982,"internal_node_id":"0.0-13.0-0.3","match_key":"l","participant_id":"COGS219_2020_30"},{"rt":null,"stimulus":"<p style=\"font-size: 48px;\">+</p>","key_press":null,"block":1,"trial_type":"html-keyboard-response","trial_index":65,"time_elapsed":1743979,"internal_node_id":"0.0-13.0-1.3","match_key":"l","participant_id":"COGS219_2020_30"},{"rt":697.0300000393763,"stimulus":"Images/cat_3.png","key_press":65,"stim_onset":1582848270209,"block":1,"match_type":"non-match","image_category":"cat","sound_category":"dog","audio_type":"sound","phase":"test","trial_type":"image-keyboard-response","trial_index":66,"time_elapsed":1744678,"internal_node_id":"0.0-13.0-2.3","match_key":"l","participant_id":"COGS219_2020_30","correct":true},{"rt":null,"stimulus":"Sounds/correct.wav","key_press":null,"block":1,"trial_type":"audio-keyboard-response","trial_index":67,"time_elapsed":1746685,"internal_node_id":"0.0-13.0-3.3","match_key":"l","participant_id":"COGS219_2020_30"},{"rt":null,"stimulus":"Sounds/rooster_sound.wav","key_press":null,"block":1,"trial_type":"audio-keyboard-response","trial_index":68,"time_elapsed":1747382,"internal_node_id":"0.0-13.0-0.4","match_key":"l","participant_id":"COGS219_2020_30"},{"rt":null,"stimulus":"<p style=\"font-size: 48px;\">+</p>","key_press":null,"block":1,"trial_type":"html-keyboard-response","trial_index":69,"time_elapsed":1748380,"internal_node_id":"0.0-13.0-1.4","match_key":"l","participant_id":"COGS219_2020_30"},{"rt":776.9800000824034,"stimulus":"Images/rooster_2.png","key_press":76,"stim_onset":1582848274609,"block":1,"match_type":"match","image_category":"rooster","sound_category":"rooster","audio_type":"sound","phase":"test","trial_type":"image-keyboard-response","trial_index":70,"time_elapsed":1749158,"internal_node_id":"0.0-13.0-2.4","match_key":"l","participant_id":"COGS219_2020_30","correct":true},{"rt":null,"stimulus":"Sounds/correct.wav","key_press":null,"block":1,"trial_type":"audio-keyboard-response","trial_index":71,"time_elapsed":1751166,"internal_node_id":"0.0-13.0-3.4","match_key":"l","participant_id":"COGS219_2020_30"},{"rt":null,"stimulus":"Sounds/motorcycle_label.wav","key_press":null,"block":1,"trial_type":"audio-keyboard-response","trial_index":72,"time_elapsed":1752282,"internal_node_id":"0.0-13.0-0.5","match_key":"l","participant_id":"COGS219_2020_30"},{"rt":null,"stimulus":"<p style=\"font-size: 48px;\">+</p>","key_press":null,"block":1,"trial_type":"html-keyboard-response","trial_index":73,"time_elapsed":1753280,"internal_node_id":"0.0-13.0-1.5","match_key":"l","participant_id":"COGS219_2020_30"},{"rt":661.1649999395013,"stimulus":"Images/motorcycle_orig.png","key_press":76,"stim_onset":1582848279509,"block":1,"match_type":"match","image_category":"motorcycle","sound_category":"motorcycle","audio_type":"label","phase":"test","trial_type":"image-keyboard-response","trial_index":74,"time_elapsed":1753942,"internal_node_id":"0.0-13.0-2.5","match_key":"l","participant_id":"COGS219_2020_30","correct":true},{"rt":null,"stimulus":"Sounds/correct.wav","key_press":null,"block":1,"trial_type":"audio-keyboard-response","trial_index":75,"time_elapsed":1755953,"internal_node_id":"0.0-13.0-3.5","match_key":"l","participant_id":"COGS219_2020_30"},{"rt":null,"stimulus":"Sounds/motorcycle_sound.wav","key_press":null,"block":1,"trial_type":"audio-keyboard-response","trial_index":76,"time_elapsed":1757062,"internal_node_id":"0.0-13.0-0.6","match_key":"l","participant_id":"COGS219_2020_30"},{"rt":null,"stimulus":"<p style=\"font-size: 48px;\">+</p>","key_press":null,"block":1,"trial_type":"html-keyboard-response","trial_index":77,"time_elapsed":1758080,"internal_node_id":"0.0-13.0-1.6","match_key":"l","participant_id":"COGS219_2020_30"},{"rt":837.0550000108778,"stimulus":"Images/train_2.png","key_press":65,"stim_onset":1582848284309,"block":1,"match_type":"non-match","image_category":"train","sound_category":"motorcycle","audio_type":"sound","phase":"test","trial_type":"image-keyboard-response","trial_index":78,"time_elapsed":1758918,"internal_node_id":"0.0-13.0-2.6","match_key":"l","participant_id":"COGS219_2020_30","correct":true},{"rt":null,"stimulus":"Sounds/correct.wav","key_press":null,"block":1,"trial_type":"audio-keyboard-response","trial_index":79,"time_elapsed":1760934,"internal_node_id":"0.0-13.0-3.6","match_key":"l","participant_id":"COGS219_2020_30"},{"rt":null,"stimulus":"Sounds/car_label.wav","key_press":null,"block":1,"trial_type":"audio-keyboard-response","trial_index":80,"time_elapsed":1762002,"internal_node_id":"0.0-13.0-0.7","match_key":"l","participant_id":"COGS219_2020_30"},{"rt":null,"stimulus":"<p style=\"font-size: 48px;\">+</p>","key_press":null,"block":1,"trial_type":"html-keyboard-response","trial_index":81,"time_elapsed":1762996,"internal_node_id":"0.0-13.0-1.7","match_key":"l","participant_id":"COGS219_2020_30"},{"rt":592.329999897629,"stimulus":"Images/frog_cartoon.png","key_press":65,"stim_onset":1582848289226,"block":1,"match_type":"non-match","image_category":"frog","sound_category":"car","audio_type":"label","phase":"test","trial_type":"image-keyboard-response","trial_index":82,"time_elapsed":1763590,"internal_node_id":"0.0-13.0-2.7","match_key":"l","participant_id":"COGS219_2020_30","correct":true},{"rt":null,"stimulus":"Sounds/correct.wav","key_press":null,"block":1,"trial_type":"audio-keyboard-response","trial_index":83,"time_elapsed":1765600,"internal_node_id":"0.0-13.0-3.7","match_key":"l","participant_id":"COGS219_2020_30"},{"rt":null,"stimulus":"Sounds/whistle_sound.wav","key_press":null,"block":1,"trial_type":"audio-keyboard-response","trial_index":84,"time_elapsed":1766302,"internal_node_id":"0.0-13.0-0.8","match_key":"l","participant_id":"COGS219_2020_30"},{"rt":null,"stimulus":"<p style=\"font-size: 48px;\">+</p>","key_press":null,"block":1,"trial_type":"html-keyboard-response","trial_index":85,"time_elapsed":1767297,"internal_node_id":"0.0-13.0-1.8","match_key":"l","participant_id":"COGS219_2020_30"},{"rt":564.2200000584126,"stimulus":"Images/whistle_cartoon.png","key_press":76,"stim_onset":1582848293526,"block":1,"match_type":"match","image_category":"whistle","sound_category":"whistle","audio_type":"sound","phase":"test","trial_type":"image-keyboard-response","trial_index":86,"time_elapsed":1767862,"internal_node_id":"0.0-13.0-2.8","match_key":"l","participant_id":"COGS219_2020_30","correct":true},{"rt":null,"stimulus":"Sounds/correct.wav","key_press":null,"block":1,"trial_type":"audio-keyboard-response","trial_index":87,"time_elapsed":1769870,"internal_node_id":"0.0-13.0-3.8","match_key":"l","participant_id":"COGS219_2020_30"},{"rt":null,"stimulus":"Sounds/motorcycle_sound.wav","key_press":null,"block":1,"trial_type":"audio-keyboard-response","trial_index":88,"time_elapsed":1770962,"internal_node_id":"0.0-13.0-0.9","match_key":"l","participant_id":"COGS219_2020_30"},{"rt":null,"stimulus":"<p style=\"font-size: 48px;\">+</p>","key_press":null,"block":1,"trial_type":"html-keyboard-response","trial_index":89,"time_elapsed":1771980,"internal_node_id":"0.0-13.0-1.9","match_key":"l","participant_id":"COGS219_2020_30"},{"rt":1144.2550000501797,"stimulus":"Images/car_cartoon.png","key_press":65,"stim_onset":1582848298209,"block":1,"match_type":"non-match","image_category":"car","sound_category":"motorcycle","audio_type":"sound","phase":"test","trial_type":"image-keyboard-response","trial_index":90,"time_elapsed":1773126,"internal_node_id":"0.0-13.0-2.9","match_key":"l","participant_id":"COGS219_2020_30","correct":true},{"rt":null,"stimulus":"Sounds/correct.wav","key_press":null,"block":1,"trial_type":"audio-keyboard-response","trial_index":91,"time_elapsed":1775135,"internal_node_id":"0.0-13.0-3.9","match_key":"l","participant_id":"COGS219_2020_30"},{"rt":null,"stimulus":"Sounds/motorcycle_sound.wav","key_press":null,"block":1,"trial_type":"audio-keyboard-response","trial_index":92,"time_elapsed":1776222,"internal_node_id":"0.0-13.0-0.10","match_key":"l","participant_id":"COGS219_2020_30"},{"rt":null,"stimulus":"<p style=\"font-size: 48px;\">+</p>","key_press":null,"block":1,"trial_type":"html-keyboard-response","trial_index":93,"time_elapsed":1777213,"internal_node_id":"0.0-13.0-1.10","match_key":"l","participant_id":"COGS219_2020_30"},{"rt":599.3299999972805,"stimulus":"Images/dog_2.png","key_press":65,"stim_onset":1582848303443,"block":1,"match_type":"non-match","image_category":"dog","sound_category":"motorcycle","audio_type":"sound","phase":"test","trial_type":"image-keyboard-response","trial_index":94,"time_elapsed":1777814,"internal_node_id":"0.0-13.0-2.10","match_key":"l","participant_id":"COGS219_2020_30","correct":true},{"rt":null,"stimulus":"Sounds/correct.wav","key_press":null,"block":1,"trial_type":"audio-keyboard-response","trial_index":95,"time_elapsed":1779821,"internal_node_id":"0.0-13.0-3.10","match_key":"l","participant_id":"COGS219_2020_30"},{"rt":null,"stimulus":"Sounds/cow_label.wav","key_press":null,"block":1,"trial_type":"audio-keyboard-response","trial_index":96,"time_elapsed":1780842,"internal_node_id":"0.0-13.0-0.11","match_key":"l","participant_id":"COGS219_2020_30"},{"rt":null,"stimulus":"<p style=\"font-size: 48px;\">+</p>","key_press":null,"block":1,"trial_type":"html-keyboard-response","trial_index":97,"time_elapsed":1781847,"internal_node_id":"0.0-13.0-1.11","match_key":"l","participant_id":"COGS219_2020_30"},{"rt":622.304999968037,"stimulus":"Images/rooster_3.png","key_press":65,"stim_onset":1582848308076,"block":1,"match_type":"non-match","image_category":"rooster","sound_category":"cow","audio_type":"label","phase":"test","trial_type":"image-keyboard-response","trial_index":98,"time_elapsed":1782470,"internal_node_id":"0.0-13.0-2.11","match_key":"l","participant_id":"COGS219_2020_30","correct":true},{"rt":null,"stimulus":"Sounds/correct.wav","key_press":null,"block":1,"trial_type":"audio-keyboard-response","trial_index":99,"time_elapsed":1784484,"internal_node_id":"0.0-13.0-3.11","match_key":"l","participant_id":"COGS219_2020_30"},{"rt":null,"stimulus":"Sounds/dog_label.wav","key_press":null,"block":1,"trial_type":"audio-keyboard-response","trial_index":100,"time_elapsed":1785142,"internal_node_id":"0.0-13.0-0.12","match_key":"l","participant_id":"COGS219_2020_30"},{"rt":null,"stimulus":"<p style=\"font-size: 48px;\">+</p>","key_press":null,"block":1,"trial_type":"html-keyboard-response","trial_index":101,"time_elapsed":1786147,"internal_node_id":"0.0-13.0-1.12","match_key":"l","participant_id":"COGS219_2020_30"},{"rt":577.6750000659376,"stimulus":"Images/dog_orig.png","key_press":76,"stim_onset":1582848312376,"block":1,"match_type":"match","image_category":"dog","sound_category":"dog","audio_type":"label","phase":"test","trial_type":"image-keyboard-response","trial_index":102,"time_elapsed":1786726,"internal_node_id":"0.0-13.0-2.12","match_key":"l","participant_id":"COGS219_2020_30","correct":true},{"rt":null,"stimulus":"Sounds/correct.wav","key_press":null,"block":1,"trial_type":"audio-keyboard-response","trial_index":103,"time_elapsed":1788737,"internal_node_id":"0.0-13.0-3.12","match_key":"l","participant_id":"COGS219_2020_30"},{"rt":null,"stimulus":"Sounds/whistle_sound.wav","key_press":null,"block":1,"trial_type":"audio-keyboard-response","trial_index":104,"time_elapsed":1789442,"internal_node_id":"0.0-13.0-0.13","match_key":"l","participant_id":"COGS219_2020_30"},{"rt":null,"stimulus":"<p style=\"font-size: 48px;\">+</p>","key_press":null,"block":1,"trial_type":"html-keyboard-response","trial_index":105,"time_elapsed":1790447,"internal_node_id":"0.0-13.0-1.13","match_key":"l","participant_id":"COGS219_2020_30"},{"rt":597.499999916181,"stimulus":"Images/cow_3.png","key_press":65,"stim_onset":1582848316676,"block":1,"match_type":"non-match","image_category":"cow","sound_category":"whistle","audio_type":"sound","phase":"test","trial_type":"image-keyboard-response","trial_index":106,"time_elapsed":1791046,"internal_node_id":"0.0-13.0-2.13","match_key":"l","participant_id":"COGS219_2020_30","correct":true},{"rt":null,"stimulus":"Sounds/correct.wav","key_press":null,"block":1,"trial_type":"audio-keyboard-response","trial_index":107,"time_elapsed":1793053,"internal_node_id":"0.0-13.0-3.13","match_key":"l","participant_id":"COGS219_2020_30"},{"rt":null,"stimulus":"Sounds/car_label.wav","key_press":null,"block":1,"trial_type":"audio-keyboard-response","trial_index":108,"time_elapsed":1794142,"internal_node_id":"0.0-13.0-0.14","match_key":"l","participant_id":"COGS219_2020_30"},{"rt":null,"stimulus":"<p style=\"font-size: 48px;\">+</p>","key_press":null,"block":1,"trial_type":"html-keyboard-response","trial_index":109,"time_elapsed":1795147,"internal_node_id":"0.0-13.0-1.14","match_key":"l","participant_id":"COGS219_2020_30"},{"rt":1242.1200000680983,"stimulus":"Images/car_cartoon.png","key_press":65,"stim_onset":1582848321376,"block":1,"match_type":"match","image_category":"car","sound_category":"car","audio_type":"label","phase":"test","trial_type":"image-keyboard-response","trial_index":110,"time_elapsed":1796390,"internal_node_id":"0.0-13.0-2.14","match_key":"l","participant_id":"COGS219_2020_30","correct":false},{"rt":null,"stimulus":"Sounds/incorrect.wav","key_press":null,"block":1,"trial_type":"audio-keyboard-response","trial_index":111,"time_elapsed":1798403,"internal_node_id":"0.0-13.0-3.14","match_key":"l","participant_id":"COGS219_2020_30"},{"rt":null,"stimulus":"Sounds/train_label.wav","key_press":null,"block":1,"trial_type":"audio-keyboard-response","trial_index":112,"time_elapsed":1799682,"internal_node_id":"0.0-13.0-0.15","match_key":"l","participant_id":"COGS219_2020_30"},{"rt":null,"stimulus":"<p style=\"font-size: 48px;\">+</p>","key_press":null,"block":1,"trial_type":"html-keyboard-response","trial_index":113,"time_elapsed":1800680,"internal_node_id":"0.0-13.0-1.15","match_key":"l","participant_id":"COGS219_2020_30"},{"rt":652.5300000794232,"stimulus":"Images/train_cartoon.png","key_press":76,"stim_onset":1582848326910,"block":1,"match_type":"match","image_category":"train","sound_category":"train","audio_type":"label","phase":"test","trial_type":"image-keyboard-response","trial_index":114,"time_elapsed":1801334,"internal_node_id":"0.0-13.0-2.15","match_key":"l","participant_id":"COGS219_2020_30","correct":true},{"rt":null,"stimulus":"Sounds/correct.wav","key_press":null,"block":1,"trial_type":"audio-keyboard-response","trial_index":115,"time_elapsed":1803337,"internal_node_id":"0.0-13.0-3.15","match_key":"l","participant_id":"COGS219_2020_30"},{"rt":null,"stimulus":"Sounds/car_sound.wav","key_press":null,"block":1,"trial_type":"audio-keyboard-response","trial_index":116,"time_elapsed":1804422,"internal_node_id":"0.0-13.0-0.16","match_key":"l","participant_id":"COGS219_2020_30"},{"rt":null,"stimulus":"<p style=\"font-size: 48px;\">+</p>","key_press":null,"block":1,"trial_type":"html-keyboard-response","trial_index":117,"time_elapsed":1805430,"internal_node_id":"0.0-13.0-1.16","match_key":"l","participant_id":"COGS219_2020_30"},{"rt":846.5500000165775,"stimulus":"Images/car_3.png","key_press":76,"stim_onset":1582848331659,"block":1,"match_type":"match","image_category":"car","sound_category":"car","audio_type":"sound","phase":"test","trial_type":"image-keyboard-response","trial_index":118,"time_elapsed":1806278,"internal_node_id":"0.0-13.0-2.16","match_key":"l","participant_id":"COGS219_2020_30","correct":true},{"rt":null,"stimulus":"Sounds/correct.wav","key_press":null,"block":1,"trial_type":"audio-keyboard-response","trial_index":119,"time_elapsed":1808286,"internal_node_id":"0.0-13.0-3.16","match_key":"l","participant_id":"COGS219_2020_30"},{"rt":null,"stimulus":"Sounds/dog_label.wav","key_press":null,"block":1,"trial_type":"audio-keyboard-response","trial_index":120,"time_elapsed":1808942,"internal_node_id":"0.0-13.0-0.17","match_key":"l","participant_id":"COGS219_2020_30"},{"rt":null,"stimulus":"<p style=\"font-size: 48px;\">+</p>","key_press":null,"block":1,"trial_type":"html-keyboard-response","trial_index":121,"time_elapsed":1809947,"internal_node_id":"0.0-13.0-1.17","match_key":"l","participant_id":"COGS219_2020_30"},{"rt":665.6250000232831,"stimulus":"Images/rooster_cartoon.png","key_press":65,"stim_onset":1582848336176,"block":1,"match_type":"non-match","image_category":"rooster","sound_category":"dog","audio_type":"label","phase":"test","trial_type":"image-keyboard-response","trial_index":122,"time_elapsed":1810614,"internal_node_id":"0.0-13.0-2.17","match_key":"l","participant_id":"COGS219_2020_30","correct":true},{"rt":null,"stimulus":"Sounds/correct.wav","key_press":null,"block":1,"trial_type":"audio-keyboard-response","trial_index":123,"time_elapsed":1812618,"internal_node_id":"0.0-13.0-3.17","match_key":"l","participant_id":"COGS219_2020_30"},{"rt":null,"stimulus":"Sounds/cat_sound.wav","key_press":null,"block":1,"trial_type":"audio-keyboard-response","trial_index":124,"time_elapsed":1813462,"internal_node_id":"0.0-13.0-0.18","match_key":"l","participant_id":"COGS219_2020_30"},{"rt":null,"stimulus":"<p style=\"font-size: 48px;\">+</p>","key_press":null,"block":1,"trial_type":"html-keyboard-response","trial_index":125,"time_elapsed":1814480,"internal_node_id":"0.0-13.0-1.18","match_key":"l","participant_id":"COGS219_2020_30"},{"rt":484.4999999040738,"stimulus":"Images/car_2.png","key_press":65,"stim_onset":1582848340709,"block":1,"match_type":"non-match","image_category":"car","sound_category":"cat","audio_type":"sound","phase":"test","trial_type":"image-keyboard-response","trial_index":126,"time_elapsed":1814966,"internal_node_id":"0.0-13.0-2.18","match_key":"l","participant_id":"COGS219_2020_30","correct":true},{"rt":null,"stimulus":"Sounds/correct.wav","key_press":null,"block":1,"trial_type":"audio-keyboard-response","trial_index":127,"time_elapsed":1816969,"internal_node_id":"0.0-13.0-3.18","match_key":"l","participant_id":"COGS219_2020_30"},{"rt":null,"stimulus":"Sounds/whistle_sound.wav","key_press":null,"block":1,"trial_type":"audio-keyboard-response","trial_index":128,"time_elapsed":1817662,"internal_node_id":"0.0-13.0-0.19","match_key":"l","participant_id":"COGS219_2020_30"},{"rt":null,"stimulus":"<p style=\"font-size: 48px;\">+</p>","key_press":null,"block":1,"trial_type":"html-keyboard-response","trial_index":129,"time_elapsed":1818680,"internal_node_id":"0.0-13.0-1.19","match_key":"l","participant_id":"COGS219_2020_30"},{"rt":636.3350000465289,"stimulus":"Images/gun_1.png","key_press":65,"stim_onset":1582848344909,"block":1,"match_type":"non-match","image_category":"gun","sound_category":"whistle","audio_type":"sound","phase":"test","trial_type":"image-keyboard-response","trial_index":130,"time_elapsed":1819318,"internal_node_id":"0.0-13.0-2.19","match_key":"l","participant_id":"COGS219_2020_30","correct":true},{"rt":null,"stimulus":"Sounds/correct.wav","key_press":null,"block":1,"trial_type":"audio-keyboard-response","trial_index":131,"time_elapsed":1821320,"internal_node_id":"0.0-13.0-3.19","match_key":"l","participant_id":"COGS219_2020_30"},{"rt":null,"stimulus":"Sounds/dog_sound.wav","key_press":null,"block":1,"trial_type":"audio-keyboard-response","trial_index":132,"time_elapsed":1822022,"internal_node_id":"0.0-13.0-0.20","match_key":"l","participant_id":"COGS219_2020_30"},{"rt":null,"stimulus":"<p style=\"font-size: 48px;\">+</p>","key_press":null,"block":1,"trial_type":"html-keyboard-response","trial_index":133,"time_elapsed":1823013,"internal_node_id":"0.0-13.0-1.20","match_key":"l","participant_id":"COGS219_2020_30"},{"rt":543.1349999271333,"stimulus":"Images/motorcycle_1.png","key_press":65,"stim_onset":1582848349243,"block":1,"match_type":"non-match","image_category":"motorcycle","sound_category":"dog","audio_type":"sound","phase":"test","trial_type":"image-keyboard-response","trial_index":134,"time_elapsed":1823558,"internal_node_id":"0.0-13.0-2.20","match_key":"l","participant_id":"COGS219_2020_30","correct":true},{"rt":null,"stimulus":"Sounds/correct.wav","key_press":null,"block":1,"trial_type":"audio-keyboard-response","trial_index":135,"time_elapsed":1825567,"internal_node_id":"0.0-13.0-3.20","match_key":"l","participant_id":"COGS219_2020_30"},{"rt":null,"stimulus":"Sounds/gun_sound.wav","key_press":null,"block":1,"trial_type":"audio-keyboard-response","trial_index":136,"time_elapsed":1826142,"internal_node_id":"0.0-13.0-0.21","match_key":"l","participant_id":"COGS219_2020_30"},{"rt":null,"stimulus":"<p style=\"font-size: 48px;\">+</p>","key_press":null,"block":1,"trial_type":"html-keyboard-response","trial_index":137,"time_elapsed":1827130,"internal_node_id":"0.0-13.0-1.21","match_key":"l","participant_id":"COGS219_2020_30"},{"rt":922.1599999582395,"stimulus":"Images/cow_1.png","key_press":65,"stim_onset":1582848353359,"block":1,"match_type":"non-match","image_category":"cow","sound_category":"gun","audio_type":"sound","phase":"test","trial_type":"image-keyboard-response","trial_index":138,"time_elapsed":1828053,"internal_node_id":"0.0-13.0-2.21","match_key":"l","participant_id":"COGS219_2020_30","correct":true},{"rt":null,"stimulus":"Sounds/correct.wav","key_press":null,"block":1,"trial_type":"audio-keyboard-response","trial_index":139,"time_elapsed":1830069,"internal_node_id":"0.0-13.0-3.21","match_key":"l","participant_id":"COGS219_2020_30"},{"rt":null,"stimulus":"Sounds/cat_label.wav","key_press":null,"block":1,"trial_type":"audio-keyboard-response","trial_index":140,"time_elapsed":1830902,"internal_node_id":"0.0-13.0-0.22","match_key":"l","participant_id":"COGS219_2020_30"},{"rt":null,"stimulus":"<p style=\"font-size: 48px;\">+</p>","key_press":null,"block":1,"trial_type":"html-keyboard-response","trial_index":141,"time_elapsed":1831897,"internal_node_id":"0.0-13.0-1.22","match_key":"l","participant_id":"COGS219_2020_30"},{"rt":555.6700000306591,"stimulus":"Images/cow_orig.png","key_press":65,"stim_onset":1582848358126,"block":1,"match_type":"non-match","image_category":"cow","sound_category":"cat","audio_type":"label","phase":"test","trial_type":"image-keyboard-response","trial_index":142,"time_elapsed":1832454,"internal_node_id":"0.0-13.0-2.22","match_key":"l","participant_id":"COGS219_2020_30","correct":true},{"rt":null,"stimulus":"Sounds/correct.wav","key_press":null,"block":1,"trial_type":"audio-keyboard-response","trial_index":143,"time_elapsed":1834467,"internal_node_id":"0.0-13.0-3.22","match_key":"l","participant_id":"COGS219_2020_30"},{"rt":null,"stimulus":"Sounds/gun_sound.wav","key_press":null,"block":1,"trial_type":"audio-keyboard-response","trial_index":144,"time_elapsed":1835022,"internal_node_id":"0.0-13.0-0.23","match_key":"l","participant_id":"COGS219_2020_30"},{"rt":null,"stimulus":"<p style=\"font-size: 48px;\">+</p>","key_press":null,"block":1,"trial_type":"html-keyboard-response","trial_index":145,"time_elapsed":1836014,"internal_node_id":"0.0-13.0-1.23","match_key":"l","participant_id":"COGS219_2020_30"},{"rt":566.8300000252202,"stimulus":"Images/frog_3.png","key_press":65,"stim_onset":1582848362243,"block":1,"match_type":"non-match","image_category":"frog","sound_category":"gun","audio_type":"sound","phase":"test","trial_type":"image-keyboard-response","trial_index":146,"time_elapsed":1836582,"internal_node_id":"0.0-13.0-2.23","match_key":"l","participant_id":"COGS219_2020_30","correct":true},{"rt":null,"stimulus":"Sounds/correct.wav","key_press":null,"block":1,"trial_type":"audio-keyboard-response","trial_index":147,"time_elapsed":1838587,"internal_node_id":"0.0-13.0-3.23","match_key":"l","participant_id":"COGS219_2020_30"},{"rt":null,"stimulus":"Sounds/train_sound.wav","key_press":null,"block":1,"trial_type":"audio-keyboard-response","trial_index":148,"time_elapsed":1839882,"internal_node_id":"0.0-13.0-0.24","match_key":"l","participant_id":"COGS219_2020_30"},{"rt":null,"stimulus":"<p style=\"font-size: 48px;\">+</p>","key_press":null,"block":1,"trial_type":"html-keyboard-response","trial_index":149,"time_elapsed":1840880,"internal_node_id":"0.0-13.0-1.24","match_key":"l","participant_id":"COGS219_2020_30"},{"rt":1508.1749999662861,"stimulus":"Images/train_3.png","key_press":76,"stim_onset":1582848367110,"block":1,"match_type":"match","image_category":"train","sound_category":"train","audio_type":"sound","phase":"test","trial_type":"image-keyboard-response","trial_index":150,"time_elapsed":1842389,"internal_node_id":"0.0-13.0-2.24","match_key":"l","participant_id":"COGS219_2020_30","correct":true},{"rt":null,"stimulus":"Sounds/correct.wav","key_press":null,"block":1,"trial_type":"audio-keyboard-response","trial_index":151,"time_elapsed":1844402,"internal_node_id":"0.0-13.0-3.24","match_key":"l","participant_id":"COGS219_2020_30"},{"rt":null,"stimulus":"Sounds/gun_label.wav","key_press":null,"block":1,"trial_type":"audio-keyboard-response","trial_index":152,"time_elapsed":1844982,"internal_node_id":"0.0-13.0-0.25","match_key":"l","participant_id":"COGS219_2020_30"},{"rt":null,"stimulus":"<p style=\"font-size: 48px;\">+</p>","key_press":null,"block":1,"trial_type":"html-keyboard-response","trial_index":153,"time_elapsed":1845980,"internal_node_id":"0.0-13.0-1.25","match_key":"l","participant_id":"COGS219_2020_30"},{"rt":583.9700000360608,"stimulus":"Images/gun_2.png","key_press":76,"stim_onset":1582848372209,"block":1,"match_type":"match","image_category":"gun","sound_category":"gun","audio_type":"label","phase":"test","trial_type":"image-keyboard-response","trial_index":154,"time_elapsed":1846565,"internal_node_id":"0.0-13.0-2.25","match_key":"l","participant_id":"COGS219_2020_30","correct":true},{"rt":null,"stimulus":"Sounds/correct.wav","key_press":null,"block":1,"trial_type":"audio-keyboard-response","trial_index":155,"time_elapsed":1848569,"internal_node_id":"0.0-13.0-3.25","match_key":"l","participant_id":"COGS219_2020_30"},{"rt":null,"stimulus":"Sounds/cow_label.wav","key_press":null,"block":1,"trial_type":"audio-keyboard-response","trial_index":156,"time_elapsed":1849582,"internal_node_id":"0.0-13.0-0.26","match_key":"l","participant_id":"COGS219_2020_30"},{"rt":null,"stimulus":"<p style=\"font-size: 48px;\">+</p>","key_press":null,"block":1,"trial_type":"html-keyboard-response","trial_index":157,"time_elapsed":1850580,"internal_node_id":"0.0-13.0-1.26","match_key":"l","participant_id":"COGS219_2020_30"},{"rt":608.2800000440329,"stimulus":"Images/cat_orig.png","key_press":65,"stim_onset":1582848376809,"block":1,"match_type":"non-match","image_category":"cat","sound_category":"cow","audio_type":"label","phase":"test","trial_type":"image-keyboard-response","trial_index":158,"time_elapsed":1851190,"internal_node_id":"0.0-13.0-2.26","match_key":"l","participant_id":"COGS219_2020_30","correct":true},{"rt":null,"stimulus":"Sounds/correct.wav","key_press":null,"block":1,"trial_type":"audio-keyboard-response","trial_index":159,"time_elapsed":1853200,"internal_node_id":"0.0-13.0-3.26","match_key":"l","participant_id":"COGS219_2020_30"},{"rt":null,"stimulus":"Sounds/motorcycle_sound.wav","key_press":null,"block":1,"trial_type":"audio-keyboard-response","trial_index":160,"time_elapsed":1854322,"internal_node_id":"0.0-13.0-0.27","match_key":"l","participant_id":"COGS219_2020_30"},{"rt":null,"stimulus":"<p style=\"font-size: 48px;\">+</p>","key_press":null,"block":1,"trial_type":"html-keyboard-response","trial_index":161,"time_elapsed":1855314,"internal_node_id":"0.0-13.0-1.27","match_key":"l","participant_id":"COGS219_2020_30"},{"rt":722.7650000713766,"stimulus":"Images/motorcycle_3.png","key_press":76,"stim_onset":1582848381543,"block":1,"match_type":"match","image_category":"motorcycle","sound_category":"motorcycle","audio_type":"sound","phase":"test","trial_type":"image-keyboard-response","trial_index":162,"time_elapsed":1856037,"internal_node_id":"0.0-13.0-2.27","match_key":"l","participant_id":"COGS219_2020_30","correct":true},{"rt":null,"stimulus":"Sounds/correct.wav","key_press":null,"block":1,"trial_type":"audio-keyboard-response","trial_index":163,"time_elapsed":1858053,"internal_node_id":"0.0-13.0-3.27","match_key":"l","participant_id":"COGS219_2020_30"},{"rt":null,"stimulus":"Sounds/car_label.wav","key_press":null,"block":1,"trial_type":"audio-keyboard-response","trial_index":164,"time_elapsed":1859122,"internal_node_id":"0.0-13.0-0.28","match_key":"l","participant_id":"COGS219_2020_30"},{"rt":null,"stimulus":"<p style=\"font-size: 48px;\">+</p>","key_press":null,"block":1,"trial_type":"html-keyboard-response","trial_index":165,"time_elapsed":1860114,"internal_node_id":"0.0-13.0-1.28","match_key":"l","participant_id":"COGS219_2020_30"},{"rt":530.6199999758974,"stimulus":"Images/whistle_cartoon.png","key_press":65,"stim_onset":1582848386343,"block":1,"match_type":"non-match","image_category":"whistle","sound_category":"car","audio_type":"label","phase":"test","trial_type":"image-keyboard-response","trial_index":166,"time_elapsed":1860646,"internal_node_id":"0.0-13.0-2.28","match_key":"l","participant_id":"COGS219_2020_30","correct":true},{"rt":null,"stimulus":"Sounds/correct.wav","key_press":null,"block":1,"trial_type":"audio-keyboard-response","trial_index":167,"time_elapsed":1862656,"internal_node_id":"0.0-13.0-3.28","match_key":"l","participant_id":"COGS219_2020_30"},{"rt":null,"stimulus":"Sounds/gun_sound.wav","key_press":null,"block":1,"trial_type":"audio-keyboard-response","trial_index":168,"time_elapsed":1863242,"internal_node_id":"0.0-13.0-0.29","match_key":"l","participant_id":"COGS219_2020_30"},{"rt":null,"stimulus":"<p style=\"font-size: 48px;\">+</p>","key_press":null,"block":1,"trial_type":"html-keyboard-response","trial_index":169,"time_elapsed":1864230,"internal_node_id":"0.0-13.0-1.29","match_key":"l","participant_id":"COGS219_2020_30"},{"rt":846.6800000751391,"stimulus":"Images/gun_orig.png","key_press":76,"stim_onset":1582848390459,"block":1,"match_type":"match","image_category":"gun","sound_category":"gun","audio_type":"sound","phase":"test","trial_type":"image-keyboard-response","trial_index":170,"time_elapsed":1865078,"internal_node_id":"0.0-13.0-2.29","match_key":"l","participant_id":"COGS219_2020_30","correct":true},{"rt":null,"stimulus":"Sounds/correct.wav","key_press":null,"block":1,"trial_type":"audio-keyboard-response","trial_index":171,"time_elapsed":1867086,"internal_node_id":"0.0-13.0-3.29","match_key":"l","participant_id":"COGS219_2020_30"},{"rt":null,"stimulus":"Sounds/frog_label.wav","key_press":null,"block":1,"trial_type":"audio-keyboard-response","trial_index":172,"time_elapsed":1867982,"internal_node_id":"0.0-13.0-0.30","match_key":"l","participant_id":"COGS219_2020_30"},{"rt":null,"stimulus":"<p style=\"font-size: 48px;\">+</p>","key_press":null,"block":1,"trial_type":"html-keyboard-response","trial_index":173,"time_elapsed":1868981,"internal_node_id":"0.0-13.0-1.30","match_key":"l","participant_id":"COGS219_2020_30"},{"rt":623.8400000147521,"stimulus":"Images/frog_3.png","key_press":76,"stim_onset":1582848395210,"block":1,"match_type":"match","image_category":"frog","sound_category":"frog","audio_type":"label","phase":"test","trial_type":"image-keyboard-response","trial_index":174,"time_elapsed":1869606,"internal_node_id":"0.0-13.0-2.30","match_key":"l","participant_id":"COGS219_2020_30","correct":true},{"rt":null,"stimulus":"Sounds/correct.wav","key_press":null,"block":1,"trial_type":"audio-keyboard-response","trial_index":175,"time_elapsed":1871618,"internal_node_id":"0.0-13.0-3.30","match_key":"l","participant_id":"COGS219_2020_30"},{"rt":null,"stimulus":"Sounds/frog_label.wav","key_press":null,"block":1,"trial_type":"audio-keyboard-response","trial_index":176,"time_elapsed":1872482,"internal_node_id":"0.0-13.0-0.31","match_key":"l","participant_id":"COGS219_2020_30"},{"rt":null,"stimulus":"<p style=\"font-size: 48px;\">+</p>","key_press":null,"block":1,"trial_type":"html-keyboard-response","trial_index":177,"time_elapsed":1873481,"internal_node_id":"0.0-13.0-1.31","match_key":"l","participant_id":"COGS219_2020_30"},{"rt":507.7349999919534,"stimulus":"Images/frog_cartoon.png","key_press":76,"stim_onset":1582848399710,"block":1,"match_type":"match","image_category":"frog","sound_category":"frog","audio_type":"label","phase":"test","trial_type":"image-keyboard-response","trial_index":178,"time_elapsed":1873990,"internal_node_id":"0.0-13.0-2.31","match_key":"l","participant_id":"COGS219_2020_30","correct":true},{"rt":null,"stimulus":"Sounds/correct.wav","key_press":null,"block":1,"trial_type":"audio-keyboard-response","trial_index":179,"time_elapsed":1876000,"internal_node_id":"0.0-13.0-3.31","match_key":"l","participant_id":"COGS219_2020_30"},{"rt":null,"stimulus":"Sounds/train_label.wav","key_press":null,"block":1,"trial_type":"audio-keyboard-response","trial_index":180,"time_elapsed":1877282,"internal_node_id":"0.0-13.0-0.32","match_key":"l","participant_id":"COGS219_2020_30"},{"rt":null,"stimulus":"<p style=\"font-size: 48px;\">+</p>","key_press":null,"block":1,"trial_type":"html-keyboard-response","trial_index":181,"time_elapsed":1878281,"internal_node_id":"0.0-13.0-1.32","match_key":"l","participant_id":"COGS219_2020_30"},{"rt":507.81500001903623,"stimulus":"Images/dog_orig.png","key_press":65,"stim_onset":1582848404510,"block":1,"match_type":"non-match","image_category":"dog","sound_category":"train","audio_type":"label","phase":"test","trial_type":"image-keyboard-response","trial_index":182,"time_elapsed":1878790,"internal_node_id":"0.0-13.0-2.32","match_key":"l","participant_id":"COGS219_2020_30","correct":true},{"rt":null,"stimulus":"Sounds/correct.wav","key_press":null,"block":1,"trial_type":"audio-keyboard-response","trial_index":183,"time_elapsed":1880801,"internal_node_id":"0.0-13.0-3.32","match_key":"l","participant_id":"COGS219_2020_30"},{"rt":null,"stimulus":"Sounds/rooster_label.wav","key_press":null,"block":1,"trial_type":"audio-keyboard-response","trial_index":184,"time_elapsed":1881502,"internal_node_id":"0.0-13.0-0.33","match_key":"l","participant_id":"COGS219_2020_30"},{"rt":null,"stimulus":"<p style=\"font-size: 48px;\">+</p>","key_press":null,"block":1,"trial_type":"html-keyboard-response","trial_index":185,"time_elapsed":1882498,"internal_node_id":"0.0-13.0-1.33","match_key":"l","participant_id":"COGS219_2020_30"},{"rt":674.5949999894947,"stimulus":"Images/rooster_orig.png","key_press":76,"stim_onset":1582848408727,"block":1,"match_type":"match","image_category":"rooster","sound_category":"rooster","audio_type":"label","phase":"test","trial_type":"image-keyboard-response","trial_index":186,"time_elapsed":1883174,"internal_node_id":"0.0-13.0-2.33","match_key":"l","participant_id":"COGS219_2020_30","correct":true},{"rt":null,"stimulus":"Sounds/correct.wav","key_press":null,"block":1,"trial_type":"audio-keyboard-response","trial_index":187,"time_elapsed":1885185,"internal_node_id":"0.0-13.0-3.33","match_key":"l","participant_id":"COGS219_2020_30"},{"rt":null,"stimulus":"Sounds/whistle_label.wav","key_press":null,"block":1,"trial_type":"audio-keyboard-response","trial_index":188,"time_elapsed":1885882,"internal_node_id":"0.0-13.0-0.34","match_key":"l","participant_id":"COGS219_2020_30"},{"rt":null,"stimulus":"<p style=\"font-size: 48px;\">+</p>","key_press":null,"block":1,"trial_type":"html-keyboard-response","trial_index":189,"time_elapsed":1886881,"internal_node_id":"0.0-13.0-1.34","match_key":"l","participant_id":"COGS219_2020_30"},{"rt":515.599999926053,"stimulus":"Images/whistle_orig.png","key_press":76,"stim_onset":1582848413110,"block":1,"match_type":"match","image_category":"whistle","sound_category":"whistle","audio_type":"label","phase":"test","trial_type":"image-keyboard-response","trial_index":190,"time_elapsed":1887398,"internal_node_id":"0.0-13.0-2.34","match_key":"l","participant_id":"COGS219_2020_30","correct":true},{"rt":null,"stimulus":"Sounds/correct.wav","key_press":null,"block":1,"trial_type":"audio-keyboard-response","trial_index":191,"time_elapsed":1889404,"internal_node_id":"0.0-13.0-3.34","match_key":"l","participant_id":"COGS219_2020_30"},{"rt":null,"stimulus":"Sounds/frog_label.wav","key_press":null,"block":1,"trial_type":"audio-keyboard-response","trial_index":192,"time_elapsed":1890302,"internal_node_id":"0.0-13.0-0.35","match_key":"l","participant_id":"COGS219_2020_30"},{"rt":null,"stimulus":"<p style=\"font-size: 48px;\">+</p>","key_press":null,"block":1,"trial_type":"html-keyboard-response","trial_index":193,"time_elapsed":1891298,"internal_node_id":"0.0-13.0-1.35","match_key":"l","participant_id":"COGS219_2020_30"},{"rt":771.0799999767914,"stimulus":"Images/cat_cartoon.png","key_press":65,"stim_onset":1582848417527,"block":1,"match_type":"non-match","image_category":"cat","sound_category":"frog","audio_type":"label","phase":"test","trial_type":"image-keyboard-response","trial_index":194,"time_elapsed":1892070,"internal_node_id":"0.0-13.0-2.35","match_key":"l","participant_id":"COGS219_2020_30","correct":true},{"rt":null,"stimulus":"Sounds/correct.wav","key_press":null,"block":1,"trial_type":"audio-keyboard-response","trial_index":195,"time_elapsed":1894085,"internal_node_id":"0.0-13.0-3.35","match_key":"l","participant_id":"COGS219_2020_30"},{"rt":null,"stimulus":"Sounds/car_sound.wav","key_press":null,"block":1,"trial_type":"audio-keyboard-response","trial_index":196,"time_elapsed":1895162,"internal_node_id":"0.0-13.0-0.36","match_key":"l","participant_id":"COGS219_2020_30"},{"rt":null,"stimulus":"<p style=\"font-size: 48px;\">+</p>","key_press":null,"block":1,"trial_type":"html-keyboard-response","trial_index":197,"time_elapsed":1896164,"internal_node_id":"0.0-13.0-1.36","match_key":"l","participant_id":"COGS219_2020_30"},{"rt":704.2099999962375,"stimulus":"Images/motorcycle_3.png","key_press":76,"stim_onset":1582848422394,"block":1,"match_type":"non-match","image_category":"motorcycle","sound_category":"car","audio_type":"sound","phase":"test","trial_type":"image-keyboard-response","trial_index":198,"time_elapsed":1896870,"internal_node_id":"0.0-13.0-2.36","match_key":"l","participant_id":"COGS219_2020_30","correct":false},{"rt":null,"stimulus":"Sounds/incorrect.wav","key_press":null,"block":1,"trial_type":"audio-keyboard-response","trial_index":199,"time_elapsed":1898885,"internal_node_id":"0.0-13.0-3.36","match_key":"l","participant_id":"COGS219_2020_30"},{"rt":null,"stimulus":"Sounds/cat_label.wav","key_press":null,"block":1,"trial_type":"audio-keyboard-response","trial_index":200,"time_elapsed":1899722,"internal_node_id":"0.0-13.0-0.37","match_key":"l","participant_id":"COGS219_2020_30"},{"rt":null,"stimulus":"<p style=\"font-size: 48px;\">+</p>","key_press":null,"block":1,"trial_type":"html-keyboard-response","trial_index":201,"time_elapsed":1900714,"internal_node_id":"0.0-13.0-1.37","match_key":"l","participant_id":"COGS219_2020_30"},{"rt":698.1150000356138,"stimulus":"Images/cat_2.png","key_press":76,"stim_onset":1582848426944,"block":1,"match_type":"match","image_category":"cat","sound_category":"cat","audio_type":"label","phase":"test","trial_type":"image-keyboard-response","trial_index":202,"time_elapsed":1901414,"internal_node_id":"0.0-13.0-2.37","match_key":"l","participant_id":"COGS219_2020_30","correct":true},{"rt":null,"stimulus":"Sounds/correct.wav","key_press":null,"block":1,"trial_type":"audio-keyboard-response","trial_index":203,"time_elapsed":1903421,"internal_node_id":"0.0-13.0-3.37","match_key":"l","participant_id":"COGS219_2020_30"},{"rt":null,"stimulus":"Sounds/motorcycle_label.wav","key_press":null,"block":1,"trial_type":"audio-keyboard-response","trial_index":204,"time_elapsed":1904562,"internal_node_id":"0.0-13.0-0.38","match_key":"l","participant_id":"COGS219_2020_30"},{"rt":null,"stimulus":"<p style=\"font-size: 48px;\">+</p>","key_press":null,"block":1,"trial_type":"html-keyboard-response","trial_index":205,"time_elapsed":1905565,"internal_node_id":"0.0-13.0-1.38","match_key":"l","participant_id":"COGS219_2020_30"},{"rt":712.2049999888986,"stimulus":"Images/whistle_3.png","key_press":65,"stim_onset":1582848431794,"block":1,"match_type":"non-match","image_category":"whistle","sound_category":"motorcycle","audio_type":"label","phase":"test","trial_type":"image-keyboard-response","trial_index":206,"time_elapsed":1906278,"internal_node_id":"0.0-13.0-2.38","match_key":"l","participant_id":"COGS219_2020_30","correct":true},{"rt":null,"stimulus":"Sounds/correct.wav","key_press":null,"block":1,"trial_type":"audio-keyboard-response","trial_index":207,"time_elapsed":1908286,"internal_node_id":"0.0-13.0-3.38","match_key":"l","participant_id":"COGS219_2020_30"},{"rt":null,"stimulus":"Sounds/rooster_sound.wav","key_press":null,"block":1,"trial_type":"audio-keyboard-response","trial_index":208,"time_elapsed":1908982,"internal_node_id":"0.0-13.0-0.39","match_key":"l","participant_id":"COGS219_2020_30"},{"rt":null,"stimulus":"<p style=\"font-size: 48px;\">+</p>","key_press":null,"block":1,"trial_type":"html-keyboard-response","trial_index":209,"time_elapsed":1909981,"internal_node_id":"0.0-13.0-1.39","match_key":"l","participant_id":"COGS219_2020_30"},{"rt":823.3350000809878,"stimulus":"Images/gun_orig.png","key_press":65,"stim_onset":1582848436210,"block":1,"match_type":"non-match","image_category":"gun","sound_category":"rooster","audio_type":"sound","phase":"test","trial_type":"image-keyboard-response","trial_index":210,"time_elapsed":1910806,"internal_node_id":"0.0-13.0-2.39","match_key":"l","participant_id":"COGS219_2020_30","correct":true},{"rt":null,"stimulus":"Sounds/correct.wav","key_press":null,"block":1,"trial_type":"audio-keyboard-response","trial_index":211,"time_elapsed":1912818,"internal_node_id":"0.0-13.0-3.39","match_key":"l","participant_id":"COGS219_2020_30"},{"rt":null,"stimulus":"Sounds/cow_label.wav","key_press":null,"block":1,"trial_type":"audio-keyboard-response","trial_index":212,"time_elapsed":1913842,"internal_node_id":"0.0-13.0-0.40","match_key":"l","participant_id":"COGS219_2020_30"},{"rt":null,"stimulus":"<p style=\"font-size: 48px;\">+</p>","key_press":null,"block":1,"trial_type":"html-keyboard-response","trial_index":213,"time_elapsed":1914848,"internal_node_id":"0.0-13.0-1.40","match_key":"l","participant_id":"COGS219_2020_30"},{"rt":548.4300000825897,"stimulus":"Images/train_3.png","key_press":65,"stim_onset":1582848441077,"block":1,"match_type":"non-match","image_category":"train","sound_category":"cow","audio_type":"label","phase":"test","trial_type":"image-keyboard-response","trial_index":214,"time_elapsed":1915398,"internal_node_id":"0.0-13.0-2.40","match_key":"l","participant_id":"COGS219_2020_30","correct":true},{"rt":null,"stimulus":"Sounds/correct.wav","key_press":null,"block":1,"trial_type":"audio-keyboard-response","trial_index":215,"time_elapsed":1917403,"internal_node_id":"0.0-13.0-3.40","match_key":"l","participant_id":"COGS219_2020_30"},{"rt":null,"stimulus":"Sounds/car_sound.wav","key_press":null,"block":1,"trial_type":"audio-keyboard-response","trial_index":216,"time_elapsed":1918482,"internal_node_id":"0.0-13.0-0.41","match_key":"l","participant_id":"COGS219_2020_30"},{"rt":null,"stimulus":"<p style=\"font-size: 48px;\">+</p>","key_press":null,"block":1,"trial_type":"html-keyboard-response","trial_index":217,"time_elapsed":1919481,"internal_node_id":"0.0-13.0-1.41","match_key":"l","participant_id":"COGS219_2020_30"},{"rt":475.31000000890344,"stimulus":"Images/dog_1.png","key_press":65,"stim_onset":1582848445711,"block":1,"match_type":"non-match","image_category":"dog","sound_category":"car","audio_type":"sound","phase":"test","trial_type":"image-keyboard-response","trial_index":218,"time_elapsed":1919958,"internal_node_id":"0.0-13.0-2.41","match_key":"l","participant_id":"COGS219_2020_30","correct":true},{"rt":null,"stimulus":"Sounds/correct.wav","key_press":null,"block":1,"trial_type":"audio-keyboard-response","trial_index":219,"time_elapsed":1921969,"internal_node_id":"0.0-13.0-3.41","match_key":"l","participant_id":"COGS219_2020_30"},{"rt":null,"stimulus":"Sounds/rooster_label.wav","key_press":null,"block":1,"trial_type":"audio-keyboard-response","trial_index":220,"time_elapsed":1922662,"internal_node_id":"0.0-13.0-0.42","match_key":"l","participant_id":"COGS219_2020_30"},{"rt":null,"stimulus":"<p style=\"font-size: 48px;\">+</p>","key_press":null,"block":1,"trial_type":"html-keyboard-response","trial_index":221,"time_elapsed":1923665,"internal_node_id":"0.0-13.0-1.42","match_key":"l","participant_id":"COGS219_2020_30"},{"rt":706.8450000369921,"stimulus":"Images/rooster_1.png","key_press":76,"stim_onset":1582848449894,"block":1,"match_type":"match","image_category":"rooster","sound_category":"rooster","audio_type":"label","phase":"test","trial_type":"image-keyboard-response","trial_index":222,"time_elapsed":1924374,"internal_node_id":"0.0-13.0-2.42","match_key":"l","participant_id":"COGS219_2020_30","correct":true},{"rt":null,"stimulus":"Sounds/correct.wav","key_press":null,"block":1,"trial_type":"audio-keyboard-response","trial_index":223,"time_elapsed":1926385,"internal_node_id":"0.0-13.0-3.42","match_key":"l","participant_id":"COGS219_2020_30"},{"rt":null,"stimulus":"Sounds/cow_label.wav","key_press":null,"block":1,"trial_type":"audio-keyboard-response","trial_index":224,"time_elapsed":1927382,"internal_node_id":"0.0-13.0-0.43","match_key":"l","participant_id":"COGS219_2020_30"},{"rt":null,"stimulus":"<p style=\"font-size: 48px;\">+</p>","key_press":null,"block":1,"trial_type":"html-keyboard-response","trial_index":225,"time_elapsed":1928381,"internal_node_id":"0.0-13.0-1.43","match_key":"l","participant_id":"COGS219_2020_30"},{"rt":487.21000005025417,"stimulus":"Images/cow_orig.png","key_press":76,"stim_onset":1582848454611,"block":1,"match_type":"match","image_category":"cow","sound_category":"cow","audio_type":"label","phase":"test","trial_type":"image-keyboard-response","trial_index":226,"time_elapsed":1928870,"internal_node_id":"0.0-13.0-2.43","match_key":"l","participant_id":"COGS219_2020_30","correct":true},{"rt":null,"stimulus":"Sounds/correct.wav","key_press":null,"block":1,"trial_type":"audio-keyboard-response","trial_index":227,"time_elapsed":1930885,"internal_node_id":"0.0-13.0-3.43","match_key":"l","participant_id":"COGS219_2020_30"},{"rt":null,"stimulus":"Sounds/dog_sound.wav","key_press":null,"block":1,"trial_type":"audio-keyboard-response","trial_index":228,"time_elapsed":1931601,"internal_node_id":"0.0-13.0-0.44","match_key":"l","participant_id":"COGS219_2020_30"},{"rt":null,"stimulus":"<p style=\"font-size: 48px;\">+</p>","key_press":null,"block":1,"trial_type":"html-keyboard-response","trial_index":229,"time_elapsed":1932598,"internal_node_id":"0.0-13.0-1.44","match_key":"l","participant_id":"COGS219_2020_30"},{"rt":462.61500008404255,"stimulus":"Images/dog_1.png","key_press":76,"stim_onset":1582848458827,"block":1,"match_type":"match","image_category":"dog","sound_category":"dog","audio_type":"sound","phase":"test","trial_type":"image-keyboard-response","trial_index":230,"time_elapsed":1933061,"internal_node_id":"0.0-13.0-2.44","match_key":"l","participant_id":"COGS219_2020_30","correct":true},{"rt":null,"stimulus":"Sounds/correct.wav","key_press":null,"block":1,"trial_type":"audio-keyboard-response","trial_index":231,"time_elapsed":1935070,"internal_node_id":"0.0-13.0-3.44","match_key":"l","participant_id":"COGS219_2020_30"},{"rt":null,"stimulus":"Sounds/dog_sound.wav","key_press":null,"block":1,"trial_type":"audio-keyboard-response","trial_index":232,"time_elapsed":1935761,"internal_node_id":"0.0-13.0-0.45","match_key":"l","participant_id":"COGS219_2020_30"},{"rt":null,"stimulus":"<p style=\"font-size: 48px;\">+</p>","key_press":null,"block":1,"trial_type":"html-keyboard-response","trial_index":233,"time_elapsed":1936764,"internal_node_id":"0.0-13.0-1.45","match_key":"l","participant_id":"COGS219_2020_30"},{"rt":439.70500002615154,"stimulus":"Images/gun_cartoon.png","key_press":65,"stim_onset":1582848462994,"block":1,"match_type":"non-match","image_category":"gun","sound_category":"dog","audio_type":"sound","phase":"test","trial_type":"image-keyboard-response","trial_index":234,"time_elapsed":1937205,"internal_node_id":"0.0-13.0-2.45","match_key":"l","participant_id":"COGS219_2020_30","correct":true},{"rt":null,"stimulus":"Sounds/correct.wav","key_press":null,"block":1,"trial_type":"audio-keyboard-response","trial_index":235,"time_elapsed":1939222,"internal_node_id":"0.0-13.0-3.45","match_key":"l","participant_id":"COGS219_2020_30"},{"rt":null,"stimulus":"Sounds/dog_sound.wav","key_press":null,"block":1,"trial_type":"audio-keyboard-response","trial_index":236,"time_elapsed":1939921,"internal_node_id":"0.0-13.0-0.46","match_key":"l","participant_id":"COGS219_2020_30"},{"rt":null,"stimulus":"<p style=\"font-size: 48px;\">+</p>","key_press":null,"block":1,"trial_type":"html-keyboard-response","trial_index":237,"time_elapsed":1940914,"internal_node_id":"0.0-13.0-1.46","match_key":"l","participant_id":"COGS219_2020_30"},{"rt":481.64000001270324,"stimulus":"Images/frog_2.png","key_press":65,"stim_onset":1582848467144,"block":1,"match_type":"non-match","image_category":"frog","sound_category":"dog","audio_type":"sound","phase":"test","trial_type":"image-keyboard-response","trial_index":238,"time_elapsed":1941397,"internal_node_id":"0.0-13.0-2.46","match_key":"l","participant_id":"COGS219_2020_30","correct":true},{"rt":null,"stimulus":"Sounds/correct.wav","key_press":null,"block":1,"trial_type":"audio-keyboard-response","trial_index":239,"time_elapsed":1943404,"internal_node_id":"0.0-13.0-3.46","match_key":"l","participant_id":"COGS219_2020_30"},{"rt":null,"stimulus":"Sounds/rooster_sound.wav","key_press":null,"block":1,"trial_type":"audio-keyboard-response","trial_index":240,"time_elapsed":1944101,"internal_node_id":"0.0-13.0-0.47","match_key":"l","participant_id":"COGS219_2020_30"},{"rt":null,"stimulus":"<p style=\"font-size: 48px;\">+</p>","key_press":null,"block":1,"trial_type":"html-keyboard-response","trial_index":241,"time_elapsed":1945098,"internal_node_id":"0.0-13.0-1.47","match_key":"l","participant_id":"COGS219_2020_30"},{"rt":442.5000000046566,"stimulus":"Images/rooster_3.png","key_press":76,"stim_onset":1582848471327,"block":1,"match_type":"match","image_category":"rooster","sound_category":"rooster","audio_type":"sound","phase":"test","trial_type":"image-keyboard-response","trial_index":242,"time_elapsed":1945541,"internal_node_id":"0.0-13.0-2.47","match_key":"l","participant_id":"COGS219_2020_30","correct":true},{"rt":null,"stimulus":"Sounds/correct.wav","key_press":null,"block":1,"trial_type":"audio-keyboard-response","trial_index":243,"time_elapsed":1947551,"internal_node_id":"0.0-13.0-3.47","match_key":"l","participant_id":"COGS219_2020_30"},{"rt":null,"stimulus":"Sounds/gun_label.wav","key_press":null,"block":1,"trial_type":"audio-keyboard-response","trial_index":244,"time_elapsed":1948121,"internal_node_id":"0.0-13.0-0.48","match_key":"l","participant_id":"COGS219_2020_30"},{"rt":null,"stimulus":"<p style=\"font-size: 48px;\">+</p>","key_press":null,"block":1,"trial_type":"html-keyboard-response","trial_index":245,"time_elapsed":1949114,"internal_node_id":"0.0-13.0-1.48","match_key":"l","participant_id":"COGS219_2020_30"},{"rt":601.5250000637025,"stimulus":"Images/gun_3.png","key_press":76,"stim_onset":1582848475344,"block":1,"match_type":"match","image_category":"gun","sound_category":"gun","audio_type":"label","phase":"test","trial_type":"image-keyboard-response","trial_index":246,"time_elapsed":1949717,"internal_node_id":"0.0-13.0-2.48","match_key":"l","participant_id":"COGS219_2020_30","correct":true},{"rt":null,"stimulus":"Sounds/correct.wav","key_press":null,"block":1,"trial_type":"audio-keyboard-response","trial_index":247,"time_elapsed":1951720,"internal_node_id":"0.0-13.0-3.48","match_key":"l","participant_id":"COGS219_2020_30"},{"rt":null,"stimulus":"Sounds/frog_sound.wav","key_press":null,"block":1,"trial_type":"audio-keyboard-response","trial_index":248,"time_elapsed":1952621,"internal_node_id":"0.0-13.0-0.49","match_key":"l","participant_id":"COGS219_2020_30"},{"rt":null,"stimulus":"<p style=\"font-size: 48px;\">+</p>","key_press":null,"block":1,"trial_type":"html-keyboard-response","trial_index":249,"time_elapsed":1953614,"internal_node_id":"0.0-13.0-1.49","match_key":"l","participant_id":"COGS219_2020_30"},{"rt":725.7900000549853,"stimulus":"Images/motorcycle_orig.png","key_press":65,"stim_onset":1582848479844,"block":1,"match_type":"non-match","image_category":"motorcycle","sound_category":"frog","audio_type":"sound","phase":"test","trial_type":"image-keyboard-response","trial_index":250,"time_elapsed":1954341,"internal_node_id":"0.0-13.0-2.49","match_key":"l","participant_id":"COGS219_2020_30","correct":true},{"rt":null,"stimulus":"Sounds/correct.wav","key_press":null,"block":1,"trial_type":"audio-keyboard-response","trial_index":251,"time_elapsed":1956351,"internal_node_id":"0.0-13.0-3.49","match_key":"l","participant_id":"COGS219_2020_30"},{"rt":null,"stimulus":"Sounds/cat_label.wav","key_press":null,"block":1,"trial_type":"audio-keyboard-response","trial_index":252,"time_elapsed":1957181,"internal_node_id":"0.0-13.0-0.50","match_key":"l","participant_id":"COGS219_2020_30"},{"rt":null,"stimulus":"<p style=\"font-size: 48px;\">+</p>","key_press":null,"block":1,"trial_type":"html-keyboard-response","trial_index":253,"time_elapsed":1958181,"internal_node_id":"0.0-13.0-1.50","match_key":"l","participant_id":"COGS219_2020_30"},{"rt":591.2650000536814,"stimulus":"Images/dog_3.png","key_press":65,"stim_onset":1582848484410,"block":1,"match_type":"non-match","image_category":"dog","sound_category":"cat","audio_type":"label","phase":"test","trial_type":"image-keyboard-response","trial_index":254,"time_elapsed":1958773,"internal_node_id":"0.0-13.0-2.50","match_key":"l","participant_id":"COGS219_2020_30","correct":true},{"rt":null,"stimulus":"Sounds/correct.wav","key_press":null,"block":1,"trial_type":"audio-keyboard-response","trial_index":255,"time_elapsed":1960786,"internal_node_id":"0.0-13.0-3.50","match_key":"l","participant_id":"COGS219_2020_30"},{"rt":null,"stimulus":"Sounds/gun_label.wav","key_press":null,"block":1,"trial_type":"audio-keyboard-response","trial_index":256,"time_elapsed":1961342,"internal_node_id":"0.0-13.0-0.51","match_key":"l","participant_id":"COGS219_2020_30"},{"rt":null,"stimulus":"<p style=\"font-size: 48px;\">+</p>","key_press":null,"block":1,"trial_type":"html-keyboard-response","trial_index":257,"time_elapsed":1962331,"internal_node_id":"0.0-13.0-1.51","match_key":"l","participant_id":"COGS219_2020_30"},{"rt":632.9749999567866,"stimulus":"Images/whistle_2.png","key_press":65,"stim_onset":1582848488560,"block":1,"match_type":"non-match","image_category":"whistle","sound_category":"gun","audio_type":"label","phase":"test","trial_type":"image-keyboard-response","trial_index":258,"time_elapsed":1962965,"internal_node_id":"0.0-13.0-2.51","match_key":"l","participant_id":"COGS219_2020_30","correct":true},{"rt":null,"stimulus":"Sounds/correct.wav","key_press":null,"block":1,"trial_type":"audio-keyboard-response","trial_index":259,"time_elapsed":1964972,"internal_node_id":"0.0-13.0-3.51","match_key":"l","participant_id":"COGS219_2020_30"},{"rt":null,"stimulus":"Sounds/motorcycle_label.wav","key_press":null,"block":1,"trial_type":"audio-keyboard-response","trial_index":260,"time_elapsed":1966121,"internal_node_id":"0.0-13.0-0.52","match_key":"l","participant_id":"COGS219_2020_30"},{"rt":null,"stimulus":"<p style=\"font-size: 48px;\">+</p>","key_press":null,"block":1,"trial_type":"html-keyboard-response","trial_index":261,"time_elapsed":1967115,"internal_node_id":"0.0-13.0-1.52","match_key":"l","participant_id":"COGS219_2020_30"},{"rt":969.2550000036135,"stimulus":"Images/motorcycle_1.png","key_press":76,"stim_onset":1582848493344,"block":1,"match_type":"match","image_category":"motorcycle","sound_category":"motorcycle","audio_type":"label","phase":"test","trial_type":"image-keyboard-response","trial_index":262,"time_elapsed":1968085,"internal_node_id":"0.0-13.0-2.52","match_key":"l","participant_id":"COGS219_2020_30","correct":true},{"rt":null,"stimulus":"Sounds/correct.wav","key_press":null,"block":1,"trial_type":"audio-keyboard-response","trial_index":263,"time_elapsed":1970087,"internal_node_id":"0.0-13.0-3.52","match_key":"l","participant_id":"COGS219_2020_30"},{"rt":null,"stimulus":"Sounds/cat_sound.wav","key_press":null,"block":1,"trial_type":"audio-keyboard-response","trial_index":264,"time_elapsed":1970921,"internal_node_id":"0.0-13.0-0.53","match_key":"l","participant_id":"COGS219_2020_30"},{"rt":null,"stimulus":"<p style=\"font-size: 48px;\">+</p>","key_press":null,"block":1,"trial_type":"html-keyboard-response","trial_index":265,"time_elapsed":1971915,"internal_node_id":"0.0-13.0-1.53","match_key":"l","participant_id":"COGS219_2020_30"},{"rt":617.714999942109,"stimulus":"Images/cat_3.png","key_press":76,"stim_onset":1582848498144,"block":1,"match_type":"match","image_category":"cat","sound_category":"cat","audio_type":"sound","phase":"test","trial_type":"image-keyboard-response","trial_index":266,"time_elapsed":1972533,"internal_node_id":"0.0-13.0-2.53","match_key":"l","participant_id":"COGS219_2020_30","correct":true},{"rt":null,"stimulus":"Sounds/correct.wav","key_press":null,"block":1,"trial_type":"audio-keyboard-response","trial_index":267,"time_elapsed":1974537,"internal_node_id":"0.0-13.0-3.53","match_key":"l","participant_id":"COGS219_2020_30"},{"rt":null,"stimulus":"Sounds/car_label.wav","key_press":null,"block":1,"trial_type":"audio-keyboard-response","trial_index":268,"time_elapsed":1975621,"internal_node_id":"0.0-13.0-0.54","match_key":"l","participant_id":"COGS219_2020_30"},{"rt":null,"stimulus":"<p style=\"font-size: 48px;\">+</p>","key_press":null,"block":1,"trial_type":"html-keyboard-response","trial_index":269,"time_elapsed":1976615,"internal_node_id":"0.0-13.0-1.54","match_key":"l","participant_id":"COGS219_2020_30"},{"rt":653.2850000075996,"stimulus":"Images/car_orig.png","key_press":76,"stim_onset":1582848502844,"block":1,"match_type":"match","image_category":"car","sound_category":"car","audio_type":"label","phase":"test","trial_type":"image-keyboard-response","trial_index":270,"time_elapsed":1977269,"internal_node_id":"0.0-13.0-2.54","match_key":"l","participant_id":"COGS219_2020_30","correct":true},{"rt":null,"stimulus":"Sounds/correct.wav","key_press":null,"block":1,"trial_type":"audio-keyboard-response","trial_index":271,"time_elapsed":1979287,"internal_node_id":"0.0-13.0-3.54","match_key":"l","participant_id":"COGS219_2020_30"},{"rt":null,"stimulus":"Sounds/train_sound.wav","key_press":null,"block":1,"trial_type":"audio-keyboard-response","trial_index":272,"time_elapsed":1980581,"internal_node_id":"0.0-13.0-0.55","match_key":"l","participant_id":"COGS219_2020_30"},{"rt":null,"stimulus":"<p style=\"font-size: 48px;\">+</p>","key_press":null,"block":1,"trial_type":"html-keyboard-response","trial_index":273,"time_elapsed":1981581,"internal_node_id":"0.0-13.0-1.55","match_key":"l","participant_id":"COGS219_2020_30"},{"rt":454.7749999910593,"stimulus":"Images/rooster_2.png","key_press":65,"stim_onset":1582848507811,"block":1,"match_type":"non-match","image_category":"rooster","sound_category":"train","audio_type":"sound","phase":"test","trial_type":"image-keyboard-response","trial_index":274,"time_elapsed":1982037,"internal_node_id":"0.0-13.0-2.55","match_key":"l","participant_id":"COGS219_2020_30","correct":true},{"rt":null,"stimulus":"Sounds/correct.wav","key_press":null,"block":1,"trial_type":"audio-keyboard-response","trial_index":275,"time_elapsed":1984052,"internal_node_id":"0.0-13.0-3.55","match_key":"l","participant_id":"COGS219_2020_30"},{"rt":null,"stimulus":"Sounds/cow_sound.wav","key_press":null,"block":1,"trial_type":"audio-keyboard-response","trial_index":276,"time_elapsed":1985062,"internal_node_id":"0.0-13.0-0.56","match_key":"l","participant_id":"COGS219_2020_30"},{"rt":null,"stimulus":"<p style=\"font-size: 48px;\">+</p>","key_press":null,"block":1,"trial_type":"html-keyboard-response","trial_index":277,"time_elapsed":1986065,"internal_node_id":"0.0-13.0-1.56","match_key":"l","participant_id":"COGS219_2020_30"},{"rt":499.71000000368804,"stimulus":"Images/cow_2.png","key_press":76,"stim_onset":1582848512294,"block":1,"match_type":"match","image_category":"cow","sound_category":"cow","audio_type":"sound","phase":"test","trial_type":"image-keyboard-response","trial_index":278,"time_elapsed":1986566,"internal_node_id":"0.0-13.0-2.56","match_key":"l","participant_id":"COGS219_2020_30","correct":true},{"rt":null,"stimulus":"Sounds/correct.wav","key_press":null,"block":1,"trial_type":"audio-keyboard-response","trial_index":279,"time_elapsed":1988571,"internal_node_id":"0.0-13.0-3.56","match_key":"l","participant_id":"COGS219_2020_30"},{"rt":null,"stimulus":"Sounds/gun_sound.wav","key_press":null,"block":1,"trial_type":"audio-keyboard-response","trial_index":280,"time_elapsed":1989141,"internal_node_id":"0.0-13.0-0.57","match_key":"l","participant_id":"COGS219_2020_30"},{"rt":null,"stimulus":"<p style=\"font-size: 48px;\">+</p>","key_press":null,"block":1,"trial_type":"html-keyboard-response","trial_index":281,"time_elapsed":1990132,"internal_node_id":"0.0-13.0-1.57","match_key":"l","participant_id":"COGS219_2020_30"},{"rt":768.4850000077859,"stimulus":"Images/gun_1.png","key_press":76,"stim_onset":1582848516361,"block":1,"match_type":"match","image_category":"gun","sound_category":"gun","audio_type":"sound","phase":"test","trial_type":"image-keyboard-response","trial_index":282,"time_elapsed":1990896,"internal_node_id":"0.0-13.0-2.57","match_key":"l","participant_id":"COGS219_2020_30","correct":true},{"rt":null,"stimulus":"Sounds/correct.wav","key_press":null,"block":1,"trial_type":"audio-keyboard-response","trial_index":283,"time_elapsed":1992900,"internal_node_id":"0.0-13.0-3.57","match_key":"l","participant_id":"COGS219_2020_30"},{"rt":null,"stimulus":"Sounds/cat_label.wav","key_press":null,"block":1,"trial_type":"audio-keyboard-response","trial_index":284,"time_elapsed":1993736,"internal_node_id":"0.0-13.0-0.58","match_key":"l","participant_id":"COGS219_2020_30"},{"rt":null,"stimulus":"<p style=\"font-size: 48px;\">+</p>","key_press":null,"block":1,"trial_type":"html-keyboard-response","trial_index":285,"time_elapsed":1994726,"internal_node_id":"0.0-13.0-1.58","match_key":"l","participant_id":"COGS219_2020_30"},{"rt":568.4449999826029,"stimulus":"Images/rooster_orig.png","key_press":65,"stim_onset":1582848520956,"block":1,"match_type":"non-match","image_category":"rooster","sound_category":"cat","audio_type":"label","phase":"test","trial_type":"image-keyboard-response","trial_index":286,"time_elapsed":1995296,"internal_node_id":"0.0-13.0-2.58","match_key":"l","participant_id":"COGS219_2020_30","correct":true},{"rt":null,"stimulus":"Sounds/correct.wav","key_press":null,"block":1,"trial_type":"audio-keyboard-response","trial_index":287,"time_elapsed":1997299,"internal_node_id":"0.0-13.0-3.58","match_key":"l","participant_id":"COGS219_2020_30"},{"rt":null,"stimulus":"Sounds/whistle_label.wav","key_press":null,"block":1,"trial_type":"audio-keyboard-response","trial_index":288,"time_elapsed":1997996,"internal_node_id":"0.0-13.0-0.59","match_key":"l","participant_id":"COGS219_2020_30"},{"rt":null,"stimulus":"<p style=\"font-size: 48px;\">+</p>","key_press":null,"block":1,"trial_type":"html-keyboard-response","trial_index":289,"time_elapsed":1998993,"internal_node_id":"0.0-13.0-1.59","match_key":"l","participant_id":"COGS219_2020_30"},{"rt":622.0350000075996,"stimulus":"Images/whistle_3.png","key_press":76,"stim_onset":1582848525222,"block":1,"match_type":"match","image_category":"whistle","sound_category":"whistle","audio_type":"label","phase":"test","trial_type":"image-keyboard-response","trial_index":290,"time_elapsed":1999616,"internal_node_id":"0.0-13.0-2.59","match_key":"l","participant_id":"COGS219_2020_30","correct":true},{"rt":null,"stimulus":"Sounds/correct.wav","key_press":null,"block":1,"trial_type":"audio-keyboard-response","trial_index":291,"time_elapsed":2001631,"internal_node_id":"0.0-13.0-3.59","match_key":"l","participant_id":"COGS219_2020_30"},{"rt":null,"stimulus":"Sounds/train_sound.wav","key_press":null,"block":1,"trial_type":"audio-keyboard-response","trial_index":292,"time_elapsed":2002936,"internal_node_id":"0.0-13.0-0.60","match_key":"l","participant_id":"COGS219_2020_30"},{"rt":null,"stimulus":"<p style=\"font-size: 48px;\">+</p>","key_press":null,"block":1,"trial_type":"html-keyboard-response","trial_index":293,"time_elapsed":2003926,"internal_node_id":"0.0-13.0-1.60","match_key":"l","participant_id":"COGS219_2020_30"},{"rt":456.3749999506399,"stimulus":"Images/gun_2.png","key_press":65,"stim_onset":1582848530156,"block":1,"match_type":"non-match","image_category":"gun","sound_category":"train","audio_type":"sound","phase":"test","trial_type":"image-keyboard-response","trial_index":294,"time_elapsed":2004384,"internal_node_id":"0.0-13.0-2.60","match_key":"l","participant_id":"COGS219_2020_30","correct":true},{"rt":null,"stimulus":"Sounds/correct.wav","key_press":null,"block":1,"trial_type":"audio-keyboard-response","trial_index":295,"time_elapsed":2006397,"internal_node_id":"0.0-13.0-3.60","match_key":"l","participant_id":"COGS219_2020_30"},{"rt":null,"stimulus":"Sounds/whistle_label.wav","key_press":null,"block":1,"trial_type":"audio-keyboard-response","trial_index":296,"time_elapsed":2007076,"internal_node_id":"0.0-13.0-0.61","match_key":"l","participant_id":"COGS219_2020_30"},{"rt":null,"stimulus":"<p style=\"font-size: 48px;\">+</p>","key_press":null,"block":1,"trial_type":"html-keyboard-response","trial_index":297,"time_elapsed":2008077,"internal_node_id":"0.0-13.0-1.61","match_key":"l","participant_id":"COGS219_2020_30"},{"rt":514.3299999181181,"stimulus":"Images/motorcycle_2.png","key_press":65,"stim_onset":1582848534306,"block":1,"match_type":"non-match","image_category":"motorcycle","sound_category":"whistle","audio_type":"label","phase":"test","trial_type":"image-keyboard-response","trial_index":298,"time_elapsed":2008592,"internal_node_id":"0.0-13.0-2.61","match_key":"l","participant_id":"COGS219_2020_30","correct":true},{"rt":null,"stimulus":"Sounds/correct.wav","key_press":null,"block":1,"trial_type":"audio-keyboard-response","trial_index":299,"time_elapsed":2010599,"internal_node_id":"0.0-13.0-3.61","match_key":"l","participant_id":"COGS219_2020_30"},{"rt":null,"stimulus":"Sounds/frog_label.wav","key_press":null,"block":1,"trial_type":"audio-keyboard-response","trial_index":300,"time_elapsed":2011496,"internal_node_id":"0.0-13.0-0.62","match_key":"l","participant_id":"COGS219_2020_30"},{"rt":null,"stimulus":"<p style=\"font-size: 48px;\">+</p>","key_press":null,"block":1,"trial_type":"html-keyboard-response","trial_index":301,"time_elapsed":2012493,"internal_node_id":"0.0-13.0-1.62","match_key":"l","participant_id":"COGS219_2020_30"},{"rt":481.679999968037,"stimulus":"Images/cow_cartoon.png","key_press":65,"stim_onset":1582848538722,"block":1,"match_type":"non-match","image_category":"cow","sound_category":"frog","audio_type":"label","phase":"test","trial_type":"image-keyboard-response","trial_index":302,"time_elapsed":2012976,"internal_node_id":"0.0-13.0-2.62","match_key":"l","participant_id":"COGS219_2020_30","correct":true},{"rt":null,"stimulus":"Sounds/correct.wav","key_press":null,"block":1,"trial_type":"audio-keyboard-response","trial_index":303,"time_elapsed":2014983,"internal_node_id":"0.0-13.0-3.62","match_key":"l","participant_id":"COGS219_2020_30"},{"rt":null,"stimulus":"Sounds/frog_sound.wav","key_press":null,"block":1,"trial_type":"audio-keyboard-response","trial_index":304,"time_elapsed":2015896,"internal_node_id":"0.0-13.0-0.63","match_key":"l","participant_id":"COGS219_2020_30"},{"rt":null,"stimulus":"<p style=\"font-size: 48px;\">+</p>","key_press":null,"block":1,"trial_type":"html-keyboard-response","trial_index":305,"time_elapsed":2016893,"internal_node_id":"0.0-13.0-1.63","match_key":"l","participant_id":"COGS219_2020_30"},{"rt":785.3950000135228,"stimulus":"Images/frog_orig.png","key_press":76,"stim_onset":1582848543122,"block":1,"match_type":"match","image_category":"frog","sound_category":"frog","audio_type":"sound","phase":"test","trial_type":"image-keyboard-response","trial_index":306,"time_elapsed":2017680,"internal_node_id":"0.0-13.0-2.63","match_key":"l","participant_id":"COGS219_2020_30","correct":true},{"rt":null,"stimulus":"Sounds/correct.wav","key_press":null,"block":1,"trial_type":"audio-keyboard-response","trial_index":307,"time_elapsed":2019697,"internal_node_id":"0.0-13.0-3.63","match_key":"l","participant_id":"COGS219_2020_30"},{"rt":null,"stimulus":"Sounds/cat_label.wav","key_press":null,"block":1,"trial_type":"audio-keyboard-response","trial_index":308,"time_elapsed":2020536,"internal_node_id":"0.0-13.0-0.64","match_key":"l","participant_id":"COGS219_2020_30"},{"rt":null,"stimulus":"<p style=\"font-size: 48px;\">+</p>","key_press":null,"block":1,"trial_type":"html-keyboard-response","trial_index":309,"time_elapsed":2021527,"internal_node_id":"0.0-13.0-1.64","match_key":"l","participant_id":"COGS219_2020_30"},{"rt":440.16500003635883,"stimulus":"Images/cat_orig.png","key_press":76,"stim_onset":1582848547756,"block":1,"match_type":"match","image_category":"cat","sound_category":"cat","audio_type":"label","phase":"test","trial_type":"image-keyboard-response","trial_index":310,"time_elapsed":2021968,"internal_node_id":"0.0-13.0-2.64","match_key":"l","participant_id":"COGS219_2020_30","correct":true},{"rt":null,"stimulus":"Sounds/correct.wav","key_press":null,"block":1,"trial_type":"audio-keyboard-response","trial_index":311,"time_elapsed":2023980,"internal_node_id":"0.0-13.0-3.64","match_key":"l","participant_id":"COGS219_2020_30"},{"rt":null,"stimulus":"Sounds/car_label.wav","key_press":null,"block":1,"trial_type":"audio-keyboard-response","trial_index":312,"time_elapsed":2025056,"internal_node_id":"0.0-13.0-0.65","match_key":"l","participant_id":"COGS219_2020_30"},{"rt":null,"stimulus":"<p style=\"font-size: 48px;\">+</p>","key_press":null,"block":1,"trial_type":"html-keyboard-response","trial_index":313,"time_elapsed":2026060,"internal_node_id":"0.0-13.0-1.65","match_key":"l","participant_id":"COGS219_2020_30"},{"rt":803.1150000169873,"stimulus":"Images/train_1.png","key_press":65,"stim_onset":1582848552289,"block":1,"match_type":"non-match","image_category":"train","sound_category":"car","audio_type":"label","phase":"test","trial_type":"image-keyboard-response","trial_index":314,"time_elapsed":2026864,"internal_node_id":"0.0-13.0-2.65","match_key":"l","participant_id":"COGS219_2020_30","correct":true},{"rt":null,"stimulus":"Sounds/correct.wav","key_press":null,"block":1,"trial_type":"audio-keyboard-response","trial_index":315,"time_elapsed":2028882,"internal_node_id":"0.0-13.0-3.65","match_key":"l","participant_id":"COGS219_2020_30"},{"rt":null,"stimulus":"Sounds/frog_sound.wav","key_press":null,"block":1,"trial_type":"audio-keyboard-response","trial_index":316,"time_elapsed":2029776,"internal_node_id":"0.0-13.0-0.66","match_key":"l","participant_id":"COGS219_2020_30"},{"rt":null,"stimulus":"<p style=\"font-size: 48px;\">+</p>","key_press":null,"block":1,"trial_type":"html-keyboard-response","trial_index":317,"time_elapsed":2030777,"internal_node_id":"0.0-13.0-1.66","match_key":"l","participant_id":"COGS219_2020_30"},{"rt":406.06999990995973,"stimulus":"Images/frog_1.png","key_press":76,"stim_onset":1582848557006,"block":1,"match_type":"match","image_category":"frog","sound_category":"frog","audio_type":"sound","phase":"test","trial_type":"image-keyboard-response","trial_index":318,"time_elapsed":2031184,"internal_node_id":"0.0-13.0-2.66","match_key":"l","participant_id":"COGS219_2020_30","correct":true},{"rt":null,"stimulus":"Sounds/correct.wav","key_press":null,"block":1,"trial_type":"audio-keyboard-response","trial_index":319,"time_elapsed":2033197,"internal_node_id":"0.0-13.0-3.66","match_key":"l","participant_id":"COGS219_2020_30"},{"rt":null,"stimulus":"Sounds/cow_label.wav","key_press":null,"block":1,"trial_type":"audio-keyboard-response","trial_index":320,"time_elapsed":2034216,"internal_node_id":"0.0-13.0-0.67","match_key":"l","participant_id":"COGS219_2020_30"},{"rt":null,"stimulus":"<p style=\"font-size: 48px;\">+</p>","key_press":null,"block":1,"trial_type":"html-keyboard-response","trial_index":321,"time_elapsed":2035210,"internal_node_id":"0.0-13.0-1.67","match_key":"l","participant_id":"COGS219_2020_30"},{"rt":500.77499996405095,"stimulus":"Images/dog_cartoon.png","key_press":65,"stim_onset":1582848561439,"block":1,"match_type":"non-match","image_category":"dog","sound_category":"cow","audio_type":"label","phase":"test","trial_type":"image-keyboard-response","trial_index":322,"time_elapsed":2035712,"internal_node_id":"0.0-13.0-2.67","match_key":"l","participant_id":"COGS219_2020_30","correct":true},{"rt":null,"stimulus":"Sounds/correct.wav","key_press":null,"block":1,"trial_type":"audio-keyboard-response","trial_index":323,"time_elapsed":2037716,"internal_node_id":"0.0-13.0-3.67","match_key":"l","participant_id":"COGS219_2020_30"},{"rt":null,"stimulus":"Sounds/rooster_sound.wav","key_press":null,"block":1,"trial_type":"audio-keyboard-response","trial_index":324,"time_elapsed":2038416,"internal_node_id":"0.0-13.0-0.68","match_key":"l","participant_id":"COGS219_2020_30"},{"rt":null,"stimulus":"<p style=\"font-size: 48px;\">+</p>","key_press":null,"block":1,"trial_type":"html-keyboard-response","trial_index":325,"time_elapsed":2039410,"internal_node_id":"0.0-13.0-1.68","match_key":"l","participant_id":"COGS219_2020_30"},{"rt":524.8300000093877,"stimulus":"Images/rooster_cartoon.png","key_press":76,"stim_onset":1582848565639,"block":1,"match_type":"match","image_category":"rooster","sound_category":"rooster","audio_type":"sound","phase":"test","trial_type":"image-keyboard-response","trial_index":326,"time_elapsed":2039936,"internal_node_id":"0.0-13.0-2.68","match_key":"l","participant_id":"COGS219_2020_30","correct":true},{"rt":null,"stimulus":"Sounds/correct.wav","key_press":null,"block":1,"trial_type":"audio-keyboard-response","trial_index":327,"time_elapsed":2041947,"internal_node_id":"0.0-13.0-3.68","match_key":"l","participant_id":"COGS219_2020_30"},{"rt":null,"stimulus":"Sounds/rooster_sound.wav","key_press":null,"block":1,"trial_type":"audio-keyboard-response","trial_index":328,"time_elapsed":2042616,"internal_node_id":"0.0-13.0-0.69","match_key":"l","participant_id":"COGS219_2020_30"},{"rt":null,"stimulus":"<p style=\"font-size: 48px;\">+</p>","key_press":null,"block":1,"trial_type":"html-keyboard-response","trial_index":329,"time_elapsed":2043610,"internal_node_id":"0.0-13.0-1.69","match_key":"l","participant_id":"COGS219_2020_30"},{"rt":500.62499998603016,"stimulus":"Images/cow_2.png","key_press":65,"stim_onset":1582848569840,"block":1,"match_type":"non-match","image_category":"cow","sound_category":"rooster","audio_type":"sound","phase":"test","trial_type":"image-keyboard-response","trial_index":330,"time_elapsed":2044112,"internal_node_id":"0.0-13.0-2.69","match_key":"l","participant_id":"COGS219_2020_30","correct":true},{"rt":null,"stimulus":"Sounds/correct.wav","key_press":null,"block":1,"trial_type":"audio-keyboard-response","trial_index":331,"time_elapsed":2046117,"internal_node_id":"0.0-13.0-3.69","match_key":"l","participant_id":"COGS219_2020_30"},{"rt":null,"stimulus":"Sounds/whistle_label.wav","key_press":null,"block":1,"trial_type":"audio-keyboard-response","trial_index":332,"time_elapsed":2046816,"internal_node_id":"0.0-13.0-0.70","match_key":"l","participant_id":"COGS219_2020_30"},{"rt":null,"stimulus":"<p style=\"font-size: 48px;\">+</p>","key_press":null,"block":1,"trial_type":"html-keyboard-response","trial_index":333,"time_elapsed":2047810,"internal_node_id":"0.0-13.0-1.70","match_key":"l","participant_id":"COGS219_2020_30"},{"rt":492.70000006072223,"stimulus":"Images/car_1.png","key_press":65,"stim_onset":1582848574039,"block":1,"match_type":"non-match","image_category":"car","sound_category":"whistle","audio_type":"label","phase":"test","trial_type":"image-keyboard-response","trial_index":334,"time_elapsed":2048304,"internal_node_id":"0.0-13.0-2.70","match_key":"l","participant_id":"COGS219_2020_30","correct":true},{"rt":null,"stimulus":"Sounds/correct.wav","key_press":null,"block":1,"trial_type":"audio-keyboard-response","trial_index":335,"time_elapsed":2050314,"internal_node_id":"0.0-13.0-3.70","match_key":"l","participant_id":"COGS219_2020_30"},{"rt":null,"stimulus":"Sounds/cow_sound.wav","key_press":null,"block":1,"trial_type":"audio-keyboard-response","trial_index":336,"time_elapsed":2051331,"internal_node_id":"0.0-13.0-0.71","match_key":"l","participant_id":"COGS219_2020_30"},{"rt":null,"stimulus":"<p style=\"font-size: 48px;\">+</p>","key_press":null,"block":1,"trial_type":"html-keyboard-response","trial_index":337,"time_elapsed":2052322,"internal_node_id":"0.0-13.0-1.71","match_key":"l","participant_id":"COGS219_2020_30"},{"rt":664.0950000146404,"stimulus":"Images/cow_1.png","key_press":76,"stim_onset":1582848578551,"block":1,"match_type":"match","image_category":"cow","sound_category":"cow","audio_type":"sound","phase":"test","trial_type":"image-keyboard-response","trial_index":338,"time_elapsed":2052987,"internal_node_id":"0.0-13.0-2.71","match_key":"l","participant_id":"COGS219_2020_30","correct":true},{"rt":null,"stimulus":"Sounds/correct.wav","key_press":null,"block":1,"trial_type":"audio-keyboard-response","trial_index":339,"time_elapsed":2054997,"internal_node_id":"0.0-13.0-3.71","match_key":"l","participant_id":"COGS219_2020_30"},{"rt":null,"stimulus":"Sounds/car_sound.wav","key_press":null,"block":1,"trial_type":"audio-keyboard-response","trial_index":340,"time_elapsed":2056071,"internal_node_id":"0.0-13.0-0.72","match_key":"l","participant_id":"COGS219_2020_30"},{"rt":null,"stimulus":"<p style=\"font-size: 48px;\">+</p>","key_press":null,"block":1,"trial_type":"html-keyboard-response","trial_index":341,"time_elapsed":2057089,"internal_node_id":"0.0-13.0-1.72","match_key":"l","participant_id":"COGS219_2020_30"},{"rt":392.920000012964,"stimulus":"Images/car_1.png","key_press":76,"stim_onset":1582848583318,"block":1,"match_type":"match","image_category":"car","sound_category":"car","audio_type":"sound","phase":"test","trial_type":"image-keyboard-response","trial_index":342,"time_elapsed":2057483,"internal_node_id":"0.0-13.0-2.72","match_key":"l","participant_id":"COGS219_2020_30","correct":true},{"rt":null,"stimulus":"Sounds/correct.wav","key_press":null,"block":1,"trial_type":"audio-keyboard-response","trial_index":343,"time_elapsed":2059492,"internal_node_id":"0.0-13.0-3.72","match_key":"l","participant_id":"COGS219_2020_30"},{"rt":null,"stimulus":"Sounds/dog_sound.wav","key_press":null,"block":1,"trial_type":"audio-keyboard-response","trial_index":344,"time_elapsed":2060211,"internal_node_id":"0.0-13.0-0.73","match_key":"l","participant_id":"COGS219_2020_30"},{"rt":null,"stimulus":"<p style=\"font-size: 48px;\">+</p>","key_press":null,"block":1,"trial_type":"html-keyboard-response","trial_index":345,"time_elapsed":2061206,"internal_node_id":"0.0-13.0-1.73","match_key":"l","participant_id":"COGS219_2020_30"},{"rt":420.3749999869615,"stimulus":"Images/dog_2.png","key_press":76,"stim_onset":1582848587435,"block":1,"match_type":"match","image_category":"dog","sound_category":"dog","audio_type":"sound","phase":"test","trial_type":"image-keyboard-response","trial_index":346,"time_elapsed":2061627,"internal_node_id":"0.0-13.0-2.73","match_key":"l","participant_id":"COGS219_2020_30","correct":true},{"rt":null,"stimulus":"Sounds/correct.wav","key_press":null,"block":1,"trial_type":"audio-keyboard-response","trial_index":347,"time_elapsed":2063644,"internal_node_id":"0.0-13.0-3.73","match_key":"l","participant_id":"COGS219_2020_30"},{"rt":null,"stimulus":"Sounds/cow_sound.wav","key_press":null,"block":1,"trial_type":"audio-keyboard-response","trial_index":348,"time_elapsed":2064631,"internal_node_id":"0.0-13.0-0.74","match_key":"l","participant_id":"COGS219_2020_30"},{"rt":null,"stimulus":"<p style=