"rt","responses","trial_type","trial_index","time_elapsed","internal_node_id","match_key","participant_id","stimulus","key_press","block","stim_onset","match_type","image_category","sound_category","audio_type","phase","correct"
"37000.46499999007","{""Q0"":""COGS219_2020_15""}","survey-text","0","37032","0.0-0.0","l","COGS219_2020_15","","","","","","","","","",""
"116373.41500000912","","html-keyboard-response","1","153526","0.0-1.0","l","COGS219_2020_15","<p>Use KEYBOARD 1 (match RIGHT)</p><p>Press MATCH to continue.</p>","76","","","","","","","",""
"2120109.0649999967","","html-keyboard-response","2","2273841","0.0-2.0","l","COGS219_2020_15","<p>Welcome to the experiment.</p>","32","","","","","","","",""
"5299.044999992475","","html-keyboard-response","3","2279147","0.0-3.0","l","COGS219_2020_15","<p>Thank you for agreeing to participate in this study.</p><p>If during any part of the procedure you must stop for any reason, please inform the researcher that you do not wish to continue.</p>","32","","","","","","","",""
"10351.165000000037","","html-keyboard-response","4","2289499","0.0-4.0","l","COGS219_2020_15","<p>In this experiment, you will hear various words or sounds and see pictures of various animals and objects.</p><p>Most of the images will be of common everyday objects, such as cars, cats, cows, firearms, frogs, chickens, whistles, trains, motorcycles, and dogs.</p><p>Some of the images will be real-life stills, while others will be cartoons.</p>","32","","","","","","","",""
"8143.2050000000745","","html-keyboard-response","5","2297643","0.0-5.0","l","COGS219_2020_15","<p>Sometimes, the word/sound will match the picture, for example you'll hear a meowing sound and see a cat.</p><p>Other times, the picture will not match the sound or word.</p><p>Your task is to decide as quickly as possible if the word/sound matches the picture or not. </p>","32","","","","","","","",""
"8895.440000007395","","html-keyboard-response","6","2306538","0.0-6.0","l","COGS219_2020_15","<p>For example, if you hear the word ""cat"" or hear a meowing sound, and then see a picture of a cat, you should press the MATCH key.</p><p> If the sound and image do not match, press the NOT-MATCH key to indicate that there is not a match.</p>","65","","","","","","","",""
"7886.8849999997765","","html-keyboard-response","7","2314425","0.0-7.0","l","COGS219_2020_15","<p>If you make a mistake, you will hear a buzzing sound instead of a more pleasant sound.</p><p> Try to respond as quickly as possible, while making as few errors as possible. If you are making mistakes, you are probably rushing.</p>","32","","","","","","","",""
"6175.484999999404","","html-keyboard-response","8","2320602","0.0-8.0","l","COGS219_2020_15","<p>Please try to not move or blink your eyes during the presentation of the images. You can move and blink between images.</p><p>During the experiment there will be some breaks during which you can rest your eyes.</p>","76","","","","","","","",""
"4671.0750000053085","","html-keyboard-response","9","2325273","0.0-9.0","l","COGS219_2020_15","<p>We will begin with 10 practice trials. Please let the experimenter know if you have any questions.</p>","32","","","","","","","",""
"null","","audio-keyboard-response","10","2326777","0.0-10.0-0.0","l","COGS219_2020_15","Sounds/car_label.wav","null","0","","","","","","",""
"null","","html-keyboard-response","11","2327773","0.0-10.0-1.0","l","COGS219_2020_15","<p style=""font-size: 48px;"">+</p>","null","0","","","","","","",""
"2923.8499999917112","","image-keyboard-response","12","2330698","0.0-10.0-2.0","l","COGS219_2020_15","Images/gun_cartoon.png","65","0","1581875208383","non-match","gun","car","label","practice","true"
"null","","audio-keyboard-response","13","2332713","0.0-10.0-3.0","l","COGS219_2020_15","Sounds/correct.wav","null","0","","","","","","",""
"null","","audio-keyboard-response","14","2333397","0.0-10.0-0.1","l","COGS219_2020_15","Sounds/rooster_sound.wav","null","0","","","","","","",""
"null","","html-keyboard-response","15","2334390","0.0-10.0-1.1","l","COGS219_2020_15","<p style=""font-size: 48px;"">+</p>","null","0","","","","","","",""
"2146.0099999969825","","image-keyboard-response","16","2336537","0.0-10.0-2.1","l","COGS219_2020_15","Images/dog_1.png","65","0","1581875215000","non-match","dog","rooster","sound","practice","true"
"null","","audio-keyboard-response","17","2338550","0.0-10.0-3.1","l","COGS219_2020_15","Sounds/correct.wav","null","0","","","","","","",""
"null","","audio-keyboard-response","18","2339377","0.0-10.0-0.2","l","COGS219_2020_15","Sounds/cat_label.wav","null","0","","","","","","",""
"null","","html-keyboard-response","19","2340373","0.0-10.0-1.2","l","COGS219_2020_15","<p style=""font-size: 48px;"">+</p>","null","0","","","","","","",""
"756.2049999977462","","image-keyboard-response","20","2341130","0.0-10.0-2.2","l","COGS219_2020_15","Images/cat_2.png","76","0","1581875220983","match","cat","cat","label","practice","true"
"null","","audio-keyboard-response","21","2343144","0.0-10.0-3.2","l","COGS219_2020_15","Sounds/correct.wav","null","0","","","","","","",""
"null","","audio-keyboard-response","22","2344157","0.0-10.0-0.3","l","COGS219_2020_15","Sounds/cow_sound.wav","null","0","","","","","","",""
"null","","html-keyboard-response","23","2345156","0.0-10.0-1.3","l","COGS219_2020_15","<p style=""font-size: 48px;"">+</p>","null","0","","","","","","",""
"996.1600000094622","","image-keyboard-response","24","2346153","0.0-10.0-2.3","l","COGS219_2020_15","Images/train_3.png","65","0","1581875225766","non-match","train","cow","sound","practice","true"
"null","","audio-keyboard-response","25","2348163","0.0-10.0-3.3","l","COGS219_2020_15","Sounds/correct.wav","null","0","","","","","","",""
"null","","audio-keyboard-response","26","2348737","0.0-10.0-0.4","l","COGS219_2020_15","Sounds/gun_sound.wav","null","0","","","","","","",""
"null","","html-keyboard-response","27","2349740","0.0-10.0-1.4","l","COGS219_2020_15","<p style=""font-size: 48px;"">+</p>","null","0","","","","","","",""
"1020.7149999914691","","image-keyboard-response","28","2350761","0.0-10.0-2.4","l","COGS219_2020_15","Images/gun_orig.png","76","0","1581875230350","match","gun","gun","sound","practice","true"
"null","","audio-keyboard-response","29","2352778","0.0-10.0-3.4","l","COGS219_2020_15","Sounds/correct.wav","null","0","","","","","","",""
"null","","audio-keyboard-response","30","2353417","0.0-10.0-0.5","l","COGS219_2020_15","Sounds/dog_label.wav","null","0","","","","","","",""
"null","","html-keyboard-response","31","2354406","0.0-10.0-1.5","l","COGS219_2020_15","<p style=""font-size: 48px;"">+</p>","null","0","","","","","","",""
"593.9949999884702","","image-keyboard-response","32","2355001","0.0-10.0-2.5","l","COGS219_2020_15","Images/motorcycle_3.png","65","0","1581875235016","non-match","motorcycle","dog","label","practice","true"
"null","","audio-keyboard-response","33","2357010","0.0-10.0-3.5","l","COGS219_2020_15","Sounds/correct.wav","null","0","","","","","","",""
"null","","audio-keyboard-response","34","2357697","0.0-10.0-0.6","l","COGS219_2020_15","Sounds/whistle_sound.wav","null","0","","","","","","",""
"null","","html-keyboard-response","35","2358690","0.0-10.0-1.6","l","COGS219_2020_15","<p style=""font-size: 48px;"">+</p>","null","0","","","","","","",""
"550.3699999973178","","image-keyboard-response","36","2359241","0.0-10.0-2.6","l","COGS219_2020_15","Images/whistle_2.png","76","0","1581875239300","match","whistle","whistle","sound","practice","true"
"null","","audio-keyboard-response","37","2361245","0.0-10.0-3.6","l","COGS219_2020_15","Sounds/correct.wav","null","0","","","","","","",""
"null","","audio-keyboard-response","38","2361957","0.0-10.0-0.7","l","COGS219_2020_15","Sounds/whistle_label.wav","null","0","","","","","","",""
"null","","html-keyboard-response","39","2362957","0.0-10.0-1.7","l","COGS219_2020_15","<p style=""font-size: 48px;"">+</p>","null","0","","","","","","",""
"491.78500000573695","","image-keyboard-response","40","2363449","0.0-10.0-2.7","l","COGS219_2020_15","Images/dog_orig.png","65","0","1581875243566","non-match","dog","whistle","label","practice","true"
"null","","audio-keyboard-response","41","2365460","0.0-10.0-3.7","l","COGS219_2020_15","Sounds/correct.wav","null","0","","","","","","",""
"null","","audio-keyboard-response","42","2366477","0.0-10.0-0.8","l","COGS219_2020_15","Sounds/cow_label.wav","null","0","","","","","","",""
"null","","html-keyboard-response","43","2367475","0.0-10.0-1.8","l","COGS219_2020_15","<p style=""font-size: 48px;"">+</p>","null","0","","","","","","",""
"487.4500000006519","","image-keyboard-response","44","2367963","0.0-10.0-2.8","l","COGS219_2020_15","Images/frog_2.png","65","0","1581875248085","non-match","frog","cow","label","practice","true"
"null","","audio-keyboard-response","45","2369980","0.0-10.0-3.8","l","COGS219_2020_15","Sounds/correct.wav","null","0","","","","","","",""
"null","","audio-keyboard-response","46","2370679","0.0-10.0-0.9","l","COGS219_2020_15","Sounds/dog_sound.wav","null","0","","","","","","",""
"null","","html-keyboard-response","47","2371675","0.0-10.0-1.9","l","COGS219_2020_15","<p style=""font-size: 48px;"">+</p>","null","0","","","","","","",""
"495.02499999664724","","image-keyboard-response","48","2372171","0.0-10.0-2.9","l","COGS219_2020_15","Images/dog_3.png","76","0","1581875252285","match","dog","dog","sound","practice","true"
"null","","audio-keyboard-response","49","2374179","0.0-10.0-3.9","l","COGS219_2020_15","Sounds/correct.wav","null","0","","","","","","",""
"107721.47500001313","","html-keyboard-response","50","2481901","0.0-11.0","l","COGS219_2020_15","<p>The rest of the experiment is divided into five blocks with 100 trials in each block. It will take about 45 minutes to complete.</p><p>The experimenter will be in the outer room and you can communicate with them through the monitor if you have any questions or wish to stop the experiment.</p>","32","","","","","","","",""
"6461.134999990463","","html-keyboard-response","51","2488363","0.0-12.0","l","COGS219_2020_15","<p>Remember, please try not to move or blink your eyes during the presentation of the images. </p><p>At the end of the experiment, we will show you your scores on the task so you can see how you did.</p><p>The experiment will start on the next screen.</p>","32","","","","","","","",""
"null","","audio-keyboard-response","52","2491281","0.0-13.0-0.0","l","COGS219_2020_15","Sounds/frog_label.wav","null","1","","","","","","",""
"null","","html-keyboard-response","53","2492276","0.0-13.0-1.0","l","COGS219_2020_15","<p style=""font-size: 48px;"">+</p>","null","1","","","","","","",""
"598.3699999921955","","image-keyboard-response","54","2492876","0.0-13.0-2.0","l","COGS219_2020_15","Images/cow_2.png","65","1","1581875372886","non-match","cow","frog","label","test","true"
"null","","audio-keyboard-response","55","2494883","0.0-13.0-3.0","l","COGS219_2020_15","Sounds/correct.wav","null","1","","","","","","",""
"null","","audio-keyboard-response","56","2495902","0.0-13.0-0.1","l","COGS219_2020_15","Sounds/cow_sound.wav","null","1","","","","","","",""
"null","","html-keyboard-response","57","2496893","0.0-13.0-1.1","l","COGS219_2020_15","<p style=""font-size: 48px;"">+</p>","null","1","","","","","","",""
"541.3000000119209","","image-keyboard-response","58","2497435","0.0-13.0-2.1","l","COGS219_2020_15","Images/cow_2.png","65","1","1581875377503","match","cow","cow","sound","test","false"
"null","","audio-keyboard-response","59","2499448","0.0-13.0-3.1","l","COGS219_2020_15","Sounds/incorrect.wav","null","1","","","","","","",""
"null","","audio-keyboard-response","60","2500361","0.0-13.0-0.2","l","COGS219_2020_15","Sounds/frog_sound.wav","null","1","","","","","","",""
"null","","html-keyboard-response","61","2501361","0.0-13.0-1.2","l","COGS219_2020_15","<p style=""font-size: 48px;"">+</p>","null","1","","","","","","",""
"410.6049999971874","","image-keyboard-response","62","2501772","0.0-13.0-2.2","l","COGS219_2020_15","Images/frog_orig.png","76","1","1581875381971","match","frog","frog","sound","test","true"
"null","","audio-keyboard-response","63","2503783","0.0-13.0-3.2","l","COGS219_2020_15","Sounds/correct.wav","null","1","","","","","","",""
"null","","audio-keyboard-response","64","2504361","0.0-13.0-0.3","l","COGS219_2020_15","Sounds/gun_sound.wav","null","1","","","","","","",""
"null","","html-keyboard-response","65","2505361","0.0-13.0-1.3","l","COGS219_2020_15","<p style=""font-size: 48px;"">+</p>","null","1","","","","","","",""
"570.7249999977648","","image-keyboard-response","66","2505932","0.0-13.0-2.3","l","COGS219_2020_15","Images/frog_1.png","65","1","1581875385971","non-match","frog","gun","sound","test","true"
"null","","audio-keyboard-response","67","2507948","0.0-13.0-3.3","l","COGS219_2020_15","Sounds/correct.wav","null","1","","","","","","",""
"null","","audio-keyboard-response","68","2508662","0.0-13.0-0.4","l","COGS219_2020_15","Sounds/dog_sound.wav","null","1","","","","","","",""
"null","","html-keyboard-response","69","2509661","0.0-13.0-1.4","l","COGS219_2020_15","<p style=""font-size: 48px;"">+</p>","null","1","","","","","","",""
"558.5100000025705","","image-keyboard-response","70","2510220","0.0-13.0-2.4","l","COGS219_2020_15","Images/rooster_cartoon.png","65","1","1581875390271","non-match","rooster","dog","sound","test","true"
"null","","audio-keyboard-response","71","2512233","0.0-13.0-3.4","l","COGS219_2020_15","Sounds/correct.wav","null","1","","","","","","",""
"null","","audio-keyboard-response","72","2512921","0.0-13.0-0.5","l","COGS219_2020_15","Sounds/rooster_sound.wav","null","1","","","","","","",""
"null","","html-keyboard-response","73","2513911","0.0-13.0-1.5","l","COGS219_2020_15","<p style=""font-size: 48px;"">+</p>","null","1","","","","","","",""
"468.51999999489635","","image-keyboard-response","74","2514380","0.0-13.0-2.5","l","COGS219_2020_15","Images/rooster_2.png","76","1","1581875394521","match","rooster","rooster","sound","test","true"
"null","","audio-keyboard-response","75","2516398","0.0-13.0-3.5","l","COGS219_2020_15","Sounds/correct.wav","null","1","","","","","","",""
"null","","audio-keyboard-response","76","2517682","0.0-13.0-0.6","l","COGS219_2020_15","Sounds/train_label.wav","null","1","","","","","","",""
"null","","html-keyboard-response","77","2518677","0.0-13.0-1.6","l","COGS219_2020_15","<p style=""font-size: 48px;"">+</p>","null","1","","","","","","",""
"613.9950000070967","","image-keyboard-response","78","2519292","0.0-13.0-2.6","l","COGS219_2020_15","Images/whistle_3.png","65","1","1581875399288","non-match","whistle","train","label","test","true"
"null","","audio-keyboard-response","79","2521300","0.0-13.0-3.6","l","COGS219_2020_15","Sounds/correct.wav","null","1","","","","","","",""
"null","","audio-keyboard-response","80","2522201","0.0-13.0-0.7","l","COGS219_2020_15","Sounds/frog_sound.wav","null","1","","","","","","",""
"null","","html-keyboard-response","81","2523194","0.0-13.0-1.7","l","COGS219_2020_15","<p style=""font-size: 48px;"">+</p>","null","1","","","","","","",""
"481.3200000063516","","image-keyboard-response","82","2523676","0.0-13.0-2.7","l","COGS219_2020_15","Images/frog_2.png","76","1","1581875403804","match","frog","frog","sound","test","true"
"null","","audio-keyboard-response","83","2525684","0.0-13.0-3.7","l","COGS219_2020_15","Sounds/correct.wav","null","1","","","","","","",""
"null","","audio-keyboard-response","84","2526381","0.0-13.0-0.8","l","COGS219_2020_15","Sounds/whistle_sound.wav","null","1","","","","","","",""
"null","","html-keyboard-response","85","2527377","0.0-13.0-1.8","l","COGS219_2020_15","<p style=""font-size: 48px;"">+</p>","null","1","","","","","","",""
"617.7550000138581","","image-keyboard-response","86","2527996","0.0-13.0-2.8","l","COGS219_2020_15","Images/whistle_1.png","76","1","1581875407988","match","whistle","whistle","sound","test","true"
"null","","audio-keyboard-response","87","2529999","0.0-13.0-3.8","l","COGS219_2020_15","Sounds/correct.wav","null","1","","","","","","",""
"null","","audio-keyboard-response","88","2530662","0.0-13.0-0.9","l","COGS219_2020_15","Sounds/dog_label.wav","null","1","","","","","","",""
"null","","html-keyboard-response","89","2531661","0.0-13.0-1.9","l","COGS219_2020_15","<p style=""font-size: 48px;"">+</p>","null","1","","","","","","",""
"446.45499999728054","","image-keyboard-response","90","2532108","0.0-13.0-2.9","l","COGS219_2020_15","Images/dog_1.png","76","1","1581875412272","match","dog","dog","label","test","true"
"null","","audio-keyboard-response","91","2534117","0.0-13.0-3.9","l","COGS219_2020_15","Sounds/correct.wav","null","1","","","","","","",""
"null","","audio-keyboard-response","92","2534821","0.0-13.0-0.10","l","COGS219_2020_15","Sounds/whistle_label.wav","null","1","","","","","","",""
"null","","html-keyboard-response","93","2535811","0.0-13.0-1.10","l","COGS219_2020_15","<p style=""font-size: 48px;"">+</p>","null","1","","","","","","",""
"504.2950000059791","","image-keyboard-response","94","2536316","0.0-13.0-2.10","l","COGS219_2020_15","Images/whistle_orig.png","76","1","1581875416421","match","whistle","whistle","label","test","true"
"null","","audio-keyboard-response","95","2538333","0.0-13.0-3.10","l","COGS219_2020_15","Sounds/correct.wav","null","1","","","","","","",""
"null","","audio-keyboard-response","96","2539241","0.0-13.0-0.11","l","COGS219_2020_15","Sounds/frog_label.wav","null","1","","","","","","",""
"null","","html-keyboard-response","97","2540244","0.0-13.0-1.11","l","COGS219_2020_15","<p style=""font-size: 48px;"">+</p>","null","1","","","","","","",""
"550.925000003539","","image-keyboard-response","98","2540796","0.0-13.0-2.11","l","COGS219_2020_15","Images/gun_cartoon.png","65","1","1581875420854","non-match","gun","frog","label","test","true"
"null","","audio-keyboard-response","99","2542799","0.0-13.0-3.11","l","COGS219_2020_15","Sounds/correct.wav","null","1","","","","","","",""
"null","","audio-keyboard-response","100","2543702","0.0-13.0-0.12","l","COGS219_2020_15","Sounds/frog_sound.wav","null","1","","","","","","",""
"null","","html-keyboard-response","101","2544694","0.0-13.0-1.12","l","COGS219_2020_15","<p style=""font-size: 48px;"">+</p>","null","1","","","","","","",""
"372.99500001221895","","image-keyboard-response","102","2545068","0.0-13.0-2.12","l","COGS219_2020_15","Images/frog_1.png","76","1","1581875425304","match","frog","frog","sound","test","true"
"null","","audio-keyboard-response","103","2547082","0.0-13.0-3.12","l","COGS219_2020_15","Sounds/correct.wav","null","1","","","","","","",""
"null","","audio-keyboard-response","104","2548101","0.0-13.0-0.13","l","COGS219_2020_15","Sounds/cow_label.wav","null","1","","","","","","",""
"null","","html-keyboard-response","105","2549094","0.0-13.0-1.13","l","COGS219_2020_15","<p style=""font-size: 48px;"">+</p>","null","1","","","","","","",""
"500.8649999946356","","image-keyboard-response","106","2549596","0.0-13.0-2.13","l","COGS219_2020_15","Images/cow_orig.png","76","1","1581875429705","match","cow","cow","label","test","true"
"null","","audio-keyboard-response","107","2551599","0.0-13.0-3.13","l","COGS219_2020_15","Sounds/correct.wav","null","1","","","","","","",""
"null","","audio-keyboard-response","108","2552741","0.0-13.0-0.14","l","COGS219_2020_15","Sounds/motorcycle_label.wav","null","1","","","","","","",""
"null","","html-keyboard-response","109","2553745","0.0-13.0-1.14","l","COGS219_2020_15","<p style=""font-size: 48px;"">+</p>","null","1","","","","","","",""
"586.3899999968708","","image-keyboard-response","110","2554332","0.0-13.0-2.14","l","COGS219_2020_15","Images/frog_orig.png","76","1","1581875434355","non-match","frog","motorcycle","label","test","false"
"null","","audio-keyboard-response","111","2556334","0.0-13.0-3.14","l","COGS219_2020_15","Sounds/incorrect.wav","null","1","","","","","","",""
"null","","audio-keyboard-response","112","2557421","0.0-13.0-0.15","l","COGS219_2020_15","Sounds/car_sound.wav","null","1","","","","","","",""
"null","","html-keyboard-response","113","2558411","0.0-13.0-1.15","l","COGS219_2020_15","<p style=""font-size: 48px;"">+</p>","null","1","","","","","","",""
"1232.3349999934435","","image-keyboard-response","114","2559645","0.0-13.0-2.15","l","COGS219_2020_15","Images/whistle_2.png","76","1","1581875439021","non-match","whistle","car","sound","test","false"
"null","","audio-keyboard-response","115","2561654","0.0-13.0-3.15","l","COGS219_2020_15","Sounds/incorrect.wav","null","1","","","","","","",""
"null","","audio-keyboard-response","116","2562362","0.0-13.0-0.16","l","COGS219_2020_15","Sounds/rooster_label.wav","null","1","","","","","","",""
"null","","html-keyboard-response","117","2563361","0.0-13.0-1.16","l","COGS219_2020_15","<p style=""font-size: 48px;"">+</p>","null","1","","","","","","",""
"698.0949999997392","","image-keyboard-response","118","2564061","0.0-13.0-2.16","l","COGS219_2020_15","Images/rooster_cartoon.png","76","1","1581875443972","match","rooster","rooster","label","test","true"
"null","","audio-keyboard-response","119","2566068","0.0-13.0-3.16","l","COGS219_2020_15","Sounds/correct.wav","null","1","","","","","","",""
"null","","audio-keyboard-response","120","2567182","0.0-13.0-0.17","l","COGS219_2020_15","Sounds/motorcycle_sound.wav","null","1","","","","","","",""
"null","","html-keyboard-response","121","2568178","0.0-13.0-1.17","l","COGS219_2020_15","<p style=""font-size: 48px;"">+</p>","null","1","","","","","","",""
"873.265000001993","","image-keyboard-response","122","2569053","0.0-13.0-2.17","l","COGS219_2020_15","Images/motorcycle_orig.png","76","1","1581875448788","match","motorcycle","motorcycle","sound","test","true"
"null","","audio-keyboard-response","123","2571066","0.0-13.0-3.17","l","COGS219_2020_15","Sounds/correct.wav","null","1","","","","","","",""
"null","","audio-keyboard-response","124","2572122","0.0-13.0-0.18","l","COGS219_2020_15","Sounds/car_sound.wav","null","1","","","","","","",""
"null","","html-keyboard-response","125","2573112","0.0-13.0-1.18","l","COGS219_2020_15","<p style=""font-size: 48px;"">+</p>","null","1","","","","","","",""
"644.434999994468","","image-keyboard-response","126","2573757","0.0-13.0-2.18","l","COGS219_2020_15","Images/motorcycle_3.png","76","1","1581875453722","non-match","motorcycle","car","sound","test","false"
"null","","audio-keyboard-response","127","2575765","0.0-13.0-3.18","l","COGS219_2020_15","Sounds/incorrect.wav","null","1","","","","","","",""
"null","","audio-keyboard-response","128","2576442","0.0-13.0-0.19","l","COGS219_2020_15","Sounds/rooster_label.wav","null","1","","","","","","",""
"null","","html-keyboard-response","129","2577445","0.0-13.0-1.19","l","COGS219_2020_15","<p style=""font-size: 48px;"">+</p>","null","1","","","","","","",""
"646.6550000039861","","image-keyboard-response","130","2578092","0.0-13.0-2.19","l","COGS219_2020_15","Images/rooster_3.png","76","1","1581875458055","match","rooster","rooster","label","test","true"
"null","","audio-keyboard-response","131","2580102","0.0-13.0-3.19","l","COGS219_2020_15","Sounds/correct.wav","null","1","","","","","","",""
"null","","audio-keyboard-response","132","2581202","0.0-13.0-0.20","l","COGS219_2020_15","Sounds/motorcycle_sound.wav","null","1","","","","","","",""
"null","","html-keyboard-response","133","2582195","0.0-13.0-1.20","l","COGS219_2020_15","<p style=""font-size: 48px;"">+</p>","null","1","","","","","","",""
"1320.2949999975972","","image-keyboard-response","134","2583516","0.0-13.0-2.20","l","COGS219_2020_15","Images/train_3.png","65","1","1581875462805","non-match","train","motorcycle","sound","test","true"
"null","","audio-keyboard-response","135","2585520","0.0-13.0-3.20","l","COGS219_2020_15","Sounds/correct.wav","null","1","","","","","","",""
"null","","audio-keyboard-response","136","2586542","0.0-13.0-0.21","l","COGS219_2020_15","Sounds/cow_sound.wav","null","1","","","","","","",""
"null","","html-keyboard-response","137","2587545","0.0-13.0-1.21","l","COGS219_2020_15","<p style=""font-size: 48px;"">+</p>","null","1","","","","","","",""
"562.5200000065379","","image-keyboard-response","138","2588109","0.0-13.0-2.21","l","COGS219_2020_15","Images/car_cartoon.png","65","1","1581875468155","non-match","car","cow","sound","test","true"
"null","","audio-keyboard-response","139","2590117","0.0-13.0-3.21","l","COGS219_2020_15","Sounds/correct.wav","null","1","","","","","","",""
"null","","audio-keyboard-response","140","2591102","0.0-13.0-0.22","l","COGS219_2020_15","Sounds/cow_sound.wav","null","1","","","","","","",""
"null","","html-keyboard-response","141","2592095","0.0-13.0-1.22","l","COGS219_2020_15","<p style=""font-size: 48px;"">+</p>","null","1","","","","","","",""
"556.2600000123493","","image-keyboard-response","142","2592652","0.0-13.0-2.22","l","COGS219_2020_15","Images/frog_3.png","65","1","1581875472705","non-match","frog","cow","sound","test","true"
"null","","audio-keyboard-response","143","2594667","0.0-13.0-3.22","l","COGS219_2020_15","Sounds/correct.wav","null","1","","","","","","",""
"null","","audio-keyboard-response","144","2595322","0.0-13.0-0.23","l","COGS219_2020_15","Sounds/dog_label.wav","null","1","","","","","","",""
"null","","html-keyboard-response","145","2596312","0.0-13.0-1.23","l","COGS219_2020_15","<p style=""font-size: 48px;"">+</p>","null","1","","","","","","",""
"627.5000000023283","","image-keyboard-response","146","2596940","0.0-13.0-2.23","l","COGS219_2020_15","Images/dog_3.png","76","1","1581875476922","match","dog","dog","label","test","true"
"null","","audio-keyboard-response","147","2598950","0.0-13.0-3.23","l","COGS219_2020_15","Sounds/correct.wav","null","1","","","","","","",""
"null","","audio-keyboard-response","148","2600242","0.0-13.0-0.24","l","COGS219_2020_15","Sounds/train_sound.wav","null","1","","","","","","",""
"null","","html-keyboard-response","149","2601245","0.0-13.0-1.24","l","COGS219_2020_15","<p style=""font-size: 48px;"">+</p>","null","1","","","","","","",""
"702.6150000020862","","image-keyboard-response","150","2601949","0.0-13.0-2.24","l","COGS219_2020_15","Images/train_2.png","76","1","1581875481855","match","train","train","sound","test","true"
"null","","audio-keyboard-response","151","2603966","0.0-13.0-3.24","l","COGS219_2020_15","Sounds/correct.wav","null","1","","","","","","",""
"null","","audio-keyboard-response","152","2604542","0.0-13.0-0.25","l","COGS219_2020_15","Sounds/gun_label.wav","null","1","","","","","","",""
"null","","html-keyboard-response","153","2605545","0.0-13.0-1.25","l","COGS219_2020_15","<p style=""font-size: 48px;"">+</p>","null","1","","","","","","",""
"513.980000003241","","image-keyboard-response","154","2606060","0.0-13.0-2.25","l","COGS219_2020_15","Images/gun_1.png","76","1","1581875486155","match","gun","gun","label","test","true"
"null","","audio-keyboard-response","155","2608067","0.0-13.0-3.25","l","COGS219_2020_15","Sounds/correct.wav","null","1","","","","","","",""
"null","","audio-keyboard-response","156","2608902","0.0-13.0-0.26","l","COGS219_2020_15","Sounds/cat_label.wav","null","1","","","","","","",""
"null","","html-keyboard-response","157","2609895","0.0-13.0-1.26","l","COGS219_2020_15","<p style=""font-size: 48px;"">+</p>","null","1","","","","","","",""
"628.1849999940023","","image-keyboard-response","158","2610524","0.0-13.0-2.26","l","COGS219_2020_15","Images/rooster_orig.png","65","1","1581875490505","non-match","rooster","cat","label","test","true"
"null","","audio-keyboard-response","159","2612535","0.0-13.0-3.26","l","COGS219_2020_15","Sounds/correct.wav","null","1","","","","","","",""
"null","","audio-keyboard-response","160","2613382","0.0-13.0-0.27","l","COGS219_2020_15","Sounds/cat_sound.wav","null","1","","","","","","",""
"null","","html-keyboard-response","161","2614379","0.0-13.0-1.27","l","COGS219_2020_15","<p style=""font-size: 48px;"">+</p>","null","1","","","","","","",""
"449.06000001356006","","image-keyboard-response","162","2614829","0.0-13.0-2.27","l","COGS219_2020_15","Images/dog_cartoon.png","65","1","1581875494989","non-match","dog","cat","sound","test","true"
"null","","audio-keyboard-response","163","2616834","0.0-13.0-3.27","l","COGS219_2020_15","Sounds/correct.wav","null","1","","","","","","",""
"null","","audio-keyboard-response","164","2617542","0.0-13.0-0.28","l","COGS219_2020_15","Sounds/whistle_sound.wav","null","1","","","","","","",""
"null","","html-keyboard-response","165","2618545","0.0-13.0-1.28","l","COGS219_2020_15","<p style=""font-size: 48px;"">+</p>","null","1","","","","","","",""
"666.1100000054576","","image-keyboard-response","166","2619212","0.0-13.0-2.28","l","COGS219_2020_15","Images/whistle_3.png","76","1","1581875499155","match","whistle","whistle","sound","test","true"
"null","","audio-keyboard-response","167","2621217","0.0-13.0-3.28","l","COGS219_2020_15","Sounds/correct.wav","null","1","","","","","","",""
"null","","audio-keyboard-response","168","2621922","0.0-13.0-0.29","l","COGS219_2020_15","Sounds/rooster_label.wav","null","1","","","","","","",""
"null","","html-keyboard-response","169","2622913","0.0-13.0-1.29","l","COGS219_2020_15","<p style=""font-size: 48px;"">+</p>","null","1","","","","","","",""
"523.3349999906495","","image-keyboard-response","170","2623437","0.0-13.0-2.29","l","COGS219_2020_15","Images/car_3.png","65","1","1581875503523","non-match","car","rooster","label","test","true"
"null","","audio-keyboard-response","171","2625450","0.0-13.0-3.29","l","COGS219_2020_15","Sounds/correct.wav","null","1","","","","","","",""
"null","","audio-keyboard-response","172","2626142","0.0-13.0-0.30","l","COGS219_2020_15","Sounds/rooster_sound.wav","null","1","","","","","","",""
"null","","html-keyboard-response","173","2627146","0.0-13.0-1.30","l","COGS219_2020_15","<p style=""font-size: 48px;"">+</p>","null","1","","","","","","",""
"466.1100000087172","","image-keyboard-response","174","2627613","0.0-13.0-2.30","l","COGS219_2020_15","Images/dog_3.png","65","1","1581875507756","non-match","dog","rooster","sound","test","true"
"null","","audio-keyboard-response","175","2629618","0.0-13.0-3.30","l","COGS219_2020_15","Sounds/correct.wav","null","1","","","","","","",""
"null","","audio-keyboard-response","176","2630282","0.0-13.0-0.31","l","COGS219_2020_15","Sounds/dog_label.wav","null","1","","","","","","",""
"null","","html-keyboard-response","177","2631279","0.0-13.0-1.31","l","COGS219_2020_15","<p style=""font-size: 48px;"">+</p>","null","1","","","","","","",""
"460.5799999991432","","image-keyboard-response","178","2631741","0.0-13.0-2.31","l","COGS219_2020_15","Images/train_2.png","65","1","1581875511890","non-match","train","dog","label","test","true"
"null","","audio-keyboard-response","179","2633749","0.0-13.0-3.31","l","COGS219_2020_15","Sounds/correct.wav","null","1","","","","","","",""
"null","","audio-keyboard-response","180","2634822","0.0-13.0-0.32","l","COGS219_2020_15","Sounds/car_label.wav","null","1","","","","","","",""
"null","","html-keyboard-response","181","2635813","0.0-13.0-1.32","l","COGS219_2020_15","<p style=""font-size: 48px;"">+</p>","null","1","","","","","","",""
"551.1400000108406","","image-keyboard-response","182","2636365","0.0-13.0-2.32","l","COGS219_2020_15","Images/car_1.png","65","1","1581875516423","match","car","car","label","test","false"
"null","","audio-keyboard-response","183","2638370","0.0-13.0-3.32","l","COGS219_2020_15","Sounds/incorrect.wav","null","1","","","","","","",""
"null","","audio-keyboard-response","184","2639382","0.0-13.0-0.33","l","COGS219_2020_15","Sounds/cow_sound.wav","null","1","","","","","","",""
"null","","html-keyboard-response","185","2640379","0.0-13.0-1.33","l","COGS219_2020_15","<p style=""font-size: 48px;"">+</p>","null","1","","","","","","",""
"544.7249999996275","","image-keyboard-response","186","2640925","0.0-13.0-2.33","l","COGS219_2020_15","Images/cow_1.png","76","1","1581875520989","match","cow","cow","sound","test","true"
"null","","audio-keyboard-response","187","2642933","0.0-13.0-3.33","l","COGS219_2020_15","Sounds/correct.wav","null","1","","","","","","",""
"null","","audio-keyboard-response","188","2644022","0.0-13.0-0.34","l","COGS219_2020_15","Sounds/car_sound.wav","null","1","","","","","","",""
"null","","html-keyboard-response","189","2645013","0.0-13.0-1.34","l","COGS219_2020_15","<p style=""font-size: 48px;"">+</p>","null","1","","","","","","",""
"647.3299999926239","","image-keyboard-response","190","2645661","0.0-13.0-2.34","l","COGS219_2020_15","Images/train_1.png","65","1","1581875525623","non-match","train","car","sound","test","true"
"null","","audio-keyboard-response","191","2647669","0.0-13.0-3.34","l","COGS219_2020_15","Sounds/correct.wav","null","1","","","","","","",""
"null","","audio-keyboard-response","192","2648502","0.0-13.0-0.35","l","COGS219_2020_15","Sounds/cat_label.wav","null","1","","","","","","",""
"null","","html-keyboard-response","193","2649496","0.0-13.0-1.35","l","COGS219_2020_15","<p style=""font-size: 48px;"">+</p>","null","1","","","","","","",""
"803.8349999985658","","image-keyboard-response","194","2650301","0.0-13.0-2.35","l","COGS219_2020_15","Images/cat_orig.png","76","1","1581875530106","match","cat","cat","label","test","true"
"null","","audio-keyboard-response","195","2652318","0.0-13.0-3.35","l","COGS219_2020_15","Sounds/correct.wav","null","1","","","","","","",""
"null","","audio-keyboard-response","196","2652902","0.0-13.0-0.36","l","COGS219_2020_15","Sounds/gun_sound.wav","null","1","","","","","","",""
"null","","html-keyboard-response","197","2653896","0.0-13.0-1.36","l","COGS219_2020_15","<p style=""font-size: 48px;"">+</p>","null","1","","","","","","",""
"579.969999991823","","image-keyboard-response","198","2654477","0.0-13.0-2.36","l","COGS219_2020_15","Images/gun_2.png","76","1","1581875534506","match","gun","gun","sound","test","true"
"null","","audio-keyboard-response","199","2656484","0.0-13.0-3.36","l","COGS219_2020_15","Sounds/correct.wav","null","1","","","","","","",""
"null","","audio-keyboard-response","200","2657042","0.0-13.0-0.37","l","COGS219_2020_15","Sounds/gun_sound.wav","null","1","","","","","","",""
"null","","html-keyboard-response","201","2658046","0.0-13.0-1.37","l","COGS219_2020_15","<p style=""font-size: 48px;"">+</p>","null","1","","","","","","",""
"621.7199999955483","","image-keyboard-response","202","2658669","0.0-13.0-2.37","l","COGS219_2020_15","Images/whistle_orig.png","65","1","1581875538656","non-match","whistle","gun","sound","test","true"
"null","","audio-keyboard-response","203","2660684","0.0-13.0-3.37","l","COGS219_2020_15","Sounds/correct.wav","null","1","","","","","","",""
"null","","audio-keyboard-response","204","2661762","0.0-13.0-0.38","l","COGS219_2020_15","Sounds/car_label.wav","null","1","","","","","","",""
"null","","html-keyboard-response","205","2662779","0.0-13.0-1.38","l","COGS219_2020_15","<p style=""font-size: 48px;"">+</p>","null","1","","","","","","",""
"928.285000001546","","image-keyboard-response","206","2663709","0.0-13.0-2.38","l","COGS219_2020_15","Images/car_2.png","76","1","1581875543390","match","car","car","label","test","true"
"null","","audio-keyboard-response","207","2665719","0.0-13.0-3.38","l","COGS219_2020_15","Sounds/correct.wav","null","1","","","","","","",""
"null","","audio-keyboard-response","208","2666862","0.0-13.0-0.39","l","COGS219_2020_15","Sounds/motorcycle_label.wav","null","1","","","","","","",""
"null","","html-keyboard-response","209","2667880","0.0-13.0-1.39","l","COGS219_2020_15","<p style=""font-size: 48px;"">+</p>","null","1","","","","","","",""
"484.55500000249594","","image-keyboard-response","210","2668365","0.0-13.0-2.39","l","COGS219_2020_15","Images/cow_orig.png","65","1","1581875548490","non-match","cow","motorcycle","label","test","true"
"null","","audio-keyboard-response","211","2670368","0.0-13.0-3.39","l","COGS219_2020_15","Sounds/correct.wav","null","1","","","","","","",""
"null","","audio-keyboard-response","212","2671442","0.0-13.0-0.40","l","COGS219_2020_15","Sounds/car_sound.wav","null","1","","","","","","",""
"null","","html-keyboard-response","213","2672446","0.0-13.0-1.40","l","COGS219_2020_15","<p style=""font-size: 48px;"">+</p>","null","1","","","","","","",""
"525.5049999980256","","image-keyboard-response","214","2672973","0.0-13.0-2.40","l","COGS219_2020_15","Images/dog_orig.png","65","1","1581875553056","non-match","dog","car","sound","test","true"
"null","","audio-keyboard-response","215","2674983","0.0-13.0-3.40","l","COGS219_2020_15","Sounds/correct.wav","null","1","","","","","","",""
"null","","audio-keyboard-response","216","2675882","0.0-13.0-0.41","l","COGS219_2020_15","Sounds/frog_sound.wav","null","1","","","","","","",""
"null","","html-keyboard-response","217","2676880","0.0-13.0-1.41","l","COGS219_2020_15","<p style=""font-size: 48px;"">+</p>","null","1","","","","","","",""
"555.9349999967963","","image-keyboard-response","218","2677437","0.0-13.0-2.41","l","COGS219_2020_15","Images/train_orig.png","65","1","1581875557490","non-match","train","frog","sound","test","true"
"null","","audio-keyboard-response","219","2679451","0.0-13.0-3.41","l","COGS219_2020_15","Sounds/correct.wav","null","1","","","","","","",""
"null","","audio-keyboard-response","220","2680502","0.0-13.0-0.42","l","COGS219_2020_15","Sounds/car_sound.wav","null","1","","","","","","",""
"null","","html-keyboard-response","221","2681497","0.0-13.0-1.42","l","COGS219_2020_15","<p style=""font-size: 48px;"">+</p>","null","1","","","","","","",""
"739.8599999868311","","image-keyboard-response","222","2682238","0.0-13.0-2.42","l","COGS219_2020_15","Images/car_cartoon.png","65","1","1581875562107","match","car","car","sound","test","false"
"null","","audio-keyboard-response","223","2684251","0.0-13.0-3.42","l","COGS219_2020_15","Sounds/incorrect.wav","null","1","","","","","","",""
"null","","audio-keyboard-response","224","2684823","0.0-13.0-0.43","l","COGS219_2020_15","Sounds/gun_label.wav","null","1","","","","","","",""
"null","","html-keyboard-response","225","2685814","0.0-13.0-1.43","l","COGS219_2020_15","<p style=""font-size: 48px;"">+</p>","null","1","","","","","","",""
"518.7549999970943","","image-keyboard-response","226","2686333","0.0-13.0-2.43","l","COGS219_2020_15","Images/gun_orig.png","76","1","1581875566424","match","gun","gun","label","test","true"
"null","","audio-keyboard-response","227","2688338","0.0-13.0-3.43","l","COGS219_2020_15","Sounds/correct.wav","null","1","","","","","","",""
"null","","audio-keyboard-response","228","2688883","0.0-13.0-0.44","l","COGS219_2020_15","Sounds/gun_label.wav","null","1","","","","","","",""
"null","","html-keyboard-response","229","2689880","0.0-13.0-1.44","l","COGS219_2020_15","<p style=""font-size: 48px;"">+</p>","null","1","","","","","","",""
"484.08500000368804","","image-keyboard-response","230","2690365","0.0-13.0-2.44","l","COGS219_2020_15","Images/cat_cartoon.png","65","1","1581875570490","non-match","cat","gun","label","test","true"
"null","","audio-keyboard-response","231","2692369","0.0-13.0-3.44","l","COGS219_2020_15","Sounds/correct.wav","null","1","","","","","","",""
"null","","audio-keyboard-response","232","2693643","0.0-13.0-0.45","l","COGS219_2020_15","Sounds/train_label.wav","null","1","","","","","","",""
"null","","html-keyboard-response","233","2694647","0.0-13.0-1.45","l","COGS219_2020_15","<p style=""font-size: 48px;"">+</p>","null","1","","","","","","",""
"565.5750000001863","","image-keyboard-response","234","2695214","0.0-13.0-2.45","l","COGS219_2020_15","Images/cat_2.png","65","1","1581875575257","non-match","cat","train","label","test","true"
"null","","audio-keyboard-response","235","2697219","0.0-13.0-3.45","l","COGS219_2020_15","Sounds/correct.wav","null","1","","","","","","",""
"null","","audio-keyboard-response","236","2698123","0.0-13.0-0.46","l","COGS219_2020_15","Sounds/frog_label.wav","null","1","","","","","","",""
"null","","html-keyboard-response","237","2699114","0.0-13.0-1.46","l","COGS219_2020_15","<p style=""font-size: 48px;"">+</p>","null","1","","","","","","",""
"577.4399999934249","","image-keyboard-response","238","2699693","0.0-13.0-2.46","l","COGS219_2020_15","Images/rooster_3.png","65","1","1581875579724","non-match","rooster","frog","label","test","true"
"null","","audio-keyboard-response","239","2701705","0.0-13.0-3.46","l","COGS219_2020_15","Sounds/correct.wav","null","1","","","","","","",""
"null","","audio-keyboard-response","240","2702403","0.0-13.0-0.47","l","COGS219_2020_15","Sounds/rooster_label.wav","null","1","","","","","","",""
"null","","html-keyboard-response","241","2703397","0.0-13.0-1.47","l","COGS219_2020_15","<p style=""font-size: 48px;"">+</p>","null","1","","","","","","",""
"583.2750000120141","","image-keyboard-response","242","2703981","0.0-13.0-2.47","l","COGS219_2020_15","Images/whistle_cartoon.png","65","1","1581875584007","non-match","whistle","rooster","label","test","true"
"null","","audio-keyboard-response","243","2705986","0.0-13.0-3.47","l","COGS219_2020_15","Sounds/correct.wav","null","1","","","","","","",""
"null","","audio-keyboard-response","244","2706823","0.0-13.0-0.48","l","COGS219_2020_15","Sounds/cat_sound.wav","null","1","","","","","","",""
"null","","html-keyboard-response","245","2707814","0.0-13.0-1.48","l","COGS219_2020_15","<p style=""font-size: 48px;"">+</p>","null","1","","","","","","",""
"454.72499998891726","","image-keyboard-response","246","2708270","0.0-13.0-2.48","l","COGS219_2020_15","Images/motorcycle_2.png","65","1","1581875588424","non-match","motorcycle","cat","sound","test","true"
"null","","audio-keyboard-response","247","2710284","0.0-13.0-3.48","l","COGS219_2020_15","Sounds/correct.wav","null","1","","","","","","",""
"null","","audio-keyboard-response","248","2710983","0.0-13.0-0.49","l","COGS219_2020_15","Sounds/whistle_sound.wav","null","1","","","","","","",""
"null","","html-keyboard-response","249","2711980","0.0-13.0-1.49","l","COGS219_2020_15","<p style=""font-size: 48px;"">+</p>","null","1","","","","","","",""
"479.9349999958649","","image-keyboard-response","250","2712461","0.0-13.0-2.49","l","COGS219_2020_15","Images/cow_1.png","65","1","1581875592591","non-match","cow","whistle","sound","test","true"
"null","","audio-keyboard-response","251","2714471","0.0-13.0-3.49","l","COGS219_2020_15","Sounds/correct.wav","null","1","","","","","","",""
"null","","audio-keyboard-response","252","2715283","0.0-13.0-0.50","l","COGS219_2020_15","Sounds/cat_sound.wav","null","1","","","","","","",""
"null","","html-keyboard-response","253","2716280","0.0-13.0-1.50","l","COGS219_2020_15","<p style=""font-size: 48px;"">+</p>","null","1","","","","","","",""
"563.6450000018813","","image-keyboard-response","254","2716845","0.0-13.0-2.50","l","COGS219_2020_15","Images/cat_cartoon.png","76","1","1581875596891","match","cat","cat","sound","test","true"
"null","","audio-keyboard-response","255","2718852","0.0-13.0-3.50","l","COGS219_2020_15","Sounds/correct.wav","null","1","","","","","","",""
"null","","audio-keyboard-response","256","2719963","0.0-13.0-0.51","l","COGS219_2020_15","Sounds/motorcycle_sound.wav","null","1","","","","","","",""
"null","","html-keyboard-response","257","2720981","0.0-13.0-1.51","l","COGS219_2020_15","<p style=""font-size: 48px;"">+</p>","null","1","","","","","","",""
"519.8300000047311","","image-keyboard-response","258","2721501","0.0-13.0-2.51","l","COGS219_2020_15","Images/whistle_1.png","65","1","1581875601591","non-match","whistle","motorcycle","sound","test","true"
"null","","audio-keyboard-response","259","2723518","0.0-13.0-3.51","l","COGS219_2020_15","Sounds/correct.wav","null","1","","","","","","",""
"null","","audio-keyboard-response","260","2724363","0.0-13.0-0.52","l","COGS219_2020_15","Sounds/cat_label.wav","null","1","","","","","","",""
"null","","html-keyboard-response","261","2725397","0.0-13.0-1.52","l","COGS219_2020_15","<p style=""font-size: 48px;"">+</p>","null","1","","","","","","",""
"487.05499999038875","","image-keyboard-response","262","2725885","0.0-13.0-2.52","l","COGS219_2020_15","Images/cat_2.png","76","1","1581875606007","match","cat","cat","label","test","true"
"null","","audio-keyboard-response","263","2727901","0.0-13.0-3.52","l","COGS219_2020_15","Sounds/correct.wav","null","1","","","","","","",""
"null","","audio-keyboard-response","264","2729203","0.0-13.0-0.53","l","COGS219_2020_15","Sounds/train_sound.wav","null","1","","","","","","",""
"null","","html-keyboard-response","265","2730197","0.0-13.0-1.53","l","COGS219_2020_15","<p style=""font-size: 48px;"">+</p>","null","1","","","","","","",""
"519.0949999960139","","image-keyboard-response","266","2730717","0.0-13.0-2.53","l","COGS219_2020_15","Images/train_3.png","76","1","1581875610807","match","train","train","sound","test","true"
"null","","audio-keyboard-response","267","2732735","0.0-13.0-3.53","l","COGS219_2020_15","Sounds/correct.wav","null","1","","","","","","",""
"null","","audio-keyboard-response","268","2733643","0.0-13.0-0.54","l","COGS219_2020_15","Sounds/frog_label.wav","null","1","","","","","","",""
"null","","html-keyboard-response","269","2734631","0.0-13.0-1.54","l","COGS219_2020_15","<p style=""font-size: 48px;"">+</p>","null","1","","","","","","",""
"389.8249999913387","","image-keyboard-response","270","2735021","0.0-13.0-2.54","l","COGS219_2020_15","Images/frog_cartoon.png","76","1","1581875615241","match","frog","frog","label","test","true"
"null","","audio-keyboard-response","271","2737034","0.0-13.0-3.54","l","COGS219_2020_15","Sounds/correct.wav","null","1","","","","","","",""
"null","","audio-keyboard-response","272","2737743","0.0-13.0-0.55","l","COGS219_2020_15","Sounds/whistle_label.wav","null","1","","","","","","",""
"null","","html-keyboard-response","273","2738731","0.0-13.0-1.55","l","COGS219_2020_15","<p style=""font-size: 48px;"">+</p>","null","1","","","","","","",""
"449.6849999995902","","image-keyboard-response","274","2739181","0.0-13.0-2.55","l","COGS219_2020_15","Images/whistle_cartoon.png","76","1","1581875619341","match","whistle","whistle","label","test","true"
"null","","audio-keyboard-response","275","2741187","0.0-13.0-3.55","l","COGS219_2020_15","Sounds/correct.wav","null","1","","","","","","",""
"null","","audio-keyboard-response","276","2741863","0.0-13.0-0.56","l","COGS219_2020_15","Sounds/whistle_label.wav","null","1","","","","","","",""
"null","","html-keyboard-response","277","2742881","0.0-13.0-1.56","l","COGS219_2020_15","<p style=""font-size: 48px;"">+</p>","null","1","","","","","","",""
"539.4150000065565","","image-keyboard-response","278","2743422","0.0-13.0-2.56","l","COGS219_2020_15","Images/whistle_2.png","76","1","1581875623491","match","whistle","whistle","label","test","true"
"null","","audio-keyboard-response","279","2745435","0.0-13.0-3.56","l","COGS219_2020_15","Sounds/correct.wav","null","1","","","","","","",""
"null","","audio-keyboard-response","280","2746103","0.0-13.0-0.57","l","COGS219_2020_15","Sounds/whistle_label.wav","null","1","","","","","","",""
"null","","html-keyboard-response","281","2747098","0.0-13.0-1.57","l","COGS219_2020_15","<p style=""font-size: 48px;"">+</p>","null","1","","","","","","",""
"595.1800000038929","","image-keyboard-response","282","2747694","0.0-13.0-2.57","l","COGS219_2020_15","Images/motorcycle_orig.png","65","1","1581875627708","non-match","motorcycle","whistle","label","test","true"
"null","","audio-keyboard-response","283","2749703","0.0-13.0-3.57","l","COGS219_2020_15","Sounds/correct.wav","null","1","","","","","","",""
"null","","audio-keyboard-response","284","2750363","0.0-13.0-0.58","l","COGS219_2020_15","Sounds/dog_label.wav","null","1","","","","","","",""
"null","","html-keyboard-response","285","2751381","0.0-13.0-1.58","l","COGS219_2020_15","<p style=""font-size: 48px;"">+</p>","null","1","","","","","","",""
"759.3800000031479","","image-keyboard-response","286","2752142","0.0-13.0-2.58","l","COGS219_2020_15","Images/dog_cartoon.png","76","1","1581875631991","match","dog","dog","label","test","true"
"null","","audio-keyboard-response","287","2754151","0.0-13.0-3.58","l","COGS219_2020_15","Sounds/correct.wav","null","1","","","","","","",""
"null","","audio-keyboard-response","288","2755223","0.0-13.0-0.59","l","COGS219_2020_15","Sounds/car_sound.wav","null","1","","","","","","",""
"null","","html-keyboard-response","289","2756215","0.0-13.0-1.59","l","COGS219_2020_15","<p style=""font-size: 48px;"">+</p>","null","1","","","","","","",""
"470.1249999925494","","image-keyboard-response","290","2756686","0.0-13.0-2.59","l","COGS219_2020_15","Images/cow_3.png","65","1","1581875636825","non-match","cow","car","sound","test","true"
"null","","audio-keyboard-response","291","2758703","0.0-13.0-3.59","l","COGS219_2020_15","Sounds/correct.wav","null","1","","","","","","",""
"null","","audio-keyboard-response","292","2759603","0.0-13.0-0.60","l","COGS219_2020_15","Sounds/frog_sound.wav","null","1","","","","","","",""
"null","","html-keyboard-response","293","2760598","0.0-13.0-1.60","l","COGS219_2020_15","<p style=""font-size: 48px;"">+</p>","null","1","","","","","","",""
"534.874999997206","","image-keyboard-response","294","2761134","0.0-13.0-2.60","l","COGS219_2020_15","Images/frog_3.png","76","1","1581875641208","match","frog","frog","sound","test","true"
"null","","audio-keyboard-response","295","2763138","0.0-13.0-3.60","l","COGS219_2020_15","Sounds/correct.wav","null","1","","","","","","",""
"null","","audio-keyboard-response","296","2764163","0.0-13.0-0.61","l","COGS219_2020_15","Sounds/cow_sound.wav","null","1","","","","","","",""
"null","","html-keyboard-response","297","2765181","0.0-13.0-1.61","l","COGS219_2020_15","<p style=""font-size: 48px;"">+</p>","null","1","","","","","","",""
"447.2649999950081","","image-keyboard-response","298","2765630","0.0-13.0-2.61","l","COGS219_2020_15","Images/cow_cartoon.png","76","1","1581875645792","match","cow","cow","sound","test","true"
"null","","audio-keyboard-response","299","2767638","0.0-13.0-3.61","l","COGS219_2020_15","Sounds/correct.wav","null","1","","","","","","",""
"null","","audio-keyboard-response","300","2768683","0.0-13.0-0.62","l","COGS219_2020_15","Sounds/car_sound.wav","null","1","","","","","","",""
"null","","html-keyboard-response","301","2769681","0.0-13.0-1.62","l","COGS219_2020_15","<p style=""font-size: 48px;"">+</p>","null","1","","","","","","",""
"651.0750000015832","","image-keyboard-response","302","2770334","0.0-13.0-2.62","l","COGS219_2020_15","Images/cat_3.png","65","1","1581875650292","non-match","cat","car","sound","test","true"
"null","","audio-keyboard-response","303","2772339","0.0-13.0-3.62","l","COGS219_2020_15","Sounds/correct.wav","null","1","","","","","","",""
"null","","audio-keyboard-response","304","2773483","0.0-13.0-0.63","l","COGS219_2020_15","Sounds/motorcycle_label.wav","null","1","","","","","","",""
"null","","html-keyboard-response","305","2774481","0.0-13.0-1.63","l","COGS219_2020_15","<p style=""font-size: 48px;"">+</p>","null","1","","","","","","",""
"667.3549999976531","","image-keyboard-response","306","2775150","0.0-13.0-2.63","l","COGS219_2020_15","Images/motorcycle_3.png","76","1","1581875655092","match","motorcycle","motorcycle","label","test","true"
"null","","audio-keyboard-response","307","2777153","0.0-13.0-3.63","l","COGS219_2020_15","Sounds/correct.wav","null","1","","","","","","",""
"null","","audio-keyboard-response","308","2778183","0.0-13.0-0.64","l","COGS219_2020_15","Sounds/cow_label.wav","null","1","","","","","","",""
"null","","html-keyboard-response","309","2779182","0.0-13.0-1.64","l","COGS219_2020_15","<p style=""font-size: 48px;"">+</p>","null","1","","","","","","",""
"607.1700000031851","","image-keyboard-response","310","2779790","0.0-13.0-2.64","l","COGS219_2020_15","Images/cow_3.png","76","1","1581875659792","match","cow","cow","label","test","true"
"null","","audio-keyboard-response","311","2781802","0.0-13.0-3.64","l","COGS219_2020_15","Sounds/correct.wav","null","1","","","","","","",""
"null","","audio-keyboard-response","312","2782643","0.0-13.0-0.65","l","COGS219_2020_15","Sounds/cat_label.wav","null","1","","","","","","",""
"null","","html-keyboard-response","313","2783631","0.0-13.0-1.65","l","COGS219_2020_15","<p style=""font-size: 48px;"">+</p>","null","1","","","","","","",""
"685.1400000015274","","image-keyboard-response","314","2784318","0.0-13.0-2.65","l","COGS219_2020_15","Images/cat_1.png","76","1","1581875664242","match","cat","cat","label","test","true"
"null","","audio-keyboard-response","315","2786320","0.0-13.0-3.65","l","COGS219_2020_15","Sounds/correct.wav","null","1","","","","","","",""
"null","","audio-keyboard-response","316","2787403","0.0-13.0-0.66","l","COGS219_2020_15","Sounds/car_label.wav","null","1","","","","","","",""
"null","","html-keyboard-response","317","2788398","0.0-13.0-1.66","l","COGS219_2020_15","<p style=""font-size: 48px;"">+</p>","null","1","","","","","","",""
"462.59000001009554","","image-keyboard-response","318","2788862","0.0-13.0-2.66","l","COGS219_2020_15","Images/car_3.png","76","1","1581875669008","match","car","car","label","test","true"
"null","","audio-keyboard-response","319","2790870","0.0-13.0-3.66","l","COGS219_2020_15","Sounds/correct.wav","null","1","","","","","","",""
"null","","audio-keyboard-response","320","2791763","0.0-13.0-0.67","l","COGS219_2020_15","Sounds/frog_label.wav","null","1","","","","","","",""
"null","","html-keyboard-response","321","2792765","0.0-13.0-1.67","l","COGS219_2020_15","<p style=""font-size: 48px;"">+</p>","null","1","","","","","","",""
"463.730000003241","","image-keyboard-response","322","2793230","0.0-13.0-2.67","l","COGS219_2020_15","Images/cat_orig.png","65","1","1581875673375","non-match","cat","frog","label","test","true"
"null","","audio-keyboard-response","323","2795237","0.0-13.0-3.67","l","COGS219_2020_15","Sounds/correct.wav","null","1","","","","","","",""
"null","","audio-keyboard-response","324","2795943","0.0-13.0-0.68","l","COGS219_2020_15","Sounds/rooster_label.wav","null","1","","","","","","",""
"null","","html-keyboard-response","325","2796932","0.0-13.0-1.68","l","COGS219_2020_15","<p style=""font-size: 48px;"">+</p>","null","1","","","","","","",""
"536.8549999985844","","image-keyboard-response","326","2797470","0.0-13.0-2.68","l","COGS219_2020_15","Images/rooster_1.png","76","1","1581875677542","match","rooster","rooster","label","test","true"
"null","","audio-keyboard-response","327","2799486","0.0-13.0-3.68","l","COGS219_2020_15","Sounds/correct.wav","null","1","","","","","","",""
"null","","audio-keyboard-response","328","2800163","0.0-13.0-0.69","l","COGS219_2020_15","Sounds/rooster_label.wav","null","1","","","","","","",""
"null","","html-keyboard-response","329","2801165","0.0-13.0-1.69","l","COGS219_2020_15","<p style=""font-size: 48px;"">+</p>","null","1","","","","","","",""
"447.8649999946356","","image-keyboard-response","330","2801614","0.0-13.0-2.69","l","COGS219_2020_15","Images/train_cartoon.png","65","1","1581875681775","non-match","train","rooster","label","test","true"
"null","","audio-keyboard-response","331","2803622","0.0-13.0-3.69","l","COGS219_2020_15","Sounds/correct.wav","null","1","","","","","","",""
"null","","audio-keyboard-response","332","2804323","0.0-13.0-0.70","l","COGS219_2020_15","Sounds/dog_sound.wav","null","1","","","","","","",""
"null","","html-keyboard-response","333","2805315","0.0-13.0-1.70","l","COGS219_2020_15","<p style=""font-size: 48px;"">+</p>","null","1","","","","","","",""
"425.52000000467524","","image-keyboard-response","334","2805742","0.0-13.0-2.70","l","COGS219_2020_15","Images/car_2.png","65","1","1581875685925","non-match","car","dog","sound","test","true"
"null","","audio-keyboard-response","335","2807754","0.0-13.0-3.70","l","COGS219_2020_15","Sounds/correct.wav","null","1","","","","","","",""
"null","","audio-keyboard-response","336","2808883","0.0-13.0-0.71","l","COGS219_2020_15","Sounds/motorcycle_label.wav","null","1","","","","","","",""
"null","","html-keyboard-response","337","2809882","0.0-13.0-1.71","l","COGS219_2020_15","<p style=""font-size: 48px;"">+</p>","null","1","","","","","","",""
"530.90500000678","","image-keyboard-response","338","2810414","0.0-13.0-2.71","l","COGS219_2020_15","Images/car_orig.png","65","1","1581875690492","non-match","car","motorcycle","label","test","true"
"null","","audio-keyboard-response","339","2812423","0.0-13.0-3.71","l","COGS219_2020_15","Sounds/correct.wav","null","1","","","","","","",""
"null","","audio-keyboard-response","340","2813263","0.0-13.0-0.72","l","COGS219_2020_15","Sounds/cat_sound.wav","null","1","","","","","","",""
"null","","html-keyboard-response","341","2814265","0.0-13.0-1.72","l","COGS219_2020_15","<p style=""font-size: 48px;"">+</p>","null","1","","","","","","",""
"419.7100000018254","","image-keyboard-response","342","2814686","0.0-13.0-2.72","l","COGS219_2020_15","Images/car_1.png","65","1","1581875694876","non-match","car","cat","sound","test","true"
"null","","audio-keyboard-response","343","2816703","0.0-13.0-3.72","l","COGS219_2020_15","Sounds/correct.wav","null","1","","","","","","",""
"null","","audio-keyboard-response","344","2817403","0.0-13.0-0.73","l","COGS219_2020_15","Sounds/dog_sound.wav","null","1","","","","","","",""
"null","","html-keyboard-response","345","2818399","0.0-13.0-1.73","l","COGS219_2020_15","<p style=""font-size: 48px;"">+</p>","null","1","","","","","","",""
"445.8699999959208","","image-keyboard-response","346","2818846","0.0-13.0-2.73","l","COGS219_2020_15","Images/dog_orig.png","76","1","1581875699009","match","dog","dog","sound","test","true"
"null","","audio-keyboard-response","347","2820856","0.0-13.0-3.73","l","COGS219_2020_15","Sounds/correct.wav","null","1","","","","","","",""
"null","","audio-keyboard-response","348","2821663","0.0-13.0-0.74","l","COGS219_2020_15","Sounds/cat_sound.wav","null","1","","","","","","",""
"null","","html-keyboard-response","349","2822666","0.0-13.0-1.74","l","COGS219_2020_15","<p style=""font-size: 48px;"">+</p>","null","1","","","","","","",""
"819.2199999899603","","image-keyboard-response","350","2823486","0.0-13.0-2.74","l","COGS219_2020_15","Images/cat_3.png","76","1","1581875703276","match","cat","cat","sound","test","true"
"null","","audio-keyboard-response","351","2825488","0.0-13.0-3.74","l","COGS219_2020_15","Sounds/correct.wav","null","1","","","","","","",""
"null","","audio-keyboard-response","352","2826783","0.0-13.0-0.75","l","COGS219_2020_15","Sounds/train_sound.wav","null","1","","","","","","",""
"null","","html-keyboard-response","353","2827782","0.0-13.0-1.75","l","COGS219_2020_15","<p style=""font-size: 48px;"">+</p>","null","1","","","","","","",""
"534.8749999976717","","image-keyboard-response","354","2828318","0.0-13.0-2.75","l","COGS219_2020_15","Images/train_orig.png","76","1","1581875708393","match","train","train","sound","test","true"
"null","","audio-keyboard-response","355","2830321","0.0-13.0-3.75","l","COGS219_2020_15","Sounds/correct.wav","null","1","","","","","","",""
"null","","audio-keyboard-response","356","2830903","0.0-13.0-0.76","l","COGS219_2020_15","Sounds/gun_sound.wav","null","1","","","","","","",""
"null","","html-keyboard-response","357","2831899","0.0-13.0-1.76","l","COGS219_2020_15","<p style=""font-size: 48px;"">+</p>","null","1","","","","","","",""
"497.93500000657514","","image-keyboard-response","358","2832398","0.0-13.0-2.76","l","COGS219_2020_15","Images/motorcycle_cartoon.png","65","1","1581875712509","non-match","motorcycle","gun","sound","test","true"
"null","","audio-keyboard-response","359","2834403","0.0-13.0-3.76","l","COGS219_2020_15","Sounds/correct.wav","null","1","","","","","","",""
"null","","audio-keyboard-response","360","2835423","0.0-13.0-0.77","l","COGS219_2020_15","Sounds/cow_label.wav","null","1","","","","","","",""
"null","","html-keyboard-response","361","2836416","0.0-13.0-1.77","l","COGS219_2020_15","<p style=""font-size: 48px;"">+</p>","null","1","","","","","","",""
"461.1850000070408","","image-keyboard-response","362","2836878","0.0-13.0-2.77","l","COGS219_2020_15","Images/motorcycle_1.png","65","1","1581875717026","non-match","motorcycle","cow","label","test","true"
"null","","audio-keyboard-response","363","2838890","0.0-13.0-3.77","l","COGS219_2020_15","Sounds/correct.wav","null","1","","","","","","",""
"null","","audio-keyboard-response","364","2840163","0.0-13.0-0.78","l","COGS219_2020_15","Sounds/train_sound.wav","null","1","","","","","","",""
"null","","html-keyboard-response","365","2841166","0.0-13.0-1.78","l","COGS219_2020_15","<p style=""font-size: 48px;"">+</p>","null","1","","","","","","",""
"558.164999994915","","image-keyboard-response","366","2841726","0.0-13.0-2.78","l","COGS219_2020_15","Images/gun_1.png","65","1","1581875721776","non-match","gun","train","sound","test","true"
"null","","audio-keyboard-response","367","2843736","0.0-13.0-3.78","l","COGS219_2020_15","Sounds/correct.wav","null","1","","","","","","",""
"null","","audio-keyboard-response","368","2844403","0.0-13.0-0.79","l","COGS219_2020_15","Sounds/dog_label.wav","null","1","","","","","","",""
"null","","html-keyboard-response","369","2845399","0.0-13.0-1.79","l","COGS219_2020_15","<p style=""font-size: 48px;"">+</p>","null","1","","","","","","",""
"421.77999998955056","","image-keyboard-response","370","2845822","0.0-13.0-2.79","l","COGS219_2020_15","Images/frog_cartoon.png","65","1","1581875726009","non-match","frog","dog","label","test","true"
"null","","audio-keyboard-response","371","2847837","0.0-13.0-3.79","l","COGS219_2020_15","Sounds/correct.wav","null","1","","","","","","",""
"null","","audio-keyboard-response","372","2848543","0.0-13.0-0.80","l","COGS219_2020_15","Sounds/whistle_label.wav","null","1","","","","","","",""
"null","","html-keyboard-response","373","2849532","0.0-13.0-1.80","l","COGS219_2020_15","<p style=""font-size: 48px;"">+</p>","null","1","","","","","","",""
"720.4400000041351","","image-keyboard-response","374","2850254","0.0-13.0-2.80","l","COGS219_2020_15","Images/gun_2.png","65","1","1581875730143","non-match","gun","whistle","label","test","true"
"null","","audio-keyboard-response","375","2852270","0.0-13.0-3.80","l","COGS219_2020_15","Sounds/correct.wav","null","1","","","","","","",""
"null","","audio-keyboard-response","376","2852983","0.0-13.0-0.81","l","COGS219_2020_15","Sounds/dog_sound.wav","null","1","","","","","","",""
"null","","html-keyboard-response","377","2853983","0.0-13.0-1.81","l","COGS219_2020_15","<p style=""font-size: 48px;"">+</p>","null","1","","","","","","",""
"381.7100000018254","","image-keyboard-response","378","2854366","0.0-13.0-2.81","l","COGS219_2020_15","Images/dog_2.png","76","1","1581875734593","match","dog","dog","sound","test","true"
"null","","audio-keyboard-response","379","2856371","0.0-13.0-3.81","l","COGS219_2020_15","Sounds/correct.wav","null","1","","","","","","",""
"null","","audio-keyboard-response","380","2857063","0.0-13.0-0.82","l","COGS219_2020_15","Sounds/whistle_sound.wav","null","1","","","","","","",""
"null","","html-keyboard-response","381","2858066","0.0-13.0-1.82","l","COGS219_2020_15","<p style=""font-size: 48px;"">+</p>","null","1","","","","","","",""
"474.79999999608845","","image-keyboard-response","382","2858542","0.0-13.0-2.82","l","COGS219_2020_15","Images/cat_1.png","65","1","1581875738676","non-match","cat","whistle","sound","test","true"
"null","","audio-keyboard-response","383","2860552","0.0-13.0-3.82","l","COGS219_2020_15","Sounds/correct.wav","null","1","","","","","","",""
"null","","audio-keyboard-response","384","2861823","0.0-13.0-0.83","l","COGS219_2020_15","Sounds/train_label.wav","null","1","","","","","","",""
"null","","html-keyboard-response","385","2862816","0.0-13.0-1.83","l","COGS219_2020_15","<p style=""font-size: 48px;"">+</p>","null","1","","","","","","",""
"460.8349999911152","","image-keyboard-response","386","2863278","0.0-13.0-2.83","l","COGS219_2020_15","Images/train_cartoon.png","76","1","1581875743426","match","train","train","label","test","true"
"null","","audio-keyboard-response","387","2865289","0.0-13.0-3.83","l","COGS219_2020_15","Sounds/correct.wav","null","1","","","","","","",""
"null","","audio-keyboard-response","388","2866304","0.0-13.0-0.84","l","COGS219_2020_15","Sounds/cow_label.wav","null","1","","","","","","",""
"null","","html-keyboard-response","389","2867300","0.0-13.0-1.84","l","COGS219_2020_15","<p style=""font-size: 48px;"">+</p>","null","1","","","","","","",""
"537.8899999922141","","image-keyboard-response","390","2867839","0.0-13.0-2.84","l","COGS219_2020_15","Images/dog_1.png","65","1","1581875747910","non-match","dog","cow","label","test","true"
"null","","audio-keyboard-response","391","2869856","0.0-13.0-3.84","l","COGS219_2020_15","Sounds/correct.wav","null","1","","","","","","",""
"null","","audio-keyboard-response","392","2871164","0.0-13.0-0.85","l","COGS219_2020_15","Sounds/train_sound.wav","null","1","","","","","","",""
"null","","html-keyboard-response","393","2872167","0.0-13.0-1.85","l","COGS219_2020_15","<p style=""font-size: 48px;"">+</p>","null","1","","","","","","",""
"916.8899999931455","","image-keyboard-response","394","2873087","0.0-13.0-2.85","l","COGS219_2020_15","Images/rooster_1.png","65","1","1581875752777","non-match","rooster","train","sound","test","true"
"null","","audio-keyboard-response","395","2875089","0.0-13.0-3.85","l","COGS219_2020_15","Sounds/correct.wav","null","1","","","","","","",""
"null","","audio-keyboard-response","396","2876224","0.0-13.0-0.86","l","COGS219_2020_15","Sounds/motorcycle_label.wav","null","1","","","","","","",""
"null","","html-keyboard-response","397","2877217","0.0-13.0-1.86","l","COGS219_2020_15","<p style=""font-size: 48px;"">+</p>","null","1","","","","","","",""
"651.9399999957532","","image-keyboard-response","398","2877871","0.0-13.0-2.86","l","COGS219_2020_15","Images/motorcycle_1.png","76","1","1581875757827","match","motorcycle","motorcycle","label","test","true"
"null","","audio-keyboard-response","399","2879888","0.0-13.0-3.86","l","COGS219_2020_15","Sounds/correct.wav","null","1","","","","","","",""
"null","","audio-keyboard-response","400","2881164","0.0-13.0-0.87","l","COGS219_2020_15","Sounds/train_sound.wav","null","1","","","","","","",""
"null","","html-keyboard-response","401","2882167","0.0-13.0-1.87","l","COGS219_2020_15","<p style=""font-size: 48px;"">+</p>","null","1","","","","","","",""
"470.8649999955669","","image-keyboard-response","402","2882639","0.0-13.0-2.87","l","COGS219_2020_15","Images/train_1.png","76","1","1581875762777","match","train","train","sound","test","true"
"null","","audio-keyboard-response","403","2884654","0.0-13.0-3.87","l","COGS219_2020_15","Sounds/correct.wav","null","1","","","","","","",""
"null","","audio-keyboard-response","404","2885764","0.0-13.0-0.88","l","COGS219_2020_15","Sounds/motorcycle_label.wav","null","1","","","","","","",""
"null","","html-keyboard-response","405","2886767","0.0-13.0-1.88","l","COGS219_2020_15","<p style=""font-size: 48px;"">+</p>","null","1","","","","","","",""
"558.7350000133738","","image-keyboard-response","406","2887327","0.0-13.0-2.88","l","COGS219_2020_15","Images/motorcycle_cartoon.png","65","1","1581875767377","match","motorcycle","motorcycle","label","test","false"
"null","","audio-keyboard-response","407","2889339","0.0-13.0-3.88","l","COGS219_2020_15","Sounds/incorrect.wav","null","1","","","","","","",""
"null","","audio-keyboard-response","408","2890364","0.0-13.0-0.89","l","COGS219_2020_15","Sounds/cow_label.wav","null","1","","","","","","",""
"null","","html-keyboard-response","409","2891367","0.0-13.0-1.89","l","COGS219_2020_15","<p style=""font-size: 48px;"">+</p>","null","1","","","","","","",""
"647.0450000050478","","image-keyboard-response","410","2892015","0.0-13.0-2.89","l","COGS219_2020_15","Images/rooster_2.png","65","1","1581875771977","non-match","rooster","cow","label","test","true"
"null","","audio-keyboard-response","411","2894022","0.0-13.0-3.89","l","COGS219_2020_15","Sounds/correct.wav","null","1","","","","","","",""
"null","","audio-keyboard-response","412","2894724","0.0-13.0-0.90","l","COGS219_2020_15","Sounds/rooster_label.wav","null","1","","","","","","",""
"null","","html-keyboard-response","413","2895717","0.0-13.0-1.90","l","COGS219_2020_15","<p style=""font-size: 48px;"">+</p>","null","1","","","","","","",""
"536.6450000000186","","image-keyboard-response","414","2896255","0.0-13.0-2.90","l","COGS219_2020_15","Images/gun_3.png","65","1","1581875776327","non-match","gun","rooster","label","test","true"
"null","","audio-keyboard-response","415","2898271","0.0-13.0-3.90","l","COGS219_2020_15","Sounds/correct.wav","null","1","","","","","","",""
"null","","audio-keyboard-response","416","2899564","0.0-13.0-0.91","l","COGS219_2020_15","Sounds/train_sound.wav","null","1","","","","","","",""
"null","","html-keyboard-response","417","2900567","0.0-13.0-1.91","l","COGS219_2020_15","<p style=""font-size: 48px;"">+</p>","null","1","","","","","","",""
"454.425000003539","","image-keyboard-response","418","2901023","0.0-13.0-2.91","l","COGS219_2020_15","Images/cow_cartoon.png","65","1","1581875781177","non-match","cow","train","sound","test","true"
"null","","audio-keyboard-response","419","2903038","0.0-13.0-3.91","l","COGS219_2020_15","Sounds/correct.wav","null","1","","","","","","",""
"null","","audio-keyboard-response","420","2903624","0.0-13.0-0.92","l","COGS219_2020_15","Sounds/gun_label.wav","null","1","","","","","","",""
"null","","html-keyboard-response","421","2904617","0.0-13.0-1.92","l","COGS219_2020_15","<p style=""font-size: 48px;"">+</p>","null","1","","","","","","",""
"500.5199999869801","","image-keyboard-response","422","2905119","0.0-13.0-2.92","l","COGS219_2020_15","Images/dog_2.png","76","1","1581875785227","non-match","dog","gun","label","test","false"
"null","","audio-keyboard-response","423","2907123","0.0-13.0-3.92","l","COGS219_2020_15","Sounds/incorrect.wav","null","1","","","","","","",""
"null","","audio-keyboard-response","424","2907684","0.0-13.0-0.93","l","COGS219_2020_15","Sounds/gun_sound.wav","null","1","","","","","","",""
"null","","html-keyboard-response","425","2908684","0.0-13.0-1.93","l","COGS219_2020_15","<p style=""font-size: 48px;"">+</p>","null","1","","","","","","",""
"481.8049999885261","","image-keyboard-response","426","2909167","0.0-13.0-2.93","l","COGS219_2020_15","Images/gun_3.png","76","1","1581875789294","match","gun","gun","sound","test","true"
"null","","audio-keyboard-response","427","2911174","0.0-13.0-3.93","l","COGS219_2020_15","Sounds/correct.wav","null","1","","","","","","",""
"null","","audio-keyboard-response","428","2911864","0.0-13.0-0.94","l","COGS219_2020_15","Sounds/rooster_sound.wav","null","1","","","","","","",""
"null","","html-keyboard-response","429","2912867","0.0-13.0-1.94","l","COGS219_2020_15","<p style=""font-size: 48px;"">+</p>","null","1","","","","","","",""
"426.3950000018813","","image-keyboard-response","430","2913295","0.0-13.0-2.94","l","COGS219_2020_15","Images/rooster_orig.png","76","1","1581875793477","match","rooster","rooster","sound","test","true"
"null","","audio-keyboard-response","431","2915305","0.0-13.0-3.94","l","COGS219_2020_15","Sounds/correct.wav","null","1","","","","","","",""
"null","","audio-keyboard-response","432","2916424","0.0-13.0-0.95","l","COGS219_2020_15","Sounds/motorcycle_sound.wav","null","1","","","","","","",""
"null","","html-keyboard-response","433","2917417","0.0-13.0-1.95","l","COGS219_2020_15","<p style=""font-size: 48px;"">+</p>","null","1","","","","","","",""
"819.6049999967217","","image-keyboard-response","434","2918239","0.0-13.0-2.95","l","COGS219_2020_15","Images/motorcycle_2.png","65","1","1581875798028","match","motorcycle","motorcycle","sound","test","false"
"null","","audio-keyboard-response","435","2920255","0.0-13.0-3.95","l","COGS219_2020_15","Sounds/incorrect.wav","null","1","","","","","","",""
"null","","audio-keyboard-response","436","2921324","0.0-13.0-0.96","l","COGS219_2020_15","Sounds/car_label.wav","null","1","","","","","","",""
"null","","html-keyboard-response","437","2922317","0.0-13.0-1.96","l","COGS219_2020_15","<p style=""font-size: 48px;"">+</p>","null","1","","","","","","",""
"512.3650000020862","","image-keyboard-response","438","2922831","0.0-13.0-2.96","l","COGS219_2020_15","Images/car_orig.png","76","1","1581875802927","match","car","car","label","test","true"
"null","","audio-keyboard-response","439","2924841","0.0-13.0-3.96","l","COGS219_2020_15","Sounds/correct.wav","null","1","","","","","","",""
"null","","audio-keyboard-response","440","2925505","0.0-13.0-0.97","l","COGS219_2020_15","Sounds/dog_label.wav","null","1","","","","","","",""
"null","","html-keyboard-response","441","2926501","0.0-13.0-1.97","l","COGS219_2020_15","<p style=""font-size: 48px;"">+</p>","null","1","","","","","","",""
"457.0050000040792","","image-keyboard-response","442","2926959","0.0-13.0-2.97","l","COGS219_2020_15","Images/gun_orig.png","65","1","1581875807111","non-match","gun","dog","label","test","true"
"null","","audio-keyboard-response","443","2928972","0.0-13.0-3.97","l","COGS219_2020_15","Sounds/correct.wav","null","1","","","","","","",""
"null","","audio-keyboard-response","444","2929805","0.0-13.0-0.98","l","COGS219_2020_15","Sounds/cat_label.wav","null","1","","","","","","",""
"null","","html-keyboard-response","445","2930801","0.0-13.0-1.98","l","COGS219_2020_15","<p style=""font-size: 48px;"">+</p>","null","1","","","","","","",""
"445.0799999902956","","image-keyboard-response","446","2931247","0.0-13.0-2.98","l","COGS219_2020_15","Images/frog_2.png","65","1","1581875811412","non-match","frog","cat","label","test","true"
"null","","audio-keyboard-response","447","2933257","0.0-13.0-3.98","l","COGS219_2020_15","Sounds/correct.wav","null","1","","","","","","",""
"null","","audio-keyboard-response","448","2933825","0.0-13.0-0.99","l","COGS219_2020_15","Sounds/gun_sound.wav","null","1","","","","","","",""
"null","","html-keyboard-response","449","2934818","0.0-13.0-1.99","l","COGS219_2020_15","<p style=""font-size: 48px;"">+</p>","null","1","","","","","","",""
"508.1450000000186","","image-keyboard-response","450","2935327","0.0-13.0-2.99","l","COGS219_2020_15","Images/gun_cartoon.png","76","1","1581875815428","match","gun","gun","sound","test","true"
"null","","audio-keyboard-response","451","2937338","0.0-13.0-3.99","l","COGS219_2020_15","Sounds/correct.wav","null","1","","","","","","",""
"14196.939999994822","","html-keyboard-response","452","2951535","0.0-14.0","l","COGS219_2020_15","<p>Please take this opportunity to rest your eyes before proceeding.</p><p>When ready, press the enter key to continue to the next set of trials.</p>","13","","","","","","","",""
"null","","audio-keyboard-response","453","2954635","0.0-15.0-0.0","l","COGS219_2020_15","Sounds/car_label.wav","null","2","","","","","","",""
"null","","html-keyboard-response","454","2955635","0.0-15.0-1.0","l","COGS219_2020_15","<p style=""font-size: 48px;"">+</p>","null","2","","","","","","",""
"523.5099999993108","","image-keyboard-response","455","2956159","0.0-15.0-2.0","l","COGS219_2020_15","Images/cow_1.png","65","2","1581875836246","non-match","cow","car","label","test","true"
"null","","audio-keyboard-response","456","2958174","0.0-15.0-3.0","l","COGS219_2020_15","Sounds/correct.wav","null","2","","","","","","",""
"null","","audio-keyboard-response","457","2959295","0.0-15.0-0.1","l","COGS219_2020_15","Sounds/motorcycle_sound.wav","null","2","","","","","","",""
"null","","html-keyboard-response","458","2960285","0.0-15.0-1.1","l","COGS219_2020_15","<p style=""font-size: 48px;"">+</p>","null","2","","","","","","",""
"481.4699999988079","","image-keyboard-response","459","2960767","0.0-15.0-2.1","l","COGS219_2020_15","Images/dog_orig.png","65","2","1581875840895","non-match","dog","motorcycle","sound","test","true"
"null","","audio-keyboard-response","460","2962776","0.0-15.0-3.1","l","COGS219_2020_15","Sounds/correct.wav","null","2","","","","","","",""
"null","","audio-keyboard-response","461","2963435","0.0-15.0-0.2","l","COGS219_2020_15","Sounds/dog_label.wav","null","2","","","","","","",""
"null","","html-keyboard-response","462","2964435","0.0-15.0-1.2","l","COGS219_2020_15","<p style=""font-size: 48px;"">+</p>","null","2","","","","","","",""
"443.45999999530613","","image-keyboard-response","463","2964879","0.0-15.0-2.2","l","COGS219_2020_15","Images/rooster_orig.png","65","2","1581875845045","non-match","rooster","dog","label","test","true"
"null","","audio-keyboard-response","464","2966888","0.0-15.0-3.2","l","COGS219_2020_15","Sounds/correct.wav","null","2","","","","","","",""
"null","","audio-keyboard-response","465","2967935","0.0-15.0-0.3","l","COGS219_2020_15","Sounds/car_label.wav","null","2","","","","","","",""
"null","","html-keyboard-response","466","2968935","0.0-15.0-1.3","l","COGS219_2020_15","<p style=""font-size: 48px;"">+</p>","null","2","","","","","","",""
"567.4050000086427","","image-keyboard-response","467","2969504","0.0-15.0-2.3","l","COGS219_2020_15","Images/cat_orig.png","65","2","1581875849545","non-match","cat","car","label","test","true"
"null","","audio-keyboard-response","468","2971508","0.0-15.0-3.3","l","COGS219_2020_15","Sounds/correct.wav","null","2","","","","","","",""
"null","","audio-keyboard-response","469","2972795","0.0-15.0-0.4","l","COGS219_2020_15","Sounds/train_label.wav","null","2","","","","","","",""
"null","","html-keyboard-response","470","2973785","0.0-15.0-1.4","l","COGS219_2020_15","<p style=""font-size: 48px;"">+</p>","null","2","","","","","","",""
"372.2399999969639","","image-keyboard-response","471","2974159","0.0-15.0-2.4","l","COGS219_2020_15","Images/train_2.png","76","2","1581875854395","match","train","train","label","test","true"
"null","","audio-keyboard-response","472","2976174","0.0-15.0-3.4","l","COGS219_2020_15","Sounds/correct.wav","null","2","","","","","","",""
"null","","audio-keyboard-response","473","2977175","0.0-15.0-0.5","l","COGS219_2020_15","Sounds/cow_label.wav","null","2","","","","","","",""
"null","","html-keyboard-response","474","2978168","0.0-15.0-1.5","l","COGS219_2020_15","<p style=""font-size: 48px;"">+</p>","null","2","","","","","","",""
"470.09499999694526","","image-keyboard-response","475","2978639","0.0-15.0-2.5","l","COGS219_2020_15","Images/car_cartoon.png","65","2","1581875858779","non-match","car","cow","label","test","true"
"null","","audio-keyboard-response","476","2980656","0.0-15.0-3.5","l","COGS219_2020_15","Sounds/correct.wav","null","2","","","","","","",""
"null","","audio-keyboard-response","477","2981495","0.0-15.0-0.6","l","COGS219_2020_15","Sounds/cat_label.wav","null","2","","","","","","",""
"null","","html-keyboard-response","478","2982485","0.0-15.0-1.6","l","COGS219_2020_15","<p style=""font-size: 48px;"">+</p>","null","2","","","","","","",""
"505.1249999962747","","image-keyboard-response","479","2982991","0.0-15.0-2.6","l","COGS219_2020_15","Images/rooster_3.png","65","2","1581875863095","non-match","rooster","cat","label","test","true"
"null","","audio-keyboard-response","480","2985006","0.0-15.0-3.6","l","COGS219_2020_15","Sounds/correct.wav","null","2","","","","","","",""
"null","","audio-keyboard-response","481","2986136","0.0-15.0-0.7","l","COGS219_2020_15","Sounds/motorcycle_label.wav","null","2","","","","","","",""
"null","","html-keyboard-response","482","2987136","0.0-15.0-1.7","l","COGS219_2020_15","<p style=""font-size: 48px;"">+</p>","null","2","","","","","","",""
"461.835000009276","","image-keyboard-response","483","2987600","0.0-15.0-2.7","l","COGS219_2020_15","Images/gun_cartoon.png","65","2","1581875867746","non-match","gun","motorcycle","label","test","true"
"null","","audio-keyboard-response","484","2989610","0.0-15.0-3.7","l","COGS219_2020_15","Sounds/correct.wav","null","2","","","","","","",""
"null","","audio-keyboard-response","485","2990316","0.0-15.0-0.8","l","COGS219_2020_15","Sounds/whistle_sound.wav","null","2","","","","","","",""
"null","","html-keyboard-response","486","2991319","0.0-15.0-1.8","l","COGS219_2020_15","<p style=""font-size: 48px;"">+</p>","null","2","","","","","","",""
"503.92499999701977","","image-keyboard-response","487","2991824","0.0-15.0-2.8","l","COGS219_2020_15","Images/car_orig.png","65","2","1581875871929","non-match","car","whistle","sound","test","true"
"null","","audio-keyboard-response","488","2993842","0.0-15.0-3.8","l","COGS219_2020_15","Sounds/correct.wav","null","2","","","","","","",""
"null","","audio-keyboard-response","489","2994536","0.0-15.0-0.9","l","COGS219_2020_15","Sounds/rooster_label.wav","null","2","","","","","","",""
"null","","html-keyboard-response","490","2995536","0.0-15.0-1.9","l","COGS219_2020_15","<p style=""font-size: 48px;"">+</p>","null","2","","","","","","",""
"446.92500001145527","","image-keyboard-response","491","2995984","0.0-15.0-2.9","l","COGS219_2020_15","Images/rooster_2.png","76","2","1581875876146","match","rooster","rooster","label","test","true"
"null","","audio-keyboard-response","492","2997991","0.0-15.0-3.9","l","COGS219_2020_15","Sounds/correct.wav","null","2","","","","","","",""
"null","","audio-keyboard-response","493","2998656","0.0-15.0-0.10","l","COGS219_2020_15","Sounds/rooster_label.wav","null","2","","","","","","",""
"null","","html-keyboard-response","494","2999653","0.0-15.0-1.10","l","COGS219_2020_15","<p style=""font-size: 48px;"">+</p>","null","2","","","","","","",""
"586.0949999913573","","image-keyboard-response","495","3000240","0.0-15.0-2.10","l","COGS219_2020_15","Images/rooster_1.png","76","2","1581875880263","match","rooster","rooster","label","test","true"
"null","","audio-keyboard-response","496","3002244","0.0-15.0-3.10","l","COGS219_2020_15","Sounds/correct.wav","null","2","","","","","","",""
"null","","audio-keyboard-response","497","3003256","0.0-15.0-0.11","l","COGS219_2020_15","Sounds/cow_sound.wav","null","2","","","","","","",""
"null","","html-keyboard-response","498","3004253","0.0-15.0-1.11","l","COGS219_2020_15","<p style=""font-size: 48px;"">+</p>","null","2","","","","","","",""
"674.4199999952689","","image-keyboard-response","499","3004928","0.0-15.0-2.11","l","COGS219_2020_15","Images/motorcycle_1.png","65","2","1581875884863","non-match","motorcycle","cow","sound","test","true"
"null","","audio-keyboard-response","500","3006939","0.0-15.0-3.11","l","COGS219_2020_15","Sounds/correct.wav","null","2","","","","","","",""
"null","","audio-keyboard-response","501","3007776","0.0-15.0-0.12","l","COGS219_2020_15","Sounds/cat_sound.wav","null","2","","","","","","",""
"null","","html-keyboard-response","502","3008770","0.0-15.0-1.12","l","COGS219_2020_15","<p style=""font-size: 48px;"">+</p>","null","2","","","","","","",""
"493.37999999988824","","image-keyboard-response","503","3009264","0.0-15.0-2.12","l","COGS219_2020_15","Images/motorcycle_2.png","65","2","1581875889380","non-match","motorcycle","cat","sound","test","true"
"null","","audio-keyboard-response","504","3011273","0.0-15.0-3.12","l","COGS219_2020_15","Sounds/correct.wav","null","2","","","","","","",""
"null","","audio-keyboard-response","505","3011976","0.0-15.0-0.13","l","COGS219_2020_15","Sounds/whistle_sound.wav","null","2","","","","","","",""
"null","","html-keyboard-response","506","3012970","0.0-15.0-1.13","l","COGS219_2020_15","<p style=""font-size: 48px;"">+</p>","null","2","","","","","","",""
"453.42000000551343","","image-keyboard-response","507","3013424","0.0-15.0-2.13","l","COGS219_2020_15","Images/dog_3.png","65","2","1581875893580","non-match","dog","whistle","sound","test","true"
"null","","audio-keyboard-response","508","3015440","0.0-15.0-3.13","l","COGS219_2020_15","Sounds/correct.wav","null","2","","","","","","",""
"null","","audio-keyboard-response","509","3016556","0.0-15.0-0.14","l","COGS219_2020_15","Sounds/motorcycle_sound.wav","null","2","","","","","","",""
"null","","html-keyboard-response","510","3017553","0.0-15.0-1.14","l","COGS219_2020_15","<p style=""font-size: 48px;"">+</p>","null","2","","","","","","",""
"478.2850000048056","","image-keyboard-response","511","3018032","0.0-15.0-2.14","l","COGS219_2020_15","Images/motorcycle_cartoon.png","65","2","1581875898163","match","motorcycle","motorcycle","sound","test","false"
"null","","audio-keyboard-response","512","3020041","0.0-15.0-3.14","l","COGS219_2020_15","Sounds/incorrect.wav","null","2","","","","","","",""
"null","","audio-keyboard-response","513","3021136","0.0-15.0-0.15","l","COGS219_2020_15","Sounds/motorcycle_sound.wav","null","2","","","","","","",""
"null","","html-keyboard-response","514","3022136","0.0-15.0-1.15","l","COGS219_2020_15","<p style=""font-size: 48px;"">+</p>","null","2","","","","","","",""
"486.67500000773","","image-keyboard-response","515","3022624","0.0-15.0-2.15","l","COGS219_2020_15","Images/motorcycle_1.png","76","2","1581875902747","match","motorcycle","motorcycle","sound","test","true"
"null","","audio-keyboard-response","516","3024640","0.0-15.0-3.15","l","COGS219_2020_15","Sounds/correct.wav","null","2","","","","","","",""
"null","","audio-keyboard-response","517","3025216","0.0-15.0-0.16","l","COGS219_2020_15","Sounds/gun_sound.wav","null","2","","","","","","",""
"null","","html-keyboard-response","518","3026220","0.0-15.0-1.16","l","COGS219_2020_15","<p style=""font-size: 48px;"">+</p>","null","2","","","","","","",""
"435.09500000812113","","image-keyboard-response","519","3026656","0.0-15.0-2.16","l","COGS219_2020_15","Images/gun_orig.png","76","2","1581875906830","match","gun","gun","sound","test","true"
"null","","audio-keyboard-response","520","3028674","0.0-15.0-3.16","l","COGS219_2020_15","Sounds/correct.wav","null","2","","","","","","",""
"null","","audio-keyboard-response","521","3029376","0.0-15.0-0.17","l","COGS219_2020_15","Sounds/rooster_sound.wav","null","2","","","","","","",""
"null","","html-keyboard-response","522","3030370","0.0-15.0-1.17","l","COGS219_2020_15","<p style=""font-size: 48px;"">+</p>","null","2","","","","","","",""
"925.4450000007637","","image-keyboard-response","523","3031296","0.0-15.0-2.17","l","COGS219_2020_15","Images/train_orig.png","65","2","1581875910980","non-match","train","rooster","sound","test","true"
"null","","audio-keyboard-response","524","3033307","0.0-15.0-3.17","l","COGS219_2020_15","Sounds/correct.wav","null","2","","","","","","",""
"null","","audio-keyboard-response","525","3033976","0.0-15.0-0.18","l","COGS219_2020_15","Sounds/rooster_sound.wav","null","2","","","","","","",""
"null","","html-keyboard-response","526","3034970","0.0-15.0-1.18","l","COGS219_2020_15","<p style=""font-size: 48px;"">+</p>","null","2","","","","","","",""
"373.1450000051409","","image-keyboard-response","527","3035344","0.0-15.0-2.18","l","COGS219_2020_15","Images/rooster_orig.png","76","2","1581875915580","match","rooster","rooster","sound","test","true"
"null","","audio-keyboard-response","528","3037352","0.0-15.0-3.18","l","COGS219_2020_15","Sounds/correct.wav","null","2","","","","","","",""
"null","","audio-keyboard-response","529","3037936","0.0-15.0-0.19","l","COGS219_2020_15","Sounds/gun_label.wav","null","2","","","","","","",""
"null","","html-keyboard-response","530","3038937","0.0-15.0-1.19","l","COGS219_2020_15","<p style=""font-size: 48px;"">+</p>","null","2","","","","","","",""
"566.3700000005774","","image-keyboard-response","531","3039504","0.0-15.0-2.19","l","COGS219_2020_15","Images/cow_3.png","65","2","1581875919547","non-match","cow","gun","label","test","true"
"null","","audio-keyboard-response","532","3041508","0.0-15.0-3.19","l","COGS219_2020_15","Sounds/correct.wav","null","2","","","","","","",""
"null","","audio-keyboard-response","533","3042796","0.0-15.0-0.20","l","COGS219_2020_15","Sounds/train_label.wav","null","2","","","","","","",""
"null","","html-keyboard-response","534","3043787","0.0-15.0-1.20","l","COGS219_2020_15","<p style=""font-size: 48px;"">+</p>","null","2","","","","","","",""
"498.64000000525266","","image-keyboard-response","535","3044288","0.0-15.0-2.20","l","COGS219_2020_15","Images/dog_1.png","65","2","1581875924397","non-match","dog","train","label","test","true"
"null","","audio-keyboard-response","536","3046301","0.0-15.0-3.20","l","COGS219_2020_15","Sounds/correct.wav","null","2","","","","","","",""
"null","","audio-keyboard-response","537","3047377","0.0-15.0-0.21","l","COGS219_2020_15","Sounds/car_sound.wav","null","2","","","","","","",""
"null","","html-keyboard-response","538","3048371","0.0-15.0-1.21","l","COGS219_2020_15","<p style=""font-size: 48px;"">+</p>","null","2","","","","","","",""
"525.074999997858","","image-keyboard-response","539","3048897","0.0-15.0-2.21","l","COGS219_2020_15","Images/frog_2.png","65","2","1581875928981","non-match","frog","car","sound","test","true"
"null","","audio-keyboard-response","540","3050909","0.0-15.0-3.21","l","COGS219_2020_15","Sounds/correct.wav","null","2","","","","","","",""
"null","","audio-keyboard-response","541","3051617","0.0-15.0-0.22","l","COGS219_2020_15","Sounds/whistle_sound.wav","null","2","","","","","","",""
"null","","html-keyboard-response","542","3052621","0.0-15.0-1.22","l","COGS219_2020_15","<p style=""font-size: 48px;"">+</p>","null","2","","","","","","",""
"482.81500001018867","","image-keyboard-response","543","3053105","0.0-15.0-2.22","l","COGS219_2020_15","Images/whistle_2.png","76","2","1581875933231","match","whistle","whistle","sound","test","true"
"null","","audio-keyboard-response","544","3055109","0.0-15.0-3.22","l","COGS219_2020_15","Sounds/correct.wav","null","2","","","","","","",""
"null","","audio-keyboard-response","545","3055957","0.0-15.0-0.23","l","COGS219_2020_15","Sounds/cat_label.wav","null","2","","","","","","",""
"null","","html-keyboard-response","546","3056954","0.0-15.0-1.23","l","COGS219_2020_15","<p style=""font-size: 48px;"">+</p>","null","2","","","","","","",""
"469.80999999539927","","image-keyboard-response","547","3057425","0.0-15.0-2.23","l","COGS219_2020_15","Images/cat_orig.png","65","2","1581875937564","match","cat","cat","label","test","false"
"null","","audio-keyboard-response","548","3059442","0.0-15.0-3.23","l","COGS219_2020_15","Sounds/incorrect.wav","null","2","","","","","","",""
"null","","audio-keyboard-response","549","3060457","0.0-15.0-0.24","l","COGS219_2020_15","Sounds/cow_sound.wav","null","2","","","","","","",""
"null","","html-keyboard-response","550","3061454","0.0-15.0-1.24","l","COGS219_2020_15","<p style=""font-size: 48px;"">+</p>","null","2","","","","","","",""
"625.594999990426","","image-keyboard-response","551","3062081","0.0-15.0-2.24","l","COGS219_2020_15","Images/cow_cartoon.png","76","2","1581875942065","match","cow","cow","sound","test","true"
"null","","audio-keyboard-response","552","3064093","0.0-15.0-3.24","l","COGS219_2020_15","Sounds/correct.wav","null","2","","","","","","",""
"null","","audio-keyboard-response","553","3064757","0.0-15.0-0.25","l","COGS219_2020_15","Sounds/whistle_sound.wav","null","2","","","","","","",""
"null","","html-keyboard-response","554","3065754","0.0-15.0-1.25","l","COGS219_2020_15","<p style=""font-size: 48px;"">+</p>","null","2","","","","","","",""
"597.5500000058673","","image-keyboard-response","555","3066353","0.0-15.0-2.25","l","COGS219_2020_15","Images/whistle_3.png","76","2","1581875946365","match","whistle","whistle","sound","test","true"
"null","","audio-keyboard-response","556","3068359","0.0-15.0-3.25","l","COGS219_2020_15","Sounds/correct.wav","null","2","","","","","","",""
"null","","audio-keyboard-response","557","3069357","0.0-15.0-0.26","l","COGS219_2020_15","Sounds/cow_sound.wav","null","2","","","","","","",""
"null","","html-keyboard-response","558","3070354","0.0-15.0-1.26","l","COGS219_2020_15","<p style=""font-size: 48px;"">+</p>","null","2","","","","","","",""
"493.90000000130385","","image-keyboard-response","559","3070849","0.0-15.0-2.26","l","COGS219_2020_15","Images/cow_2.png","76","2","1581875950965","match","cow","cow","sound","test","true"
"null","","audio-keyboard-response","560","3072860","0.0-15.0-3.26","l","COGS219_2020_15","Sounds/correct.wav","null","2","","","","","","",""
"null","","audio-keyboard-response","561","3073937","0.0-15.0-0.27","l","COGS219_2020_15","Sounds/car_label.wav","null","2","","","","","","",""
"null","","html-keyboard-response","562","3074954","0.0-15.0-1.27","l","COGS219_2020_15","<p style=""font-size: 48px;"">+</p>","null","2","","","","","","",""
"469.3600000026636","","image-keyboard-response","563","3075425","0.0-15.0-2.27","l","COGS219_2020_15","Images/car_orig.png","76","2","1581875955565","match","car","car","label","test","true"
"null","","audio-keyboard-response","564","3077442","0.0-15.0-3.27","l","COGS219_2020_15","Sounds/correct.wav","null","2","","","","","","",""
"null","","audio-keyboard-response","565","3078137","0.0-15.0-0.28","l","COGS219_2020_15","Sounds/whistle_label.wav","null","2","","","","","","",""
"null","","html-keyboard-response","566","3079154","0.0-15.0-1.28","l","COGS219_2020_15","<p style=""font-size: 48px;"">+</p>","null","2","","","","","","",""
"461.54499999806285","","image-keyboard-response","567","3079617","0.0-15.0-2.28","l","COGS219_2020_15","Images/whistle_1.png","76","2","1581875959765","match","whistle","whistle","label","test","true"
"null","","audio-keyboard-response","568","3081629","0.0-15.0-3.28","l","COGS219_2020_15","Sounds/correct.wav","null","2","","","","","","",""
"null","","audio-keyboard-response","569","3082757","0.0-15.0-0.29","l","COGS219_2020_15","Sounds/motorcycle_label.wav","null","2","","","","","","",""
"null","","html-keyboard-response","570","3083755","0.0-15.0-1.29","l","COGS219_2020_15","<p style=""font-size: 48px;"">+</p>","null","2","","","","","","",""
"661.5699999965727","","image-keyboard-response","571","3084417","0.0-15.0-2.29","l","COGS219_2020_15","Images/motorcycle_3.png","76","2","1581875964365","match","motorcycle","motorcycle","label","test","true"
"null","","audio-keyboard-response","572","3086427","0.0-15.0-3.29","l","COGS219_2020_15","Sounds/correct.wav","null","2","","","","","","",""
"null","","audio-keyboard-response","573","3087137","0.0-15.0-0.30","l","COGS219_2020_15","Sounds/rooster_sound.wav","null","2","","","","","","",""
"null","","html-keyboard-response","574","3088155","0.0-15.0-1.30","l","COGS219_2020_15","<p style=""font-size: 48px;"">+</p>","null","2","","","","","","",""
"485.2899999972433","","image-keyboard-response","575","3088641","0.0-15.0-2.30","l","COGS219_2020_15","Images/dog_2.png","65","2","1581875968765","non-match","dog","rooster","sound","test","true"
"null","","audio-keyboard-response","576","3090643","0.0-15.0-3.30","l","COGS219_2020_15","Sounds/correct.wav","null","2","","","","","","",""
"null","","audio-keyboard-response","577","3091217","0.0-15.0-0.31","l","COGS219_2020_15","Sounds/gun_sound.wav","null","2","","","","","","",""
"null","","html-keyboard-response","578","3092221","0.0-15.0-1.31","l","COGS219_2020_15","<p style=""font-size: 48px;"">+</p>","null","2","","","","","","",""
"466.3200000068173","","image-keyboard-response","579","3092689","0.0-15.0-2.31","l","COGS219_2020_15","Images/frog_cartoon.png","65","2","1581875972831","non-match","frog","gun","sound","test","true"
"null","","audio-keyboard-response","580","3094695","0.0-15.0-3.31","l","COGS219_2020_15","Sounds/correct.wav","null","2","","","","","","",""
"null","","audio-keyboard-response","581","3095817","0.0-15.0-0.32","l","COGS219_2020_15","Sounds/motorcycle_sound.wav","null","2","","","","","","",""
"null","","html-keyboard-response","582","3096821","0.0-15.0-1.32","l","COGS219_2020_15","<p style=""font-size: 48px;"">+</p>","null","2","","","","","","",""
"345.52499999664724","","image-keyboard-response","583","3097169","0.0-15.0-2.32","l","COGS219_2020_15","Images/motorcycle_2.png","76","2","1581875977431","match","motorcycle","motorcycle","sound","test","true"
"null","","audio-keyboard-response","584","3099178","0.0-15.0-3.32","l","COGS219_2020_15","Sounds/correct.wav","null","2","","","","","","",""
"null","","audio-keyboard-response","585","3100297","0.0-15.0-0.33","l","COGS219_2020_15","Sounds/motorcycle_label.wav","null","2","","","","","","",""
"null","","html-keyboard-response","586","3101288","0.0-15.0-1.33","l","COGS219_2020_15","<p style=""font-size: 48px;"">+</p>","null","2","","","","","","",""
"391.88500000489876","","image-keyboard-response","587","3101681","0.0-15.0-2.33","l","COGS219_2020_15","Images/motorcycle_orig.png","76","2","1581875981898","match","motorcycle","motorcycle","label","test","true"
"null","","audio-keyboard-response","588","3103692","0.0-15.0-3.33","l","COGS219_2020_15","Sounds/correct.wav","null","2","","","","","","",""
"null","","audio-keyboard-response","589","3104357","0.0-15.0-0.34","l","COGS219_2020_15","Sounds/rooster_sound.wav","null","2","","","","","","",""
"null","","html-keyboard-response","590","3105355","0.0-15.0-1.34","l","COGS219_2020_15","<p style=""font-size: 48px;"">+</p>","null","2","","","","","","",""
"453.16499999910593","","image-keyboard-response","591","3105809","0.0-15.0-2.34","l","COGS219_2020_15","Images/frog_orig.png","65","2","1581875985965","non-match","frog","rooster","sound","test","true"
"null","","audio-keyboard-response","592","3107826","0.0-15.0-3.34","l","COGS219_2020_15","Sounds/correct.wav","null","2","","","","","","",""
"null","","audio-keyboard-response","593","3108897","0.0-15.0-0.35","l","COGS219_2020_15","Sounds/car_label.wav","null","2","","","","","","",""
"null","","html-keyboard-response","594","3109889","0.0-15.0-1.35","l","COGS219_2020_15","<p style=""font-size: 48px;"">+</p>","null","2","","","","","","",""
"576.0049999952316","","image-keyboard-response","595","3110466","0.0-15.0-2.35","l","COGS219_2020_15","Images/car_3.png","76","2","1581875990499","match","car","car","label","test","true"
"null","","audio-keyboard-response","596","3112475","0.0-15.0-3.35","l","COGS219_2020_15","Sounds/correct.wav","null","2","","","","","","",""
"null","","audio-keyboard-response","597","3113378","0.0-15.0-0.36","l","COGS219_2020_15","Sounds/frog_sound.wav","null","2","","","","","","",""
"null","","html-keyboard-response","598","3114372","0.0-15.0-1.36","l","COGS219_2020_15","<p style=""font-size: 48px;"">+</p>","null","2","","","","","","",""
"508.304999995511","","image-keyboard-response","599","3114882","0.0-15.0-2.36","l","COGS219_2020_15","Images/gun_orig.png","65","2","1581875994982","non-match","gun","frog","sound","test","true"
"null","","audio-keyboard-response","600","3116892","0.0-15.0-3.36","l","COGS219_2020_15","Sounds/correct.wav","null","2","","","","","","",""
"null","","audio-keyboard-response","601","3117778","0.0-15.0-0.37","l","COGS219_2020_15","Sounds/frog_sound.wav","null","2","","","","","","",""
"null","","html-keyboard-response","602","3118772","0.0-15.0-1.37","l","COGS219_2020_15","<p style=""font-size: 48px;"">+</p>","null","2","","","","","","",""
"364.3100000047125","","image-keyboard-response","603","3119138","0.0-15.0-2.37","l","COGS219_2020_15","Images/frog_2.png","76","2","1581875999383","match","frog","frog","sound","test","true"
