[{"rt":2751.959999994142,"responses":"{\"Q0\":\"21\"}","trial_type":"survey-text","trial_index":0,"time_elapsed":2787,"internal_node_id":"0.0-0.0","match_key":"l","participant_id":"21"},{"rt":168735.1450000133,"stimulus":"<p>Use KEYBOARD 1 (match RIGHT)</p><p>Press MATCH to continue.</p>","key_press":76,"trial_type":"html-keyboard-response","trial_index":1,"time_elapsed":171540,"internal_node_id":"0.0-1.0","match_key":"l","participant_id":"21"},{"rt":3019965.1749999905,"stimulus":"<p>Welcome to the experiment.</p>","key_press":32,"trial_type":"html-keyboard-response","trial_index":2,"time_elapsed":3191936,"internal_node_id":"0.0-2.0","match_key":"l","participant_id":"21"},{"rt":12409.920000005513,"stimulus":"<p>Thank you for agreeing to participate in this study.</p><p>If during any part of the procedure you must stop for any reason, please inform the researcher that you do not wish to continue.</p>","key_press":32,"trial_type":"html-keyboard-response","trial_index":3,"time_elapsed":3204351,"internal_node_id":"0.0-3.0","match_key":"l","participant_id":"21"},{"rt":34799.040000013076,"stimulus":"<p>In this experiment, you will hear various words or sounds and see pictures of various animals and objects.</p><p>Most of the images will be of common everyday objects, such as cars, cats, cows, firearms, frogs, chickens, whistles, trains, motorcycles, and dogs.</p><p>Some of the images will be real-life stills, while others will be cartoons.</p>","key_press":32,"trial_type":"html-keyboard-response","trial_index":4,"time_elapsed":3239150,"internal_node_id":"0.0-4.0","match_key":"l","participant_id":"21"},{"rt":15534.76499998942,"stimulus":"<p>Sometimes, the word/sound will match the picture, for example you'll hear a meowing sound and see a cat.</p><p>Other times, the picture will not match the sound or word.</p><p>Your task is to decide as quickly as possible if the word/sound matches the picture or not. </p>","key_press":32,"trial_type":"html-keyboard-response","trial_index":5,"time_elapsed":3254686,"internal_node_id":"0.0-5.0","match_key":"l","participant_id":"21"},{"rt":16223.399999988265,"stimulus":"<p>For example, if you hear the word \"cat\" or hear a meowing sound, and then see a picture of a cat, you should press the MATCH key.</p><p> If the sound and image do not match, press the NOT-MATCH key to indicate that there is not a match.</p>","key_press":32,"trial_type":"html-keyboard-response","trial_index":6,"time_elapsed":3270911,"internal_node_id":"0.0-6.0","match_key":"l","participant_id":"21"},{"rt":12158.134999976028,"stimulus":"<p>If you make a mistake, you will hear a buzzing sound instead of a more pleasant sound.</p><p> Try to respond as quickly as possible, while making as few errors as possible. If you are making mistakes, you are probably rushing.</p>","key_press":32,"trial_type":"html-keyboard-response","trial_index":7,"time_elapsed":3283070,"internal_node_id":"0.0-7.0","match_key":"l","participant_id":"21"},{"rt":12671.219999989495,"stimulus":"<p>Please try to not move or blink your eyes during the presentation of the images. You can move and blink between images.</p><p>During the experiment there will be some breaks during which you can rest your eyes.</p>","key_press":32,"trial_type":"html-keyboard-response","trial_index":8,"time_elapsed":3295743,"internal_node_id":"0.0-8.0","match_key":"l","participant_id":"21"},{"rt":10174.484999996144,"stimulus":"<p>We will begin with 10 practice trials. Please let the experimenter know if you have any questions.</p>","key_press":32,"trial_type":"html-keyboard-response","trial_index":9,"time_elapsed":3305919,"internal_node_id":"0.0-9.0","match_key":"l","participant_id":"21"},{"rt":null,"stimulus":"Sounds/rooster_label.wav","key_press":null,"block":0,"trial_type":"audio-keyboard-response","trial_index":10,"time_elapsed":3306701,"internal_node_id":"0.0-10.0-0.0","match_key":"l","participant_id":"21"},{"rt":null,"stimulus":"<p style=\"font-size: 48px;\">+</p>","key_press":null,"block":0,"trial_type":"html-keyboard-response","trial_index":11,"time_elapsed":3307699,"internal_node_id":"0.0-10.0-1.0","match_key":"l","participant_id":"21"},{"rt":1465.6900000115857,"stimulus":"Images/rooster_3.png","key_press":76,"stim_onset":1582160726781,"block":0,"match_type":"match","image_category":"rooster","sound_category":"rooster","audio_type":"label","phase":"practice","trial_type":"image-keyboard-response","trial_index":12,"time_elapsed":3309166,"internal_node_id":"0.0-10.0-2.0","match_key":"l","participant_id":"21","correct":true},{"rt":null,"stimulus":"Sounds/correct.wav","key_press":null,"block":0,"trial_type":"audio-keyboard-response","trial_index":13,"time_elapsed":3311171,"internal_node_id":"0.0-10.0-3.0","match_key":"l","participant_id":"21"},{"rt":null,"stimulus":"Sounds/gun_sound.wav","key_press":null,"block":0,"trial_type":"audio-keyboard-response","trial_index":14,"time_elapsed":3311760,"internal_node_id":"0.0-10.0-0.1","match_key":"l","participant_id":"21"},{"rt":null,"stimulus":"<p style=\"font-size: 48px;\">+</p>","key_press":null,"block":0,"trial_type":"html-keyboard-response","trial_index":15,"time_elapsed":3312749,"internal_node_id":"0.0-10.0-1.1","match_key":"l","participant_id":"21"},{"rt":17393.08999999799,"stimulus":"Images/gun_cartoon.png","key_press":76,"stim_onset":1582160731831,"block":0,"match_type":"match","image_category":"gun","sound_category":"gun","audio_type":"sound","phase":"practice","trial_type":"image-keyboard-response","trial_index":16,"time_elapsed":3330143,"internal_node_id":"0.0-10.0-2.1","match_key":"l","participant_id":"21","correct":true},{"rt":null,"stimulus":"Sounds/correct.wav","key_press":null,"block":0,"trial_type":"audio-keyboard-response","trial_index":17,"time_elapsed":3332145,"internal_node_id":"0.0-10.0-3.1","match_key":"l","participant_id":"21"},{"rt":null,"stimulus":"Sounds/cat_sound.wav","key_press":null,"block":0,"trial_type":"audio-keyboard-response","trial_index":18,"time_elapsed":3332994,"internal_node_id":"0.0-10.0-0.2","match_key":"l","participant_id":"21"},{"rt":null,"stimulus":"<p style=\"font-size: 48px;\">+</p>","key_press":null,"block":0,"trial_type":"html-keyboard-response","trial_index":19,"time_elapsed":3333982,"internal_node_id":"0.0-10.0-1.2","match_key":"l","participant_id":"21"},{"rt":815.2300000069663,"stimulus":"Images/cat_3.png","key_press":76,"stim_onset":1582160753064,"block":0,"match_type":"match","image_category":"cat","sound_category":"cat","audio_type":"sound","phase":"practice","trial_type":"image-keyboard-response","trial_index":20,"time_elapsed":3334799,"internal_node_id":"0.0-10.0-2.2","match_key":"l","participant_id":"21","correct":true},{"rt":null,"stimulus":"Sounds/correct.wav","key_press":null,"block":0,"trial_type":"audio-keyboard-response","trial_index":21,"time_elapsed":3336804,"internal_node_id":"0.0-10.0-3.2","match_key":"l","participant_id":"21"},{"rt":null,"stimulus":"Sounds/train_sound.wav","key_press":null,"block":0,"trial_type":"audio-keyboard-response","trial_index":22,"time_elapsed":3338114,"internal_node_id":"0.0-10.0-0.3","match_key":"l","participant_id":"21"},{"rt":null,"stimulus":"<p style=\"font-size: 48px;\">+</p>","key_press":null,"block":0,"trial_type":"html-keyboard-response","trial_index":23,"time_elapsed":3339116,"internal_node_id":"0.0-10.0-1.3","match_key":"l","participant_id":"21"},{"rt":1490.1650000242516,"stimulus":"Images/dog_3.png","key_press":65,"stim_onset":1582160758198,"block":0,"match_type":"non-match","image_category":"dog","sound_category":"train","audio_type":"sound","phase":"practice","trial_type":"image-keyboard-response","trial_index":24,"time_elapsed":3340607,"internal_node_id":"0.0-10.0-2.3","match_key":"l","participant_id":"21","correct":true},{"rt":null,"stimulus":"Sounds/correct.wav","key_press":null,"block":0,"trial_type":"audio-keyboard-response","trial_index":25,"time_elapsed":3342624,"internal_node_id":"0.0-10.0-3.3","match_key":"l","participant_id":"21"},{"rt":null,"stimulus":"Sounds/motorcycle_label.wav","key_press":null,"block":0,"trial_type":"audio-keyboard-response","trial_index":26,"time_elapsed":3343774,"internal_node_id":"0.0-10.0-0.4","match_key":"l","participant_id":"21"},{"rt":null,"stimulus":"<p style=\"font-size: 48px;\">+</p>","key_press":null,"block":0,"trial_type":"html-keyboard-response","trial_index":27,"time_elapsed":3344766,"internal_node_id":"0.0-10.0-1.4","match_key":"l","participant_id":"21"},{"rt":1407.7050000196323,"stimulus":"Images/whistle_cartoon.png","key_press":65,"stim_onset":1582160763848,"block":0,"match_type":"non-match","image_category":"whistle","sound_category":"motorcycle","audio_type":"label","phase":"practice","trial_type":"image-keyboard-response","trial_index":28,"time_elapsed":3346174,"internal_node_id":"0.0-10.0-2.4","match_key":"l","participant_id":"21","correct":true},{"rt":null,"stimulus":"Sounds/correct.wav","key_press":null,"block":0,"trial_type":"audio-keyboard-response","trial_index":29,"time_elapsed":3348189,"internal_node_id":"0.0-10.0-3.4","match_key":"l","participant_id":"21"},{"rt":null,"stimulus":"Sounds/whistle_label.wav","key_press":null,"block":0,"trial_type":"audio-keyboard-response","trial_index":30,"time_elapsed":3348894,"internal_node_id":"0.0-10.0-0.5","match_key":"l","participant_id":"21"},{"rt":null,"stimulus":"<p style=\"font-size: 48px;\">+</p>","key_press":null,"block":0,"trial_type":"html-keyboard-response","trial_index":31,"time_elapsed":3349882,"internal_node_id":"0.0-10.0-1.5","match_key":"l","participant_id":"21"},{"rt":1219.3649999974295,"stimulus":"Images/whistle_1.png","key_press":76,"stim_onset":1582160768964,"block":0,"match_type":"match","image_category":"whistle","sound_category":"whistle","audio_type":"label","phase":"practice","trial_type":"image-keyboard-response","trial_index":32,"time_elapsed":3351103,"internal_node_id":"0.0-10.0-2.5","match_key":"l","participant_id":"21","correct":true},{"rt":null,"stimulus":"Sounds/correct.wav","key_press":null,"block":0,"trial_type":"audio-keyboard-response","trial_index":33,"time_elapsed":3353107,"internal_node_id":"0.0-10.0-3.5","match_key":"l","participant_id":"21"},{"rt":null,"stimulus":"Sounds/cow_sound.wav","key_press":null,"block":0,"trial_type":"audio-keyboard-response","trial_index":34,"time_elapsed":3354114,"internal_node_id":"0.0-10.0-0.6","match_key":"l","participant_id":"21"},{"rt":null,"stimulus":"<p style=\"font-size: 48px;\">+</p>","key_press":null,"block":0,"trial_type":"html-keyboard-response","trial_index":35,"time_elapsed":3355116,"internal_node_id":"0.0-10.0-1.6","match_key":"l","participant_id":"21"},{"rt":977.9250000137836,"stimulus":"Images/cow_1.png","key_press":76,"stim_onset":1582160774198,"block":0,"match_type":"match","image_category":"cow","sound_category":"cow","audio_type":"sound","phase":"practice","trial_type":"image-keyboard-response","trial_index":36,"time_elapsed":3356095,"internal_node_id":"0.0-10.0-2.6","match_key":"l","participant_id":"21","correct":true},{"rt":null,"stimulus":"Sounds/correct.wav","key_press":null,"block":0,"trial_type":"audio-keyboard-response","trial_index":37,"time_elapsed":3358107,"internal_node_id":"0.0-10.0-3.6","match_key":"l","participant_id":"21"},{"rt":null,"stimulus":"Sounds/motorcycle_sound.wav","key_press":null,"block":0,"trial_type":"audio-keyboard-response","trial_index":38,"time_elapsed":3359234,"internal_node_id":"0.0-10.0-0.7","match_key":"l","participant_id":"21"},{"rt":null,"stimulus":"<p style=\"font-size: 48px;\">+</p>","key_press":null,"block":0,"trial_type":"html-keyboard-response","trial_index":39,"time_elapsed":3360233,"internal_node_id":"0.0-10.0-1.7","match_key":"l","participant_id":"21"},{"rt":1828.2400000020862,"stimulus":"Images/motorcycle_2.png","key_press":76,"stim_onset":1582160779315,"block":0,"match_type":"match","image_category":"motorcycle","sound_category":"motorcycle","audio_type":"sound","phase":"practice","trial_type":"image-keyboard-response","trial_index":40,"time_elapsed":3362063,"internal_node_id":"0.0-10.0-2.7","match_key":"l","participant_id":"21","correct":true},{"rt":null,"stimulus":"Sounds/correct.wav","key_press":null,"block":0,"trial_type":"audio-keyboard-response","trial_index":41,"time_elapsed":3364072,"internal_node_id":"0.0-10.0-3.7","match_key":"l","participant_id":"21"},{"rt":null,"stimulus":"Sounds/gun_label.wav","key_press":null,"block":0,"trial_type":"audio-keyboard-response","trial_index":42,"time_elapsed":3364654,"internal_node_id":"0.0-10.0-0.8","match_key":"l","participant_id":"21"},{"rt":null,"stimulus":"<p style=\"font-size: 48px;\">+</p>","key_press":null,"block":0,"trial_type":"html-keyboard-response","trial_index":43,"time_elapsed":3365650,"internal_node_id":"0.0-10.0-1.8","match_key":"l","participant_id":"21"},{"rt":1020.2749999882653,"stimulus":"Images/whistle_orig.png","key_press":65,"stim_onset":1582160784732,"block":0,"match_type":"non-match","image_category":"whistle","sound_category":"gun","audio_type":"label","phase":"practice","trial_type":"image-keyboard-response","trial_index":44,"time_elapsed":3366671,"internal_node_id":"0.0-10.0-2.8","match_key":"l","participant_id":"21","correct":true},{"rt":null,"stimulus":"Sounds/correct.wav","key_press":null,"block":0,"trial_type":"audio-keyboard-response","trial_index":45,"time_elapsed":3368687,"internal_node_id":"0.0-10.0-3.8","match_key":"l","participant_id":"21"},{"rt":null,"stimulus":"Sounds/frog_sound.wav","key_press":null,"block":0,"trial_type":"audio-keyboard-response","trial_index":46,"time_elapsed":3369594,"internal_node_id":"0.0-10.0-0.9","match_key":"l","participant_id":"21"},{"rt":null,"stimulus":"<p style=\"font-size: 48px;\">+</p>","key_press":null,"block":0,"trial_type":"html-keyboard-response","trial_index":47,"time_elapsed":3370583,"internal_node_id":"0.0-10.0-1.9","match_key":"l","participant_id":"21"},{"rt":1206.7349999854341,"stimulus":"Images/cow_1.png","key_press":65,"stim_onset":1582160789665,"block":0,"match_type":"non-match","image_category":"cow","sound_category":"frog","audio_type":"sound","phase":"practice","trial_type":"image-keyboard-response","trial_index":48,"time_elapsed":3371791,"internal_node_id":"0.0-10.0-2.9","match_key":"l","participant_id":"21","correct":true},{"rt":null,"stimulus":"Sounds/correct.wav","key_press":null,"block":0,"trial_type":"audio-keyboard-response","trial_index":49,"time_elapsed":3373804,"internal_node_id":"0.0-10.0-3.9","match_key":"l","participant_id":"21"},{"rt":20387.025000003632,"stimulus":"<p>The rest of the experiment is divided into five blocks with 100 trials in each block. It will take about 45 minutes to complete.</p><p>The experimenter will be in the outer room and you can communicate with them through the monitor if you have any questions or wish to stop the experiment.</p>","key_press":32,"trial_type":"html-keyboard-response","trial_index":50,"time_elapsed":3394192,"internal_node_id":"0.0-11.0","match_key":"l","participant_id":"21"},{"rt":45566.98000000324,"stimulus":"<p>Remember, please try not to move or blink your eyes during the presentation of the images. </p><p>At the end of the experiment, we will show you your scores on the task so you can see how you did.</p><p>The experiment will start on the next screen.</p>","key_press":32,"trial_type":"html-keyboard-response","trial_index":51,"time_elapsed":3439760,"internal_node_id":"0.0-12.0","match_key":"l","participant_id":"21"},{"rt":null,"stimulus":"Sounds/motorcycle_label.wav","key_press":null,"block":1,"trial_type":"audio-keyboard-response","trial_index":52,"time_elapsed":3442914,"internal_node_id":"0.0-13.0-0.0","match_key":"l","participant_id":"21"},{"rt":null,"stimulus":"<p style=\"font-size: 48px;\">+</p>","key_press":null,"block":1,"trial_type":"html-keyboard-response","trial_index":53,"time_elapsed":3443917,"internal_node_id":"0.0-13.0-1.0","match_key":"l","participant_id":"21"},{"rt":896.5949999978766,"stimulus":"Images/whistle_3.png","key_press":65,"stim_onset":1582160862999,"block":1,"match_type":"non-match","image_category":"whistle","sound_category":"motorcycle","audio_type":"label","phase":"test","trial_type":"image-keyboard-response","trial_index":54,"time_elapsed":3444815,"internal_node_id":"0.0-13.0-2.0","match_key":"l","participant_id":"21","correct":true},{"rt":null,"stimulus":"Sounds/correct.wav","key_press":null,"block":1,"trial_type":"audio-keyboard-response","trial_index":55,"time_elapsed":3446822,"internal_node_id":"0.0-13.0-3.0","match_key":"l","participant_id":"21"},{"rt":null,"stimulus":"Sounds/frog_sound.wav","key_press":null,"block":1,"trial_type":"audio-keyboard-response","trial_index":56,"time_elapsed":3447735,"internal_node_id":"0.0-13.0-0.1","match_key":"l","participant_id":"21"},{"rt":null,"stimulus":"<p style=\"font-size: 48px;\">+</p>","key_press":null,"block":1,"trial_type":"html-keyboard-response","trial_index":57,"time_elapsed":3448734,"internal_node_id":"0.0-13.0-1.1","match_key":"l","participant_id":"21"},{"rt":656.2050000065938,"stimulus":"Images/frog_cartoon.png","key_press":76,"stim_onset":1582160867816,"block":1,"match_type":"match","image_category":"frog","sound_category":"frog","audio_type":"sound","phase":"test","trial_type":"image-keyboard-response","trial_index":58,"time_elapsed":3449391,"internal_node_id":"0.0-13.0-2.1","match_key":"l","participant_id":"21","correct":true},{"rt":null,"stimulus":"Sounds/correct.wav","key_press":null,"block":1,"trial_type":"audio-keyboard-response","trial_index":59,"time_elapsed":3451404,"internal_node_id":"0.0-13.0-3.1","match_key":"l","participant_id":"21"},{"rt":null,"stimulus":"Sounds/motorcycle_label.wav","key_press":null,"block":1,"trial_type":"audio-keyboard-response","trial_index":60,"time_elapsed":3452514,"internal_node_id":"0.0-13.0-0.2","match_key":"l","participant_id":"21"},{"rt":null,"stimulus":"<p style=\"font-size: 48px;\">+</p>","key_press":null,"block":1,"trial_type":"html-keyboard-response","trial_index":61,"time_elapsed":3453517,"internal_node_id":"0.0-13.0-1.2","match_key":"l","participant_id":"21"},{"rt":1072.8649999946356,"stimulus":"Images/frog_2.png","key_press":65,"stim_onset":1582160872599,"block":1,"match_type":"non-match","image_category":"frog","sound_category":"motorcycle","audio_type":"label","phase":"test","trial_type":"image-keyboard-response","trial_index":62,"time_elapsed":3454591,"internal_node_id":"0.0-13.0-2.2","match_key":"l","participant_id":"21","correct":true},{"rt":null,"stimulus":"Sounds/correct.wav","key_press":null,"block":1,"trial_type":"audio-keyboard-response","trial_index":63,"time_elapsed":3456605,"internal_node_id":"0.0-13.0-3.2","match_key":"l","participant_id":"21"},{"rt":null,"stimulus":"Sounds/motorcycle_label.wav","key_press":null,"block":1,"trial_type":"audio-keyboard-response","trial_index":64,"time_elapsed":3457714,"internal_node_id":"0.0-13.0-0.3","match_key":"l","participant_id":"21"},{"rt":null,"stimulus":"<p style=\"font-size: 48px;\">+</p>","key_press":null,"block":1,"trial_type":"html-keyboard-response","trial_index":65,"time_elapsed":3458717,"internal_node_id":"0.0-13.0-1.3","match_key":"l","participant_id":"21"},{"rt":656.6750000054017,"stimulus":"Images/motorcycle_cartoon.png","key_press":76,"stim_onset":1582160877799,"block":1,"match_type":"match","image_category":"motorcycle","sound_category":"motorcycle","audio_type":"label","phase":"test","trial_type":"image-keyboard-response","trial_index":66,"time_elapsed":3459375,"internal_node_id":"0.0-13.0-2.3","match_key":"l","participant_id":"21","correct":true},{"rt":null,"stimulus":"Sounds/correct.wav","key_press":null,"block":1,"trial_type":"audio-keyboard-response","trial_index":67,"time_elapsed":3461388,"internal_node_id":"0.0-13.0-3.3","match_key":"l","participant_id":"21"},{"rt":null,"stimulus":"Sounds/dog_sound.wav","key_press":null,"block":1,"trial_type":"audio-keyboard-response","trial_index":68,"time_elapsed":3462094,"internal_node_id":"0.0-13.0-0.4","match_key":"l","participant_id":"21"},{"rt":null,"stimulus":"<p style=\"font-size: 48px;\">+</p>","key_press":null,"block":1,"trial_type":"html-keyboard-response","trial_index":69,"time_elapsed":3463101,"internal_node_id":"0.0-13.0-1.4","match_key":"l","participant_id":"21"},{"rt":769.4950000150129,"stimulus":"Images/rooster_orig.png","key_press":65,"stim_onset":1582160882183,"block":1,"match_type":"non-match","image_category":"rooster","sound_category":"dog","audio_type":"sound","phase":"test","trial_type":"image-keyboard-response","trial_index":70,"time_elapsed":3463871,"internal_node_id":"0.0-13.0-2.4","match_key":"l","participant_id":"21","correct":true},{"rt":null,"stimulus":"Sounds/correct.wav","key_press":null,"block":1,"trial_type":"audio-keyboard-response","trial_index":71,"time_elapsed":3465889,"internal_node_id":"0.0-13.0-3.4","match_key":"l","participant_id":"21"},{"rt":null,"stimulus":"Sounds/cow_label.wav","key_press":null,"block":1,"trial_type":"audio-keyboard-response","trial_index":72,"time_elapsed":3466914,"internal_node_id":"0.0-13.0-0.5","match_key":"l","participant_id":"21"},{"rt":null,"stimulus":"<p style=\"font-size: 48px;\">+</p>","key_press":null,"block":1,"trial_type":"html-keyboard-response","trial_index":73,"time_elapsed":3467917,"internal_node_id":"0.0-13.0-1.5","match_key":"l","participant_id":"21"},{"rt":1296.6000000014901,"stimulus":"Images/cow_3.png","key_press":76,"stim_onset":1582160887000,"block":1,"match_type":"match","image_category":"cow","sound_category":"cow","audio_type":"label","phase":"test","trial_type":"image-keyboard-response","trial_index":74,"time_elapsed":3469215,"internal_node_id":"0.0-13.0-2.5","match_key":"l","participant_id":"21","correct":true},{"rt":null,"stimulus":"Sounds/correct.wav","key_press":null,"block":1,"trial_type":"audio-keyboard-response","trial_index":75,"time_elapsed":3471226,"internal_node_id":"0.0-13.0-3.5","match_key":"l","participant_id":"21"},{"rt":null,"stimulus":"Sounds/whistle_sound.wav","key_press":null,"block":1,"trial_type":"audio-keyboard-response","trial_index":76,"time_elapsed":3471934,"internal_node_id":"0.0-13.0-0.6","match_key":"l","participant_id":"21"},{"rt":null,"stimulus":"<p style=\"font-size: 48px;\">+</p>","key_press":null,"block":1,"trial_type":"html-keyboard-response","trial_index":77,"time_elapsed":3472934,"internal_node_id":"0.0-13.0-1.6","match_key":"l","participant_id":"21"},{"rt":744.2250000024214,"stimulus":"Images/whistle_1.png","key_press":76,"stim_onset":1582160892016,"block":1,"match_type":"match","image_category":"whistle","sound_category":"whistle","audio_type":"sound","phase":"test","trial_type":"image-keyboard-response","trial_index":78,"time_elapsed":3473679,"internal_node_id":"0.0-13.0-2.6","match_key":"l","participant_id":"21","correct":true},{"rt":null,"stimulus":"Sounds/correct.wav","key_press":null,"block":1,"trial_type":"audio-keyboard-response","trial_index":79,"time_elapsed":3475688,"internal_node_id":"0.0-13.0-3.6","match_key":"l","participant_id":"21"},{"rt":null,"stimulus":"Sounds/whistle_sound.wav","key_press":null,"block":1,"trial_type":"audio-keyboard-response","trial_index":80,"time_elapsed":3476354,"internal_node_id":"0.0-13.0-0.7","match_key":"l","participant_id":"21"},{"rt":null,"stimulus":"<p style=\"font-size: 48px;\">+</p>","key_press":null,"block":1,"trial_type":"html-keyboard-response","trial_index":81,"time_elapsed":3477351,"internal_node_id":"0.0-13.0-1.7","match_key":"l","participant_id":"21"},{"rt":389.67499998398125,"stimulus":"Images/motorcycle_orig.png","key_press":65,"stim_onset":1582160896433,"block":1,"match_type":"non-match","image_category":"motorcycle","sound_category":"whistle","audio_type":"sound","phase":"test","trial_type":"image-keyboard-response","trial_index":82,"time_elapsed":3477743,"internal_node_id":"0.0-13.0-2.7","match_key":"l","participant_id":"21","correct":true},{"rt":null,"stimulus":"Sounds/correct.wav","key_press":null,"block":1,"trial_type":"audio-keyboard-response","trial_index":83,"time_elapsed":3479757,"internal_node_id":"0.0-13.0-3.7","match_key":"l","participant_id":"21"},{"rt":null,"stimulus":"Sounds/cow_sound.wav","key_press":null,"block":1,"trial_type":"audio-keyboard-response","trial_index":84,"time_elapsed":3480774,"internal_node_id":"0.0-13.0-0.8","match_key":"l","participant_id":"21"},{"rt":null,"stimulus":"<p style=\"font-size: 48px;\">+</p>","key_press":null,"block":1,"trial_type":"html-keyboard-response","trial_index":85,"time_elapsed":3481768,"internal_node_id":"0.0-13.0-1.8","match_key":"l","participant_id":"21"},{"rt":550.8149999952875,"stimulus":"Images/cow_1.png","key_press":76,"stim_onset":1582160900850,"block":1,"match_type":"match","image_category":"cow","sound_category":"cow","audio_type":"sound","phase":"test","trial_type":"image-keyboard-response","trial_index":86,"time_elapsed":3482319,"internal_node_id":"0.0-13.0-2.8","match_key":"l","participant_id":"21","correct":true},{"rt":null,"stimulus":"Sounds/correct.wav","key_press":null,"block":1,"trial_type":"audio-keyboard-response","trial_index":87,"time_elapsed":3484325,"internal_node_id":"0.0-13.0-3.8","match_key":"l","participant_id":"21"},{"rt":null,"stimulus":"Sounds/cat_sound.wav","key_press":null,"block":1,"trial_type":"audio-keyboard-response","trial_index":88,"time_elapsed":3485154,"internal_node_id":"0.0-13.0-0.9","match_key":"l","participant_id":"21"},{"rt":null,"stimulus":"<p style=\"font-size: 48px;\">+</p>","key_press":null,"block":1,"trial_type":"html-keyboard-response","trial_index":89,"time_elapsed":3486151,"internal_node_id":"0.0-13.0-1.9","match_key":"l","participant_id":"21"},{"rt":583.1349999937229,"stimulus":"Images/car_cartoon.png","key_press":65,"stim_onset":1582160905233,"block":1,"match_type":"non-match","image_category":"car","sound_category":"cat","audio_type":"sound","phase":"test","trial_type":"image-keyboard-response","trial_index":90,"time_elapsed":3486735,"internal_node_id":"0.0-13.0-2.9","match_key":"l","participant_id":"21","correct":true},{"rt":null,"stimulus":"Sounds/correct.wav","key_press":null,"block":1,"trial_type":"audio-keyboard-response","trial_index":91,"time_elapsed":3488740,"internal_node_id":"0.0-13.0-3.9","match_key":"l","participant_id":"21"},{"rt":null,"stimulus":"Sounds/train_sound.wav","key_press":null,"block":1,"trial_type":"audio-keyboard-response","trial_index":92,"time_elapsed":3490035,"internal_node_id":"0.0-13.0-0.10","match_key":"l","participant_id":"21"},{"rt":null,"stimulus":"<p style=\"font-size: 48px;\">+</p>","key_press":null,"block":1,"trial_type":"html-keyboard-response","trial_index":93,"time_elapsed":3491035,"internal_node_id":"0.0-13.0-1.10","match_key":"l","participant_id":"21"},{"rt":867.6849999753758,"stimulus":"Images/motorcycle_3.png","key_press":65,"stim_onset":1582160910118,"block":1,"match_type":"non-match","image_category":"motorcycle","sound_category":"train","audio_type":"sound","phase":"test","trial_type":"image-keyboard-response","trial_index":94,"time_elapsed":3491904,"internal_node_id":"0.0-13.0-2.10","match_key":"l","participant_id":"21","correct":true},{"rt":null,"stimulus":"Sounds/correct.wav","key_press":null,"block":1,"trial_type":"audio-keyboard-response","trial_index":95,"time_elapsed":3493910,"internal_node_id":"0.0-13.0-3.10","match_key":"l","participant_id":"21"},{"rt":null,"stimulus":"Sounds/car_sound.wav","key_press":null,"block":1,"trial_type":"audio-keyboard-response","trial_index":96,"time_elapsed":3494995,"internal_node_id":"0.0-13.0-0.11","match_key":"l","participant_id":"21"},{"rt":null,"stimulus":"<p style=\"font-size: 48px;\">+</p>","key_press":null,"block":1,"trial_type":"html-keyboard-response","trial_index":97,"time_elapsed":3495986,"internal_node_id":"0.0-13.0-1.11","match_key":"l","participant_id":"21"},{"rt":957.529999984894,"stimulus":"Images/rooster_2.png","key_press":65,"stim_onset":1582160915068,"block":1,"match_type":"non-match","image_category":"rooster","sound_category":"car","audio_type":"sound","phase":"test","trial_type":"image-keyboard-response","trial_index":98,"time_elapsed":3496944,"internal_node_id":"0.0-13.0-2.11","match_key":"l","participant_id":"21","correct":true},{"rt":null,"stimulus":"Sounds/correct.wav","key_press":null,"block":1,"trial_type":"audio-keyboard-response","trial_index":99,"time_elapsed":3498956,"internal_node_id":"0.0-13.0-3.11","match_key":"l","participant_id":"21"},{"rt":null,"stimulus":"Sounds/frog_label.wav","key_press":null,"block":1,"trial_type":"audio-keyboard-response","trial_index":100,"time_elapsed":3499855,"internal_node_id":"0.0-13.0-0.12","match_key":"l","participant_id":"21"},{"rt":null,"stimulus":"<p style=\"font-size: 48px;\">+</p>","key_press":null,"block":1,"trial_type":"html-keyboard-response","trial_index":101,"time_elapsed":3500852,"internal_node_id":"0.0-13.0-1.12","match_key":"l","participant_id":"21"},{"rt":586.9300000192598,"stimulus":"Images/frog_2.png","key_press":76,"stim_onset":1582160919934,"block":1,"match_type":"match","image_category":"frog","sound_category":"frog","audio_type":"label","phase":"test","trial_type":"image-keyboard-response","trial_index":102,"time_elapsed":3501440,"internal_node_id":"0.0-13.0-2.12","match_key":"l","participant_id":"21","correct":true},{"rt":null,"stimulus":"Sounds/correct.wav","key_press":null,"block":1,"trial_type":"audio-keyboard-response","trial_index":103,"time_elapsed":3503457,"internal_node_id":"0.0-13.0-3.12","match_key":"l","participant_id":"21"},{"rt":null,"stimulus":"Sounds/dog_label.wav","key_press":null,"block":1,"trial_type":"audio-keyboard-response","trial_index":104,"time_elapsed":3504115,"internal_node_id":"0.0-13.0-0.13","match_key":"l","participant_id":"21"},{"rt":null,"stimulus":"<p style=\"font-size: 48px;\">+</p>","key_press":null,"block":1,"trial_type":"html-keyboard-response","trial_index":105,"time_elapsed":3505119,"internal_node_id":"0.0-13.0-1.13","match_key":"l","participant_id":"21"},{"rt":880.1550000207499,"stimulus":"Images/dog_2.png","key_press":76,"stim_onset":1582160924201,"block":1,"match_type":"match","image_category":"dog","sound_category":"dog","audio_type":"label","phase":"test","trial_type":"image-keyboard-response","trial_index":106,"time_elapsed":3506000,"internal_node_id":"0.0-13.0-2.13","match_key":"l","participant_id":"21","correct":true},{"rt":null,"stimulus":"Sounds/correct.wav","key_press":null,"block":1,"trial_type":"audio-keyboard-response","trial_index":107,"time_elapsed":3508007,"internal_node_id":"0.0-13.0-3.13","match_key":"l","participant_id":"21"},{"rt":null,"stimulus":"Sounds/whistle_label.wav","key_press":null,"block":1,"trial_type":"audio-keyboard-response","trial_index":108,"time_elapsed":3508716,"internal_node_id":"0.0-13.0-0.14","match_key":"l","participant_id":"21"},{"rt":null,"stimulus":"<p style=\"font-size: 48px;\">+</p>","key_press":null,"block":1,"trial_type":"html-keyboard-response","trial_index":109,"time_elapsed":3509719,"internal_node_id":"0.0-13.0-1.14","match_key":"l","participant_id":"21"},{"rt":600.63499998115,"stimulus":"Images/whistle_2.png","key_press":76,"stim_onset":1582160928802,"block":1,"match_type":"match","image_category":"whistle","sound_category":"whistle","audio_type":"label","phase":"test","trial_type":"image-keyboard-response","trial_index":110,"time_elapsed":3510321,"internal_node_id":"0.0-13.0-2.14","match_key":"l","participant_id":"21","correct":true},{"rt":null,"stimulus":"Sounds/correct.wav","key_press":null,"block":1,"trial_type":"audio-keyboard-response","trial_index":111,"time_elapsed":3512324,"internal_node_id":"0.0-13.0-3.14","match_key":"l","participant_id":"21"},{"rt":null,"stimulus":"Sounds/cow_label.wav","key_press":null,"block":1,"trial_type":"audio-keyboard-response","trial_index":112,"time_elapsed":3513335,"internal_node_id":"0.0-13.0-0.15","match_key":"l","participant_id":"21"},{"rt":null,"stimulus":"<p style=\"font-size: 48px;\">+</p>","key_press":null,"block":1,"trial_type":"html-keyboard-response","trial_index":113,"time_elapsed":3514336,"internal_node_id":"0.0-13.0-1.15","match_key":"l","participant_id":"21"},{"rt":527.5799999944866,"stimulus":"Images/cow_orig.png","key_press":76,"stim_onset":1582160933418,"block":1,"match_type":"match","image_category":"cow","sound_category":"cow","audio_type":"label","phase":"test","trial_type":"image-keyboard-response","trial_index":114,"time_elapsed":3514864,"internal_node_id":"0.0-13.0-2.15","match_key":"l","participant_id":"21","correct":true},{"rt":null,"stimulus":"Sounds/correct.wav","key_press":null,"block":1,"trial_type":"audio-keyboard-response","trial_index":115,"time_elapsed":3516872,"internal_node_id":"0.0-13.0-3.15","match_key":"l","participant_id":"21"},{"rt":null,"stimulus":"Sounds/whistle_label.wav","key_press":null,"block":1,"trial_type":"audio-keyboard-response","trial_index":116,"time_elapsed":3517535,"internal_node_id":"0.0-13.0-0.16","match_key":"l","participant_id":"21"},{"rt":null,"stimulus":"<p style=\"font-size: 48px;\">+</p>","key_press":null,"block":1,"trial_type":"html-keyboard-response","trial_index":117,"time_elapsed":3518536,"internal_node_id":"0.0-13.0-1.16","match_key":"l","participant_id":"21"},{"rt":535.3100000065751,"stimulus":"Images/whistle_orig.png","key_press":76,"stim_onset":1582160937618,"block":1,"match_type":"match","image_category":"whistle","sound_category":"whistle","audio_type":"label","phase":"test","trial_type":"image-keyboard-response","trial_index":118,"time_elapsed":3519072,"internal_node_id":"0.0-13.0-2.16","match_key":"l","participant_id":"21","correct":true},{"rt":null,"stimulus":"Sounds/correct.wav","key_press":null,"block":1,"trial_type":"audio-keyboard-response","trial_index":119,"time_elapsed":3521076,"internal_node_id":"0.0-13.0-3.16","match_key":"l","participant_id":"21"},{"rt":null,"stimulus":"Sounds/frog_sound.wav","key_press":null,"block":1,"trial_type":"audio-keyboard-response","trial_index":120,"time_elapsed":3521975,"internal_node_id":"0.0-13.0-0.17","match_key":"l","participant_id":"21"},{"rt":null,"stimulus":"<p style=\"font-size: 48px;\">+</p>","key_press":null,"block":1,"trial_type":"html-keyboard-response","trial_index":121,"time_elapsed":3522969,"internal_node_id":"0.0-13.0-1.17","match_key":"l","participant_id":"21"},{"rt":502.15499999467283,"stimulus":"Images/frog_1.png","key_press":76,"stim_onset":1582160942051,"block":1,"match_type":"match","image_category":"frog","sound_category":"frog","audio_type":"sound","phase":"test","trial_type":"image-keyboard-response","trial_index":122,"time_elapsed":3523472,"internal_node_id":"0.0-13.0-2.17","match_key":"l","participant_id":"21","correct":true},{"rt":null,"stimulus":"Sounds/correct.wav","key_press":null,"block":1,"trial_type":"audio-keyboard-response","trial_index":123,"time_elapsed":3525490,"internal_node_id":"0.0-13.0-3.17","match_key":"l","participant_id":"21"},{"rt":null,"stimulus":"Sounds/car_label.wav","key_press":null,"block":1,"trial_type":"audio-keyboard-response","trial_index":124,"time_elapsed":3526575,"internal_node_id":"0.0-13.0-0.18","match_key":"l","participant_id":"21"},{"rt":null,"stimulus":"<p style=\"font-size: 48px;\">+</p>","key_press":null,"block":1,"trial_type":"html-keyboard-response","trial_index":125,"time_elapsed":3527569,"internal_node_id":"0.0-13.0-1.18","match_key":"l","participant_id":"21"},{"rt":654.0149999782443,"stimulus":"Images/car_orig.png","key_press":76,"stim_onset":1582160946651,"block":1,"match_type":"match","image_category":"car","sound_category":"car","audio_type":"label","phase":"test","trial_type":"image-keyboard-response","trial_index":126,"time_elapsed":3528224,"internal_node_id":"0.0-13.0-2.18","match_key":"l","participant_id":"21","correct":true},{"rt":null,"stimulus":"Sounds/correct.wav","key_press":null,"block":1,"trial_type":"audio-keyboard-response","trial_index":127,"time_elapsed":3530228,"internal_node_id":"0.0-13.0-3.18","match_key":"l","participant_id":"21"},{"rt":null,"stimulus":"Sounds/gun_sound.wav","key_press":null,"block":1,"trial_type":"audio-keyboard-response","trial_index":128,"time_elapsed":3530816,"internal_node_id":"0.0-13.0-0.19","match_key":"l","participant_id":"21"},{"rt":null,"stimulus":"<p style=\"font-size: 48px;\">+</p>","key_press":null,"block":1,"trial_type":"html-keyboard-response","trial_index":129,"time_elapsed":3531819,"internal_node_id":"0.0-13.0-1.19","match_key":"l","participant_id":"21"},{"rt":659.734999993816,"stimulus":"Images/gun_1.png","key_press":76,"stim_onset":1582160950901,"block":1,"match_type":"match","image_category":"gun","sound_category":"gun","audio_type":"sound","phase":"test","trial_type":"image-keyboard-response","trial_index":130,"time_elapsed":3532480,"internal_node_id":"0.0-13.0-2.19","match_key":"l","participant_id":"21","correct":true},{"rt":null,"stimulus":"Sounds/correct.wav","key_press":null,"block":1,"trial_type":"audio-keyboard-response","trial_index":131,"time_elapsed":3534490,"internal_node_id":"0.0-13.0-3.19","match_key":"l","participant_id":"21"},{"rt":null,"stimulus":"Sounds/rooster_label.wav","key_press":null,"block":1,"trial_type":"audio-keyboard-response","trial_index":132,"time_elapsed":3535195,"internal_node_id":"0.0-13.0-0.20","match_key":"l","participant_id":"21"},{"rt":null,"stimulus":"<p style=\"font-size: 48px;\">+</p>","key_press":null,"block":1,"trial_type":"html-keyboard-response","trial_index":133,"time_elapsed":3536186,"internal_node_id":"0.0-13.0-1.20","match_key":"l","participant_id":"21"},{"rt":501.53500001784414,"stimulus":"Images/rooster_cartoon.png","key_press":76,"stim_onset":1582160955268,"block":1,"match_type":"match","image_category":"rooster","sound_category":"rooster","audio_type":"label","phase":"test","trial_type":"image-keyboard-response","trial_index":134,"time_elapsed":3536688,"internal_node_id":"0.0-13.0-2.20","match_key":"l","participant_id":"21","correct":true},{"rt":null,"stimulus":"Sounds/correct.wav","key_press":null,"block":1,"trial_type":"audio-keyboard-response","trial_index":135,"time_elapsed":3538692,"internal_node_id":"0.0-13.0-3.20","match_key":"l","participant_id":"21"},{"rt":null,"stimulus":"Sounds/cow_sound.wav","key_press":null,"block":1,"trial_type":"audio-keyboard-response","trial_index":136,"time_elapsed":3539715,"internal_node_id":"0.0-13.0-0.21","match_key":"l","participant_id":"21"},{"rt":null,"stimulus":"<p style=\"font-size: 48px;\">+</p>","key_press":null,"block":1,"trial_type":"html-keyboard-response","trial_index":137,"time_elapsed":3540719,"internal_node_id":"0.0-13.0-1.21","match_key":"l","participant_id":"21"},{"rt":495.82000001054257,"stimulus":"Images/cow_cartoon.png","key_press":76,"stim_onset":1582160959802,"block":1,"match_type":"match","image_category":"cow","sound_category":"cow","audio_type":"sound","phase":"test","trial_type":"image-keyboard-response","trial_index":138,"time_elapsed":3541216,"internal_node_id":"0.0-13.0-2.21","match_key":"l","participant_id":"21","correct":true},{"rt":null,"stimulus":"Sounds/correct.wav","key_press":null,"block":1,"trial_type":"audio-keyboard-response","trial_index":139,"time_elapsed":3543225,"internal_node_id":"0.0-13.0-3.21","match_key":"l","participant_id":"21"},{"rt":null,"stimulus":"Sounds/train_label.wav","key_press":null,"block":1,"trial_type":"audio-keyboard-response","trial_index":140,"time_elapsed":3544495,"internal_node_id":"0.0-13.0-0.22","match_key":"l","participant_id":"21"},{"rt":null,"stimulus":"<p style=\"font-size: 48px;\">+</p>","key_press":null,"block":1,"trial_type":"html-keyboard-response","trial_index":141,"time_elapsed":3545486,"internal_node_id":"0.0-13.0-1.22","match_key":"l","participant_id":"21"},{"rt":849.0750000053085,"stimulus":"Images/train_orig.png","key_press":76,"stim_onset":1582160964568,"block":1,"match_type":"match","image_category":"train","sound_category":"train","audio_type":"label","phase":"test","trial_type":"image-keyboard-response","trial_index":142,"time_elapsed":3546336,"internal_node_id":"0.0-13.0-2.22","match_key":"l","participant_id":"21","correct":true},{"rt":null,"stimulus":"Sounds/correct.wav","key_press":null,"block":1,"trial_type":"audio-keyboard-response","trial_index":143,"time_elapsed":3548341,"internal_node_id":"0.0-13.0-3.22","match_key":"l","participant_id":"21"},{"rt":null,"stimulus":"Sounds/gun_label.wav","key_press":null,"block":1,"trial_type":"audio-keyboard-response","trial_index":144,"time_elapsed":3548915,"internal_node_id":"0.0-13.0-0.23","match_key":"l","participant_id":"21"},{"rt":null,"stimulus":"<p style=\"font-size: 48px;\">+</p>","key_press":null,"block":1,"trial_type":"html-keyboard-response","trial_index":145,"time_elapsed":3549920,"internal_node_id":"0.0-13.0-1.23","match_key":"l","participant_id":"21"},{"rt":527.7899999930523,"stimulus":"Images/gun_orig.png","key_press":76,"stim_onset":1582160969001,"block":1,"match_type":"match","image_category":"gun","sound_category":"gun","audio_type":"label","phase":"test","trial_type":"image-keyboard-response","trial_index":146,"time_elapsed":3550448,"internal_node_id":"0.0-13.0-2.23","match_key":"l","participant_id":"21","correct":true},{"rt":null,"stimulus":"Sounds/correct.wav","key_press":null,"block":1,"trial_type":"audio-keyboard-response","trial_index":147,"time_elapsed":3552459,"internal_node_id":"0.0-13.0-3.23","match_key":"l","participant_id":"21"},{"rt":null,"stimulus":"Sounds/cat_label.wav","key_press":null,"block":1,"trial_type":"audio-keyboard-response","trial_index":148,"time_elapsed":3553295,"internal_node_id":"0.0-13.0-0.24","match_key":"l","participant_id":"21"},{"rt":null,"stimulus":"<p style=\"font-size: 48px;\">+</p>","key_press":null,"block":1,"trial_type":"html-keyboard-response","trial_index":149,"time_elapsed":3554286,"internal_node_id":"0.0-13.0-1.24","match_key":"l","participant_id":"21"},{"rt":593.0400000074878,"stimulus":"Images/rooster_cartoon.png","key_press":65,"stim_onset":1582160973368,"block":1,"match_type":"non-match","image_category":"rooster","sound_category":"cat","audio_type":"label","phase":"test","trial_type":"image-keyboard-response","trial_index":150,"time_elapsed":3554880,"internal_node_id":"0.0-13.0-2.24","match_key":"l","participant_id":"21","correct":true},{"rt":null,"stimulus":"Sounds/correct.wav","key_press":null,"block":1,"trial_type":"audio-keyboard-response","trial_index":151,"time_elapsed":3556891,"internal_node_id":"0.0-13.0-3.24","match_key":"l","participant_id":"21"},{"rt":null,"stimulus":"Sounds/cat_sound.wav","key_press":null,"block":1,"trial_type":"audio-keyboard-response","trial_index":152,"time_elapsed":3557735,"internal_node_id":"0.0-13.0-0.25","match_key":"l","participant_id":"21"},{"rt":null,"stimulus":"<p style=\"font-size: 48px;\">+</p>","key_press":null,"block":1,"trial_type":"html-keyboard-response","trial_index":153,"time_elapsed":3558753,"internal_node_id":"0.0-13.0-1.25","match_key":"l","participant_id":"21"},{"rt":670.4700000118464,"stimulus":"Images/dog_1.png","key_press":65,"stim_onset":1582160977835,"block":1,"match_type":"non-match","image_category":"dog","sound_category":"cat","audio_type":"sound","phase":"test","trial_type":"image-keyboard-response","trial_index":154,"time_elapsed":3559424,"internal_node_id":"0.0-13.0-2.25","match_key":"l","participant_id":"21","correct":true},{"rt":null,"stimulus":"Sounds/correct.wav","key_press":null,"block":1,"trial_type":"audio-keyboard-response","trial_index":155,"time_elapsed":3561441,"internal_node_id":"0.0-13.0-3.25","match_key":"l","participant_id":"21"},{"rt":null,"stimulus":"Sounds/frog_label.wav","key_press":null,"block":1,"trial_type":"audio-keyboard-response","trial_index":156,"time_elapsed":3562335,"internal_node_id":"0.0-13.0-0.26","match_key":"l","participant_id":"21"},{"rt":null,"stimulus":"<p style=\"font-size: 48px;\">+</p>","key_press":null,"block":1,"trial_type":"html-keyboard-response","trial_index":157,"time_elapsed":3563353,"internal_node_id":"0.0-13.0-1.26","match_key":"l","participant_id":"21"},{"rt":646.6099999961443,"stimulus":"Images/frog_3.png","key_press":76,"stim_onset":1582160982435,"block":1,"match_type":"match","image_category":"frog","sound_category":"frog","audio_type":"label","phase":"test","trial_type":"image-keyboard-response","trial_index":158,"time_elapsed":3564001,"internal_node_id":"0.0-13.0-2.26","match_key":"l","participant_id":"21","correct":true},{"rt":null,"stimulus":"Sounds/correct.wav","key_press":null,"block":1,"trial_type":"audio-keyboard-response","trial_index":159,"time_elapsed":3566008,"internal_node_id":"0.0-13.0-3.26","match_key":"l","participant_id":"21"},{"rt":null,"stimulus":"Sounds/gun_label.wav","key_press":null,"block":1,"trial_type":"audio-keyboard-response","trial_index":160,"time_elapsed":3566575,"internal_node_id":"0.0-13.0-0.27","match_key":"l","participant_id":"21"},{"rt":null,"stimulus":"<p style=\"font-size: 48px;\">+</p>","key_press":null,"block":1,"trial_type":"html-keyboard-response","trial_index":161,"time_elapsed":3567570,"internal_node_id":"0.0-13.0-1.27","match_key":"l","participant_id":"21"},{"rt":877.5250000180677,"stimulus":"Images/whistle_orig.png","key_press":65,"stim_onset":1582160986652,"block":1,"match_type":"non-match","image_category":"whistle","sound_category":"gun","audio_type":"label","phase":"test","trial_type":"image-keyboard-response","trial_index":162,"time_elapsed":3568448,"internal_node_id":"0.0-13.0-2.27","match_key":"l","participant_id":"21","correct":true},{"rt":null,"stimulus":"Sounds/correct.wav","key_press":null,"block":1,"trial_type":"audio-keyboard-response","trial_index":163,"time_elapsed":3570458,"internal_node_id":"0.0-13.0-3.27","match_key":"l","participant_id":"21"},{"rt":null,"stimulus":"Sounds/dog_sound.wav","key_press":null,"block":1,"trial_type":"audio-keyboard-response","trial_index":164,"time_elapsed":3571175,"internal_node_id":"0.0-13.0-0.28","match_key":"l","participant_id":"21"},{"rt":null,"stimulus":"<p style=\"font-size: 48px;\">+</p>","key_press":null,"block":1,"trial_type":"html-keyboard-response","trial_index":165,"time_elapsed":3572170,"internal_node_id":"0.0-13.0-1.28","match_key":"l","participant_id":"21"},{"rt":661.629999987781,"stimulus":"Images/frog_orig.png","key_press":65,"stim_onset":1582160991252,"block":1,"match_type":"non-match","image_category":"frog","sound_category":"dog","audio_type":"sound","phase":"test","trial_type":"image-keyboard-response","trial_index":166,"time_elapsed":3572832,"internal_node_id":"0.0-13.0-2.28","match_key":"l","participant_id":"21","correct":true},{"rt":null,"stimulus":"Sounds/correct.wav","key_press":null,"block":1,"trial_type":"audio-keyboard-response","trial_index":167,"time_elapsed":3574843,"internal_node_id":"0.0-13.0-3.28","match_key":"l","participant_id":"21"},{"rt":null,"stimulus":"Sounds/train_label.wav","key_press":null,"block":1,"trial_type":"audio-keyboard-response","trial_index":168,"time_elapsed":3576115,"internal_node_id":"0.0-13.0-0.29","match_key":"l","participant_id":"21"},{"rt":null,"stimulus":"<p style=\"font-size: 48px;\">+</p>","key_press":null,"block":1,"trial_type":"html-keyboard-response","trial_index":169,"time_elapsed":3577120,"internal_node_id":"0.0-13.0-1.29","match_key":"l","participant_id":"21"},{"rt":879.7499999925494,"stimulus":"Images/train_cartoon.png","key_press":76,"stim_onset":1582160996202,"block":1,"match_type":"match","image_category":"train","sound_category":"train","audio_type":"label","phase":"test","trial_type":"image-keyboard-response","trial_index":170,"time_elapsed":3578000,"internal_node_id":"0.0-13.0-2.29","match_key":"l","participant_id":"21","correct":true},{"rt":null,"stimulus":"Sounds/correct.wav","key_press":null,"block":1,"trial_type":"audio-keyboard-response","trial_index":171,"time_elapsed":3580010,"internal_node_id":"0.0-13.0-3.29","match_key":"l","participant_id":"21"},{"rt":null,"stimulus":"Sounds/cow_label.wav","key_press":null,"block":1,"trial_type":"audio-keyboard-response","trial_index":172,"time_elapsed":3581035,"internal_node_id":"0.0-13.0-0.30","match_key":"l","participant_id":"21"},{"rt":null,"stimulus":"<p style=\"font-size: 48px;\">+</p>","key_press":null,"block":1,"trial_type":"html-keyboard-response","trial_index":173,"time_elapsed":3582053,"internal_node_id":"0.0-13.0-1.30","match_key":"l","participant_id":"21"},{"rt":778.2350000049919,"stimulus":"Images/train_cartoon.png","key_press":65,"stim_onset":1582161001135,"block":1,"match_type":"non-match","image_category":"train","sound_category":"cow","audio_type":"label","phase":"test","trial_type":"image-keyboard-response","trial_index":174,"time_elapsed":3582832,"internal_node_id":"0.0-13.0-2.30","match_key":"l","participant_id":"21","correct":true},{"rt":null,"stimulus":"Sounds/correct.wav","key_press":null,"block":1,"trial_type":"audio-keyboard-response","trial_index":175,"time_elapsed":3584844,"internal_node_id":"0.0-13.0-3.30","match_key":"l","participant_id":"21"},{"rt":null,"stimulus":"Sounds/car_sound.wav","key_press":null,"block":1,"trial_type":"audio-keyboard-response","trial_index":176,"time_elapsed":3585915,"internal_node_id":"0.0-13.0-0.31","match_key":"l","participant_id":"21"},{"rt":null,"stimulus":"<p style=\"font-size: 48px;\">+</p>","key_press":null,"block":1,"trial_type":"html-keyboard-response","trial_index":177,"time_elapsed":3586920,"internal_node_id":"0.0-13.0-1.31","match_key":"l","participant_id":"21"},{"rt":583.4750000215136,"stimulus":"Images/car_3.png","key_press":76,"stim_onset":1582161006002,"block":1,"match_type":"match","image_category":"car","sound_category":"car","audio_type":"sound","phase":"test","trial_type":"image-keyboard-response","trial_index":178,"time_elapsed":3587504,"internal_node_id":"0.0-13.0-2.31","match_key":"l","participant_id":"21","correct":true},{"rt":null,"stimulus":"Sounds/correct.wav","key_press":null,"block":1,"trial_type":"audio-keyboard-response","trial_index":179,"time_elapsed":3589508,"internal_node_id":"0.0-13.0-3.31","match_key":"l","participant_id":"21"},{"rt":null,"stimulus":"Sounds/frog_label.wav","key_press":null,"block":1,"trial_type":"audio-keyboard-response","trial_index":180,"time_elapsed":3590415,"internal_node_id":"0.0-13.0-0.32","match_key":"l","participant_id":"21"},{"rt":null,"stimulus":"<p style=\"font-size: 48px;\">+</p>","key_press":null,"block":1,"trial_type":"html-keyboard-response","trial_index":181,"time_elapsed":3591420,"internal_node_id":"0.0-13.0-1.32","match_key":"l","participant_id":"21"},{"rt":627.2599999792874,"stimulus":"Images/cow_orig.png","key_press":65,"stim_onset":1582161010502,"block":1,"match_type":"non-match","image_category":"cow","sound_category":"frog","audio_type":"label","phase":"test","trial_type":"image-keyboard-response","trial_index":182,"time_elapsed":3592049,"internal_node_id":"0.0-13.0-2.32","match_key":"l","participant_id":"21","correct":true},{"rt":null,"stimulus":"Sounds/correct.wav","key_press":null,"block":1,"trial_type":"audio-keyboard-response","trial_index":183,"time_elapsed":3594059,"internal_node_id":"0.0-13.0-3.32","match_key":"l","participant_id":"21"},{"rt":null,"stimulus":"Sounds/cat_sound.wav","key_press":null,"block":1,"trial_type":"audio-keyboard-response","trial_index":184,"time_elapsed":3594895,"internal_node_id":"0.0-13.0-0.33","match_key":"l","participant_id":"21"},{"rt":null,"stimulus":"<p style=\"font-size: 48px;\">+</p>","key_press":null,"block":1,"trial_type":"html-keyboard-response","trial_index":185,"time_elapsed":3595887,"internal_node_id":"0.0-13.0-1.33","match_key":"l","participant_id":"21"},{"rt":624.5249999919906,"stimulus":"Images/cat_orig.png","key_press":76,"stim_onset":1582161014969,"block":1,"match_type":"match","image_category":"cat","sound_category":"cat","audio_type":"sound","phase":"test","trial_type":"image-keyboard-response","trial_index":186,"time_elapsed":3596512,"internal_node_id":"0.0-13.0-2.33","match_key":"l","participant_id":"21","correct":true},{"rt":null,"stimulus":"Sounds/correct.wav","key_press":null,"block":1,"trial_type":"audio-keyboard-response","trial_index":187,"time_elapsed":3598523,"internal_node_id":"0.0-13.0-3.33","match_key":"l","participant_id":"21"},{"rt":null,"stimulus":"Sounds/train_sound.wav","key_press":null,"block":1,"trial_type":"audio-keyboard-response","trial_index":188,"time_elapsed":3599815,"internal_node_id":"0.0-13.0-0.34","match_key":"l","participant_id":"21"},{"rt":null,"stimulus":"<p style=\"font-size: 48px;\">+</p>","key_press":null,"block":1,"trial_type":"html-keyboard-response","trial_index":189,"time_elapsed":3600820,"internal_node_id":"0.0-13.0-1.34","match_key":"l","participant_id":"21"},{"rt":458.9850000045262,"stimulus":"Images/dog_3.png","key_press":65,"stim_onset":1582161019902,"block":1,"match_type":"non-match","image_category":"dog","sound_category":"train","audio_type":"sound","phase":"test","trial_type":"image-keyboard-response","trial_index":190,"time_elapsed":3601280,"internal_node_id":"0.0-13.0-2.34","match_key":"l","participant_id":"21","correct":true},{"rt":null,"stimulus":"Sounds/correct.wav","key_press":null,"block":1,"trial_type":"audio-keyboard-response","trial_index":191,"time_elapsed":3603290,"internal_node_id":"0.0-13.0-3.34","match_key":"l","participant_id":"21"},{"rt":null,"stimulus":"Sounds/whistle_label.wav","key_press":null,"block":1,"trial_type":"audio-keyboard-response","trial_index":192,"time_elapsed":3603995,"internal_node_id":"0.0-13.0-0.35","match_key":"l","participant_id":"21"},{"rt":null,"stimulus":"<p style=\"font-size: 48px;\">+</p>","key_press":null,"block":1,"trial_type":"html-keyboard-response","trial_index":193,"time_elapsed":3604987,"internal_node_id":"0.0-13.0-1.35","match_key":"l","participant_id":"21"},{"rt":644.704999984242,"stimulus":"Images/whistle_cartoon.png","key_press":76,"stim_onset":1582161024069,"block":1,"match_type":"match","image_category":"whistle","sound_category":"whistle","audio_type":"label","phase":"test","trial_type":"image-keyboard-response","trial_index":194,"time_elapsed":3605632,"internal_node_id":"0.0-13.0-2.35","match_key":"l","participant_id":"21","correct":true},{"rt":null,"stimulus":"Sounds/correct.wav","key_press":null,"block":1,"trial_type":"audio-keyboard-response","trial_index":195,"time_elapsed":3607642,"internal_node_id":"0.0-13.0-3.35","match_key":"l","participant_id":"21"},{"rt":null,"stimulus":"Sounds/cow_sound.wav","key_press":null,"block":1,"trial_type":"audio-keyboard-response","trial_index":196,"time_elapsed":3608655,"internal_node_id":"0.0-13.0-0.36","match_key":"l","participant_id":"21"},{"rt":null,"stimulus":"<p style=\"font-size: 48px;\">+</p>","key_press":null,"block":1,"trial_type":"html-keyboard-response","trial_index":197,"time_elapsed":3609653,"internal_node_id":"0.0-13.0-1.36","match_key":"l","participant_id":"21"},{"rt":649.8650000137277,"stimulus":"Images/whistle_2.png","key_press":65,"stim_onset":1582161028736,"block":1,"match_type":"non-match","image_category":"whistle","sound_category":"cow","audio_type":"sound","phase":"test","trial_type":"image-keyboard-response","trial_index":198,"time_elapsed":3610304,"internal_node_id":"0.0-13.0-2.36","match_key":"l","participant_id":"21","correct":true},{"rt":null,"stimulus":"Sounds/correct.wav","key_press":null,"block":1,"trial_type":"audio-keyboard-response","trial_index":199,"time_elapsed":3612309,"internal_node_id":"0.0-13.0-3.36","match_key":"l","participant_id":"21"},{"rt":null,"stimulus":"Sounds/gun_sound.wav","key_press":null,"block":1,"trial_type":"audio-keyboard-response","trial_index":200,"time_elapsed":3612896,"internal_node_id":"0.0-13.0-0.37","match_key":"l","participant_id":"21"},{"rt":null,"stimulus":"<p style=\"font-size: 48px;\">+</p>","key_press":null,"block":1,"trial_type":"html-keyboard-response","trial_index":201,"time_elapsed":3613887,"internal_node_id":"0.0-13.0-1.37","match_key":"l","participant_id":"21"},{"rt":640.4949999996461,"stimulus":"Images/motorcycle_cartoon.png","key_press":65,"stim_onset":1582161032969,"block":1,"match_type":"non-match","image_category":"motorcycle","sound_category":"gun","audio_type":"sound","phase":"test","trial_type":"image-keyboard-response","trial_index":202,"time_elapsed":3614529,"internal_node_id":"0.0-13.0-2.37","match_key":"l","participant_id":"21","correct":true},{"rt":null,"stimulus":"Sounds/correct.wav","key_press":null,"block":1,"trial_type":"audio-keyboard-response","trial_index":203,"time_elapsed":3616542,"internal_node_id":"0.0-13.0-3.37","match_key":"l","participant_id":"21"},{"rt":null,"stimulus":"Sounds/dog_sound.wav","key_press":null,"block":1,"trial_type":"audio-keyboard-response","trial_index":204,"time_elapsed":3617256,"internal_node_id":"0.0-13.0-0.38","match_key":"l","participant_id":"21"},{"rt":null,"stimulus":"<p style=\"font-size: 48px;\">+</p>","key_press":null,"block":1,"trial_type":"html-keyboard-response","trial_index":205,"time_elapsed":3618254,"internal_node_id":"0.0-13.0-1.38","match_key":"l","participant_id":"21"},{"rt":721.9349999791011,"stimulus":"Images/dog_orig.png","key_press":76,"stim_onset":1582161037336,"block":1,"match_type":"match","image_category":"dog","sound_category":"dog","audio_type":"sound","phase":"test","trial_type":"image-keyboard-response","trial_index":206,"time_elapsed":3618977,"internal_node_id":"0.0-13.0-2.38","match_key":"l","participant_id":"21","correct":true},{"rt":null,"stimulus":"Sounds/correct.wav","key_press":null,"block":1,"trial_type":"audio-keyboard-response","trial_index":207,"time_elapsed":3620991,"internal_node_id":"0.0-13.0-3.38","match_key":"l","participant_id":"21"},{"rt":null,"stimulus":"Sounds/gun_sound.wav","key_press":null,"block":1,"trial_type":"audio-keyboard-response","trial_index":208,"time_elapsed":3621536,"internal_node_id":"0.0-13.0-0.39","match_key":"l","participant_id":"21"},{"rt":null,"stimulus":"<p style=\"font-size: 48px;\">+</p>","key_press":null,"block":1,"trial_type":"html-keyboard-response","trial_index":209,"time_elapsed":3622554,"internal_node_id":"0.0-13.0-1.39","match_key":"l","participant_id":"21"},{"rt":629.7999999951571,"stimulus":"Images/cow_3.png","key_press":65,"stim_onset":1582161041636,"block":1,"match_type":"non-match","image_category":"cow","sound_category":"gun","audio_type":"sound","phase":"test","trial_type":"image-keyboard-response","trial_index":210,"time_elapsed":3623184,"internal_node_id":"0.0-13.0-2.39","match_key":"l","participant_id":"21","correct":true},{"rt":null,"stimulus":"Sounds/correct.wav","key_press":null,"block":1,"trial_type":"audio-keyboard-response","trial_index":211,"time_elapsed":3625194,"internal_node_id":"0.0-13.0-3.39","match_key":"l","participant_id":"21"},{"rt":null,"stimulus":"Sounds/cow_sound.wav","key_press":null,"block":1,"trial_type":"audio-keyboard-response","trial_index":212,"time_elapsed":3626196,"internal_node_id":"0.0-13.0-0.40","match_key":"l","participant_id":"21"},{"rt":null,"stimulus":"<p style=\"font-size: 48px;\">+</p>","key_press":null,"block":1,"trial_type":"html-keyboard-response","trial_index":213,"time_elapsed":3627187,"internal_node_id":"0.0-13.0-1.40","match_key":"l","participant_id":"21"},{"rt":700.1200000233948,"stimulus":"Images/frog_3.png","key_press":65,"stim_onset":1582161046269,"block":1,"match_type":"non-match","image_category":"frog","sound_category":"cow","audio_type":"sound","phase":"test","trial_type":"image-keyboard-response","trial_index":214,"time_elapsed":3627888,"internal_node_id":"0.0-13.0-2.40","match_key":"l","participant_id":"21","correct":true},{"rt":null,"stimulus":"Sounds/correct.wav","key_press":null,"block":1,"trial_type":"audio-keyboard-response","trial_index":215,"time_elapsed":3629895,"internal_node_id":"0.0-13.0-3.40","match_key":"l","participant_id":"21"},{"rt":null,"stimulus":"Sounds/car_sound.wav","key_press":null,"block":1,"trial_type":"audio-keyboard-response","trial_index":216,"time_elapsed":3630976,"internal_node_id":"0.0-13.0-0.41","match_key":"l","participant_id":"21"},{"rt":null,"stimulus":"<p style=\"font-size: 48px;\">+</p>","key_press":null,"block":1,"trial_type":"html-keyboard-response","trial_index":217,"time_elapsed":3631971,"internal_node_id":"0.0-13.0-1.41","match_key":"l","participant_id":"21"},{"rt":621.1249999762513,"stimulus":"Images/train_orig.png","key_press":65,"stim_onset":1582161051053,"block":1,"match_type":"non-match","image_category":"train","sound_category":"car","audio_type":"sound","phase":"test","trial_type":"image-keyboard-response","trial_index":218,"time_elapsed":3632593,"internal_node_id":"0.0-13.0-2.41","match_key":"l","participant_id":"21","correct":true},{"rt":null,"stimulus":"Sounds/correct.wav","key_press":null,"block":1,"trial_type":"audio-keyboard-response","trial_index":219,"time_elapsed":3634608,"internal_node_id":"0.0-13.0-3.41","match_key":"l","participant_id":"21"},{"rt":null,"stimulus":"Sounds/rooster_label.wav","key_press":null,"block":1,"trial_type":"audio-keyboard-response","trial_index":220,"time_elapsed":3635296,"internal_node_id":"0.0-13.0-0.42","match_key":"l","participant_id":"21"},{"rt":null,"stimulus":"<p style=\"font-size: 48px;\">+</p>","key_press":null,"block":1,"trial_type":"html-keyboard-response","trial_index":221,"time_elapsed":3636287,"internal_node_id":"0.0-13.0-1.42","match_key":"l","participant_id":"21"},{"rt":448.00000000419095,"stimulus":"Images/rooster_2.png","key_press":76,"stim_onset":1582161055369,"block":1,"match_type":"match","image_category":"rooster","sound_category":"rooster","audio_type":"label","phase":"test","trial_type":"image-keyboard-response","trial_index":222,"time_elapsed":3636736,"internal_node_id":"0.0-13.0-2.42","match_key":"l","participant_id":"21","correct":true},{"rt":null,"stimulus":"Sounds/correct.wav","key_press":null,"block":1,"trial_type":"audio-keyboard-response","trial_index":223,"time_elapsed":3638743,"internal_node_id":"0.0-13.0-3.42","match_key":"l","participant_id":"21"},{"rt":null,"stimulus":"Sounds/motorcycle_sound.wav","key_press":null,"block":1,"trial_type":"audio-keyboard-response","trial_index":224,"time_elapsed":3639856,"internal_node_id":"0.0-13.0-0.43","match_key":"l","participant_id":"21"},{"rt":null,"stimulus":"<p style=\"font-size: 48px;\">+</p>","key_press":null,"block":1,"trial_type":"html-keyboard-response","trial_index":225,"time_elapsed":3640854,"internal_node_id":"0.0-13.0-1.43","match_key":"l","participant_id":"21"},{"rt":1385.4900000151247,"stimulus":"Images/motorcycle_orig.png","key_press":76,"stim_onset":1582161059936,"block":1,"match_type":"match","image_category":"motorcycle","sound_category":"motorcycle","audio_type":"sound","phase":"test","trial_type":"image-keyboard-response","trial_index":226,"time_elapsed":3642240,"internal_node_id":"0.0-13.0-2.43","match_key":"l","participant_id":"21","correct":true},{"rt":null,"stimulus":"Sounds/correct.wav","key_press":null,"block":1,"trial_type":"audio-keyboard-response","trial_index":227,"time_elapsed":3644247,"internal_node_id":"0.0-13.0-3.43","match_key":"l","participant_id":"21"},{"rt":null,"stimulus":"Sounds/car_label.wav","key_press":null,"block":1,"trial_type":"audio-keyboard-response","trial_index":228,"time_elapsed":3645336,"internal_node_id":"0.0-13.0-0.44","match_key":"l","participant_id":"21"},{"rt":null,"stimulus":"<p style=\"font-size: 48px;\">+</p>","key_press":null,"block":1,"trial_type":"html-keyboard-response","trial_index":229,"time_elapsed":3646354,"internal_node_id":"0.0-13.0-1.44","match_key":"l","participant_id":"21"},{"rt":684.305000002496,"stimulus":"Images/frog_1.png","key_press":65,"stim_onset":1582161065436,"block":1,"match_type":"non-match","image_category":"frog","sound_category":"car","audio_type":"label","phase":"test","trial_type":"image-keyboard-response","trial_index":230,"time_elapsed":3647041,"internal_node_id":"0.0-13.0-2.44","match_key":"l","participant_id":"21","correct":true},{"rt":null,"stimulus":"Sounds/correct.wav","key_press":null,"block":1,"trial_type":"audio-keyboard-response","trial_index":231,"time_elapsed":3649056,"internal_node_id":"0.0-13.0-3.44","match_key":"l","participant_id":"21"},{"rt":null,"stimulus":"Sounds/motorcycle_sound.wav","key_press":null,"block":1,"trial_type":"audio-keyboard-response","trial_index":232,"time_elapsed":3650155,"internal_node_id":"0.0-13.0-0.45","match_key":"l","participant_id":"21"},{"rt":null,"stimulus":"<p style=\"font-size: 48px;\">+</p>","key_press":null,"block":1,"trial_type":"html-keyboard-response","trial_index":233,"time_elapsed":3651154,"internal_node_id":"0.0-13.0-1.45","match_key":"l","participant_id":"21"},{"rt":2701.395000010729,"stimulus":"Images/motorcycle_1.png","key_press":65,"stim_onset":1582161070236,"block":1,"match_type":"match","image_category":"motorcycle","sound_category":"motorcycle","audio_type":"sound","phase":"test","trial_type":"image-keyboard-response","trial_index":234,"time_elapsed":3653857,"internal_node_id":"0.0-13.0-2.45","match_key":"l","participant_id":"21","correct":false},{"rt":null,"stimulus":"Sounds/incorrect.wav","key_press":null,"block":1,"trial_type":"audio-keyboard-response","trial_index":235,"time_elapsed":3655861,"internal_node_id":"0.0-13.0-3.45","match_key":"l","participant_id":"21"},{"rt":null,"stimulus":"Sounds/motorcycle_label.wav","key_press":null,"block":1,"trial_type":"audio-keyboard-response","trial_index":236,"time_elapsed":3656996,"internal_node_id":"0.0-13.0-0.46","match_key":"l","participant_id":"21"},{"rt":null,"stimulus":"<p style=\"font-size: 48px;\">+</p>","key_press":null,"block":1,"trial_type":"html-keyboard-response","trial_index":237,"time_elapsed":3657987,"internal_node_id":"0.0-13.0-1.46","match_key":"l","participant_id":"21"},{"rt":620.215000002645,"stimulus":"Images/motorcycle_3.png","key_press":76,"stim_onset":1582161077070,"block":1,"match_type":"match","image_category":"motorcycle","sound_category":"motorcycle","audio_type":"label","phase":"test","trial_type":"image-keyboard-response","trial_index":238,"time_elapsed":3658609,"internal_node_id":"0.0-13.0-2.46","match_key":"l","participant_id":"21","correct":true},{"rt":null,"stimulus":"Sounds/correct.wav","key_press":null,"block":1,"trial_type":"audio-keyboard-response","trial_index":239,"time_elapsed":3660625,"internal_node_id":"0.0-13.0-3.46","match_key":"l","participant_id":"21"},{"rt":null,"stimulus":"Sounds/whistle_sound.wav","key_press":null,"block":1,"trial_type":"audio-keyboard-response","trial_index":240,"time_elapsed":3661336,"internal_node_id":"0.0-13.0-0.47","match_key":"l","participant_id":"21"},{"rt":null,"stimulus":"<p style=\"font-size: 48px;\">+</p>","key_press":null,"block":1,"trial_type":"html-keyboard-response","trial_index":241,"time_elapsed":3662338,"internal_node_id":"0.0-13.0-1.47","match_key":"l","participant_id":"21"},{"rt":893.6499999836087,"stimulus":"Images/gun_2.png","key_press":65,"stim_onset":1582161081420,"block":1,"match_type":"non-match","image_category":"gun","sound_category":"whistle","audio_type":"sound","phase":"test","trial_type":"image-keyboard-response","trial_index":242,"time_elapsed":3663232,"internal_node_id":"0.0-13.0-2.47","match_key":"l","participant_id":"21","correct":true},{"rt":null,"stimulus":"Sounds/correct.wav","key_press":null,"block":1,"trial_type":"audio-keyboard-response","trial_index":243,"time_elapsed":3665240,"internal_node_id":"0.0-13.0-3.47","match_key":"l","participant_id":"21"},{"rt":null,"stimulus":"Sounds/rooster_sound.wav","key_press":null,"block":1,"trial_type":"audio-keyboard-response","trial_index":244,"time_elapsed":3665936,"internal_node_id":"0.0-13.0-0.48","match_key":"l","participant_id":"21"},{"rt":null,"stimulus":"<p style=\"font-size: 48px;\">+</p>","key_press":null,"block":1,"trial_type":"html-keyboard-response","trial_index":245,"time_elapsed":3666938,"internal_node_id":"0.0-13.0-1.48","match_key":"l","participant_id":"21"},{"rt":629.8950000200421,"stimulus":"Images/car_orig.png","key_press":65,"stim_onset":1582161086020,"block":1,"match_type":"non-match","image_category":"car","sound_category":"rooster","audio_type":"sound","phase":"test","trial_type":"image-keyboard-response","trial_index":246,"time_elapsed":3667569,"internal_node_id":"0.0-13.0-2.48","match_key":"l","participant_id":"21","correct":true},{"rt":null,"stimulus":"Sounds/correct.wav","key_press":null,"block":1,"trial_type":"audio-keyboard-response","trial_index":247,"time_elapsed":3669576,"internal_node_id":"0.0-13.0-3.48","match_key":"l","participant_id":"21"},{"rt":null,"stimulus":"Sounds/car_sound.wav","key_press":null,"block":1,"trial_type":"audio-keyboard-response","trial_index":248,"time_elapsed":3670656,"internal_node_id":"0.0-13.0-0.49","match_key":"l","participant_id":"21"},{"rt":null,"stimulus":"<p style=\"font-size: 48px;\">+</p>","key_press":null,"block":1,"trial_type":"html-keyboard-response","trial_index":249,"time_elapsed":3671654,"internal_node_id":"0.0-13.0-1.49","match_key":"l","participant_id":"21"},{"rt":1353.2750000013039,"stimulus":"Images/car_cartoon.png","key_press":76,"stim_onset":1582161090736,"block":1,"match_type":"match","image_category":"car","sound_category":"car","audio_type":"sound","phase":"test","trial_type":"image-keyboard-response","trial_index":250,"time_elapsed":3673009,"internal_node_id":"0.0-13.0-2.49","match_key":"l","participant_id":"21","correct":true},{"rt":null,"stimulus":"Sounds/correct.wav","key_press":null,"block":1,"trial_type":"audio-keyboard-response","trial_index":251,"time_elapsed":3675011,"internal_node_id":"0.0-13.0-3.49","match_key":"l","participant_id":"21"},{"rt":null,"stimulus":"Sounds/dog_label.wav","key_press":null,"block":1,"trial_type":"audio-keyboard-response","trial_index":252,"time_elapsed":3675676,"internal_node_id":"0.0-13.0-0.50","match_key":"l","participant_id":"21"},{"rt":null,"stimulus":"<p style=\"font-size: 48px;\">+</p>","key_press":null,"block":1,"trial_type":"html-keyboard-response","trial_index":253,"time_elapsed":3676671,"internal_node_id":"0.0-13.0-1.50","match_key":"l","participant_id":"21"},{"rt":912.4149999991059,"stimulus":"Images/dog_1.png","key_press":76,"stim_onset":1582161095753,"block":1,"match_type":"match","image_category":"dog","sound_category":"dog","audio_type":"label","phase":"test","trial_type":"image-keyboard-response","trial_index":254,"time_elapsed":3677585,"internal_node_id":"0.0-13.0-2.50","match_key":"l","participant_id":"21","correct":true},{"rt":null,"stimulus":"Sounds/correct.wav","key_press":null,"block":1,"trial_type":"audio-keyboard-response","trial_index":255,"time_elapsed":3679595,"internal_node_id":"0.0-13.0-3.50","match_key":"l","participant_id":"21"},{"rt":null,"stimulus":"Sounds/rooster_sound.wav","key_press":null,"block":1,"trial_type":"audio-keyboard-response","trial_index":256,"time_elapsed":3680276,"internal_node_id":"0.0-13.0-0.51","match_key":"l","participant_id":"21"},{"rt":null,"stimulus":"<p style=\"font-size: 48px;\">+</p>","key_press":null,"block":1,"trial_type":"html-keyboard-response","trial_index":257,"time_elapsed":3681271,"internal_node_id":"0.0-13.0-1.51","match_key":"l","participant_id":"21"},{"rt":568.5649999943562,"stimulus":"Images/rooster_1.png","key_press":76,"stim_onset":1582161100353,"block":1,"match_type":"match","image_category":"rooster","sound_category":"rooster","audio_type":"sound","phase":"test","trial_type":"image-keyboard-response","trial_index":258,"time_elapsed":3681841,"internal_node_id":"0.0-13.0-2.51","match_key":"l","participant_id":"21","correct":true},{"rt":null,"stimulus":"Sounds/correct.wav","key_press":null,"block":1,"trial_type":"audio-keyboard-response","trial_index":259,"time_elapsed":3683843,"internal_node_id":"0.0-13.0-3.51","match_key":"l","participant_id":"21"},{"rt":null,"stimulus":"Sounds/frog_label.wav","key_press":null,"block":1,"trial_type":"audio-keyboard-response","trial_index":260,"time_elapsed":3684736,"internal_node_id":"0.0-13.0-0.52","match_key":"l","participant_id":"21"},{"rt":null,"stimulus":"<p style=\"font-size: 48px;\">+</p>","key_press":null,"block":1,"trial_type":"html-keyboard-response","trial_index":261,"time_elapsed":3685738,"internal_node_id":"0.0-13.0-1.52","match_key":"l","participant_id":"21"},{"rt":709.8700000206009,"stimulus":"Images/gun_cartoon.png","key_press":65,"stim_onset":1582161104820,"block":1,"match_type":"non-match","image_category":"gun","sound_category":"frog","audio_type":"label","phase":"test","trial_type":"image-keyboard-response","trial_index":262,"time_elapsed":3686449,"internal_node_id":"0.0-13.0-2.52","match_key":"l","participant_id":"21","correct":true},{"rt":null,"stimulus":"Sounds/correct.wav","key_press":null,"block":1,"trial_type":"audio-keyboard-response","trial_index":263,"time_elapsed":3688457,"internal_node_id":"0.0-13.0-3.52","match_key":"l","participant_id":"21"},{"rt":null,"stimulus":"Sounds/car_sound.wav","key_press":null,"block":1,"trial_type":"audio-keyboard-response","trial_index":264,"time_elapsed":3689536,"internal_node_id":"0.0-13.0-0.53","match_key":"l","participant_id":"21"},{"rt":null,"stimulus":"<p style=\"font-size: 48px;\">+</p>","key_press":null,"block":1,"trial_type":"html-keyboard-response","trial_index":265,"time_elapsed":3690538,"internal_node_id":"0.0-13.0-1.53","match_key":"l","participant_id":"21"},{"rt":676.7250000266358,"stimulus":"Images/dog_orig.png","key_press":65,"stim_onset":1582161109620,"block":1,"match_type":"non-match","image_category":"dog","sound_category":"car","audio_type":"sound","phase":"test","trial_type":"image-keyboard-response","trial_index":266,"time_elapsed":3691217,"internal_node_id":"0.0-13.0-2.53","match_key":"l","participant_id":"21","correct":true},{"rt":null,"stimulus":"Sounds/correct.wav","key_press":null,"block":1,"trial_type":"audio-keyboard-response","trial_index":267,"time_elapsed":3693226,"internal_node_id":"0.0-13.0-3.53","match_key":"l","participant_id":"21"},{"rt":null,"stimulus":"Sounds/car_label.wav","key_press":null,"block":1,"trial_type":"audio-keyboard-response","trial_index":268,"time_elapsed":3694316,"internal_node_id":"0.0-13.0-0.54","match_key":"l","participant_id":"21"},{"rt":null,"stimulus":"<p style=\"font-size: 48px;\">+</p>","key_press":null,"block":1,"trial_type":"html-keyboard-response","trial_index":269,"time_elapsed":3695321,"internal_node_id":"0.0-13.0-1.54","match_key":"l","participant_id":"21"},{"rt":692.5950000006706,"stimulus":"Images/whistle_1.png","key_press":65,"stim_onset":1582161114403,"block":1,"match_type":"non-match","image_category":"whistle","sound_category":"car","audio_type":"label","phase":"test","trial_type":"image-keyboard-response","trial_index":270,"time_elapsed":3696017,"internal_node_id":"0.0-13.0-2.54","match_key":"l","participant_id":"21","correct":true},{"rt":null,"stimulus":"Sounds/correct.wav","key_press":null,"block":1,"trial_type":"audio-keyboard-response","trial_index":271,"time_elapsed":3698026,"internal_node_id":"0.0-13.0-3.54","match_key":"l","participant_id":"21"},{"rt":null,"stimulus":"Sounds/cow_sound.wav","key_press":null,"block":1,"trial_type":"audio-keyboard-response","trial_index":272,"time_elapsed":3699036,"internal_node_id":"0.0-13.0-0.55","match_key":"l","participant_id":"21"},{"rt":null,"stimulus":"<p style=\"font-size: 48px;\">+</p>","key_press":null,"block":1,"trial_type":"html-keyboard-response","trial_index":273,"time_elapsed":3700038,"internal_node_id":"0.0-13.0-1.55","match_key":"l","participant_id":"21"},{"rt":649.9699999988079,"stimulus":"Images/cow_2.png","key_press":76,"stim_onset":1582161119120,"block":1,"match_type":"match","image_category":"cow","sound_category":"cow","audio_type":"sound","phase":"test","trial_type":"image-keyboard-response","trial_index":274,"time_elapsed":3700689,"internal_node_id":"0.0-13.0-2.55","match_key":"l","participant_id":"21","correct":true},{"rt":null,"stimulus":"Sounds/correct.wav","key_press":null,"block":1,"trial_type":"audio-keyboard-response","trial_index":275,"time_elapsed":3702693,"internal_node_id":"0.0-13.0-3.55","match_key":"l","participant_id":"21"},{"rt":null,"stimulus":"Sounds/gun_label.wav","key_press":null,"block":1,"trial_type":"audio-keyboard-response","trial_index":276,"time_elapsed":3703276,"internal_node_id":"0.0-13.0-0.56","match_key":"l","participant_id":"21"},{"rt":null,"stimulus":"<p style=\"font-size: 48px;\">+</p>","key_press":null,"block":1,"trial_type":"html-keyboard-response","trial_index":277,"time_elapsed":3704271,"internal_node_id":"0.0-13.0-1.56","match_key":"l","participant_id":"21"},{"rt":736.1300000045449,"stimulus":"Images/frog_cartoon.png","key_press":65,"stim_onset":1582161123353,"block":1,"match_type":"non-match","image_category":"frog","sound_category":"gun","audio_type":"label","phase":"test","trial_type":"image-keyboard-response","trial_index":278,"time_elapsed":3705009,"internal_node_id":"0.0-13.0-2.56","match_key":"l","participant_id":"21","correct":true},{"rt":null,"stimulus":"Sounds/correct.wav","key_press":null,"block":1,"trial_type":"audio-keyboard-response","trial_index":279,"time_elapsed":3707025,"internal_node_id":"0.0-13.0-3.56","match_key":"l","participant_id":"21"},{"rt":null,"stimulus":"Sounds/rooster_sound.wav","key_press":null,"block":1,"trial_type":"audio-keyboard-response","trial_index":280,"time_elapsed":3707716,"internal_node_id":"0.0-13.0-0.57","match_key":"l","participant_id":"21"},{"rt":null,"stimulus":"<p style=\"font-size: 48px;\">+</p>","key_press":null,"block":1,"trial_type":"html-keyboard-response","trial_index":281,"time_elapsed":3708705,"internal_node_id":"0.0-13.0-1.57","match_key":"l","participant_id":"21"},{"rt":894.7550000157207,"stimulus":"Images/rooster_3.png","key_press":76,"stim_onset":1582161127787,"block":1,"match_type":"match","image_category":"rooster","sound_category":"rooster","audio_type":"sound","phase":"test","trial_type":"image-keyboard-response","trial_index":282,"time_elapsed":3709601,"internal_node_id":"0.0-13.0-2.57","match_key":"l","participant_id":"21","correct":true},{"rt":null,"stimulus":"Sounds/correct.wav","key_press":null,"block":1,"trial_type":"audio-keyboard-response","trial_index":283,"time_elapsed":3711611,"internal_node_id":"0.0-13.0-3.57","match_key":"l","participant_id":"21"},{"rt":null,"stimulus":"Sounds/gun_sound.wav","key_press":null,"block":1,"trial_type":"audio-keyboard-response","trial_index":284,"time_elapsed":3712196,"internal_node_id":"0.0-13.0-0.58","match_key":"l","participant_id":"21"},{"rt":null,"stimulus":"<p style=\"font-size: 48px;\">+</p>","key_press":null,"block":1,"trial_type":"html-keyboard-response","trial_index":285,"time_elapsed":3713188,"internal_node_id":"0.0-13.0-1.58","match_key":"l","participant_id":"21"},{"rt":859.4999999911524,"stimulus":"Images/gun_cartoon.png","key_press":76,"stim_onset":1582161132270,"block":1,"match_type":"match","image_category":"gun","sound_category":"gun","audio_type":"sound","phase":"test","trial_type":"image-keyboard-response","trial_index":286,"time_elapsed":3714049,"internal_node_id":"0.0-13.0-2.58","match_key":"l","participant_id":"21","correct":true},{"rt":null,"stimulus":"Sounds/correct.wav","key_press":null,"block":1,"trial_type":"audio-keyboard-response","trial_index":287,"time_elapsed":3716058,"internal_node_id":"0.0-13.0-3.58","match_key":"l","participant_id":"21"},{"rt":null,"stimulus":"Sounds/whistle_sound.wav","key_press":null,"block":1,"trial_type":"audio-keyboard-response","trial_index":288,"time_elapsed":3716756,"internal_node_id":"0.0-13.0-0.59","match_key":"l","participant_id":"21"},{"rt":null,"stimulus":"<p style=\"font-size: 48px;\">+</p>","key_press":null,"block":1,"trial_type":"html-keyboard-response","trial_index":289,"time_elapsed":3717755,"internal_node_id":"0.0-13.0-1.59","match_key":"l","participant_id":"21"},{"rt":1028.539999999106,"stimulus":"Images/cat_cartoon.png","key_press":65,"stim_onset":1582161136837,"block":1,"match_type":"non-match","image_category":"cat","sound_category":"whistle","audio_type":"sound","phase":"test","trial_type":"image-keyboard-response","trial_index":290,"time_elapsed":3718784,"internal_node_id":"0.0-13.0-2.59","match_key":"l","participant_id":"21","correct":true},{"rt":null,"stimulus":"Sounds/correct.wav","key_press":null,"block":1,"trial_type":"audio-keyboard-response","trial_index":291,"time_elapsed":3720794,"internal_node_id":"0.0-13.0-3.59","match_key":"l","participant_id":"21"},{"rt":null,"stimulus":"Sounds/train_sound.wav","key_press":null,"block":1,"trial_type":"audio-keyboard-response","trial_index":292,"time_elapsed":3722096,"internal_node_id":"0.0-13.0-0.60","match_key":"l","participant_id":"21"},{"rt":null,"stimulus":"<p style=\"font-size: 48px;\">+</p>","key_press":null,"block":1,"trial_type":"html-keyboard-response","trial_index":293,"time_elapsed":3723088,"internal_node_id":"0.0-13.0-1.60","match_key":"l","participant_id":"21"},{"rt":847.2799999872223,"stimulus":"Images/train_1.png","key_press":76,"stim_onset":1582161142170,"block":1,"match_type":"match","image_category":"train","sound_category":"train","audio_type":"sound","phase":"test","trial_type":"image-keyboard-response","trial_index":294,"time_elapsed":3723936,"internal_node_id":"0.0-13.0-2.60","match_key":"l","participant_id":"21","correct":true},{"rt":null,"stimulus":"Sounds/correct.wav","key_press":null,"block":1,"trial_type":"audio-keyboard-response","trial_index":295,"time_elapsed":3725945,"internal_node_id":"0.0-13.0-3.60","match_key":"l","participant_id":"21"},{"rt":null,"stimulus":"Sounds/rooster_sound.wav","key_press":null,"block":1,"trial_type":"audio-keyboard-response","trial_index":296,"time_elapsed":3726636,"internal_node_id":"0.0-13.0-0.61","match_key":"l","participant_id":"21"},{"rt":null,"stimulus":"<p style=\"font-size: 48px;\">+</p>","key_press":null,"block":1,"trial_type":"html-keyboard-response","trial_index":297,"time_elapsed":3727638,"internal_node_id":"0.0-13.0-1.61","match_key":"l","participant_id":"21"},{"rt":921.4700000016019,"stimulus":"Images/motorcycle_1.png","key_press":65,"stim_onset":1582161146720,"block":1,"match_type":"non-match","image_category":"motorcycle","sound_category":"rooster","audio_type":"sound","phase":"test","trial_type":"image-keyboard-response","trial_index":298,"time_elapsed":3728561,"internal_node_id":"0.0-13.0-2.61","match_key":"l","participant_id":"21","correct":true},{"rt":null,"stimulus":"Sounds/correct.wav","key_press":null,"block":1,"trial_type":"audio-keyboard-response","trial_index":299,"time_elapsed":3730577,"internal_node_id":"0.0-13.0-3.61","match_key":"l","participant_id":"21"},{"rt":null,"stimulus":"Sounds/cow_label.wav","key_press":null,"block":1,"trial_type":"audio-keyboard-response","trial_index":300,"time_elapsed":3731596,"internal_node_id":"0.0-13.0-0.62","match_key":"l","participant_id":"21"},{"rt":null,"stimulus":"<p style=\"font-size: 48px;\">+</p>","key_press":null,"block":1,"trial_type":"html-keyboard-response","trial_index":301,"time_elapsed":3732588,"internal_node_id":"0.0-13.0-1.62","match_key":"l","participant_id":"21"},{"rt":563.3349999841303,"stimulus":"Images/dog_2.png","key_press":65,"stim_onset":1582161151670,"block":1,"match_type":"non-match","image_category":"dog","sound_category":"cow","audio_type":"label","phase":"test","trial_type":"image-keyboard-response","trial_index":302,"time_elapsed":3733152,"internal_node_id":"0.0-13.0-2.62","match_key":"l","participant_id":"21","correct":true},{"rt":null,"stimulus":"Sounds/correct.wav","key_press":null,"block":1,"trial_type":"audio-keyboard-response","trial_index":303,"time_elapsed":3735162,"internal_node_id":"0.0-13.0-3.62","match_key":"l","participant_id":"21"},{"rt":null,"stimulus":"Sounds/motorcycle_sound.wav","key_press":null,"block":1,"trial_type":"audio-keyboard-response","trial_index":304,"time_elapsed":3736276,"internal_node_id":"0.0-13.0-0.63","match_key":"l","participant_id":"21"},{"rt":null,"stimulus":"<p style=\"font-size: 48px;\">+</p>","key_press":null,"block":1,"trial_type":"html-keyboard-response","trial_index":305,"time_elapsed":3737272,"internal_node_id":"0.0-13.0-1.63","match_key":"l","participant_id":"21"},{"rt":567.8900000052527,"stimulus":"Images/cat_2.png","key_press":65,"stim_onset":1582161156354,"block":1,"match_type":"non-match","image_category":"cat","sound_category":"motorcycle","audio_type":"sound","phase":"test","trial_type":"image-keyboard-response","trial_index":306,"time_elapsed":3737841,"internal_node_id":"0.0-13.0-2.63","match_key":"l","participant_id":"21","correct":true},{"rt":null,"stimulus":"Sounds/correct.wav","key_press":null,"block":1,"trial_type":"audio-keyboard-response","trial_index":307,"time_elapsed":3739843,"internal_node_id":"0.0-13.0-3.63","match_key":"l","participant_id":"21"},{"rt":null,"stimulus":"Sounds/frog_sound.wav","key_press":null,"block":1,"trial_type":"audio-keyboard-response","trial_index":308,"time_elapsed":3740756,"internal_node_id":"0.0-13.0-0.64","match_key":"l","participant_id":"21"},{"rt":null,"stimulus":"<p style=\"font-size: 48px;\">+</p>","key_press":null,"block":1,"trial_type":"html-keyboard-response","trial_index":309,"time_elapsed":3741755,"internal_node_id":"0.0-13.0-1.64","match_key":"l","participant_id":"21"},{"rt":692.8149999873713,"stimulus":"Images/rooster_1.png","key_press":65,"stim_onset":1582161160837,"block":1,"match_type":"non-match","image_category":"rooster","sound_category":"frog","audio_type":"sound","phase":"test","trial_type":"image-keyboard-response","trial_index":310,"time_elapsed":3742449,"internal_node_id":"0.0-13.0-2.64","match_key":"l","participant_id":"21","correct":true},{"rt":null,"stimulus":"Sounds/correct.wav","key_press":null,"block":1,"trial_type":"audio-keyboard-response","trial_index":311,"time_elapsed":3744458,"internal_node_id":"0.0-13.0-3.64","match_key":"l","participant_id":"21"},{"rt":null,"stimulus":"Sounds/motorcycle_sound.wav","key_press":null,"block":1,"trial_type":"audio-keyboard-response","trial_index":312,"time_elapsed":3745556,"internal_node_id":"0.0-13.0-0.65","match_key":"l","participant_id":"21"},{"rt":null,"stimulus":"<p style=\"font-size: 48px;\">+</p>","key_press":null,"block":1,"trial_type":"html-keyboard-response","trial_index":313,"time_elapsed":3746555,"internal_node_id":"0.0-13.0-1.65","match_key":"l","participant_id":"21"},{"rt":820.3100000098348,"stimulus":"Images/train_1.png","key_press":76,"stim_onset":1582161165637,"block":1,"match_type":"non-match","image_category":"train","sound_category":"motorcycle","audio_type":"sound","phase":"test","trial_type":"image-keyboard-response","trial_index":314,"time_elapsed":3747376,"internal_node_id":"0.0-13.0-2.65","match_key":"l","participant_id":"21","correct":false},{"rt":null,"stimulus":"Sounds/incorrect.wav","key_press":null,"block":1,"trial_type":"audio-keyboard-response","trial_index":315,"time_elapsed":3749392,"internal_node_id":"0.0-13.0-3.65","match_key":"l","participant_id":"21"},{"rt":null,"stimulus":"Sounds/dog_label.wav","key_press":null,"block":1,"trial_type":"audio-keyboard-response","trial_index":316,"time_elapsed":3750056,"internal_node_id":"0.0-13.0-0.66","match_key":"l","participant_id":"21"},{"rt":null,"stimulus":"<p style=\"font-size: 48px;\">+</p>","key_press":null,"block":1,"trial_type":"html-keyboard-response","trial_index":317,"time_elapsed":3751055,"internal_node_id":"0.0-13.0-1.66","match_key":"l","participant_id":"21"},{"rt":656.3900000182912,"stimulus":"Images/train_2.png","key_press":65,"stim_onset":1582161170137,"block":1,"match_type":"non-match","image_category":"train","sound_category":"dog","audio_type":"label","phase":"test","trial_type":"image-keyboard-response","trial_index":318,"time_elapsed":3751713,"internal_node_id":"0.0-13.0-2.66","match_key":"l","participant_id":"21","correct":true},{"rt":null,"stimulus":"Sounds/correct.wav","key_press":null,"block":1,"trial_type":"audio-keyboard-response","trial_index":319,"time_elapsed":3753728,"internal_node_id":"0.0-13.0-3.66","match_key":"l","participant_id":"21"},{"rt":null,"stimulus":"Sounds/car_label.wav","key_press":null,"block":1,"trial_type":"audio-keyboard-response","trial_index":320,"time_elapsed":3754816,"internal_node_id":"0.0-13.0-0.67","match_key":"l","participant_id":"21"},{"rt":null,"stimulus":"<p style=\"font-size: 48px;\">+</p>","key_press":null,"block":1,"trial_type":"html-keyboard-response","trial_index":321,"time_elapsed":3755822,"internal_node_id":"0.0-13.0-1.67","match_key":"l","participant_id":"21"},{"rt":593.4649999840185,"stimulus":"Images/car_1.png","key_press":76,"stim_onset":1582161174904,"block":1,"match_type":"match","image_category":"car","sound_category":"car","audio_type":"label","phase":"test","trial_type":"image-keyboard-response","trial_index":322,"time_elapsed":3756417,"internal_node_id":"0.0-13.0-2.67","match_key":"l","participant_id":"21","correct":true},{"rt":null,"stimulus":"Sounds/correct.wav","key_press":null,"block":1,"trial_type":"audio-keyboard-response","trial_index":323,"time_elapsed":3758426,"internal_node_id":"0.0-13.0-3.67","match_key":"l","participant_id":"21"},{"rt":null,"stimulus":"Sounds/rooster_label.wav","key_press":null,"block":1,"trial_type":"audio-keyboard-response","trial_index":324,"time_elapsed":3759116,"internal_node_id":"0.0-13.0-0.68","match_key":"l","participant_id":"21"},{"rt":null,"stimulus":"<p style=\"font-size: 48px;\">+</p>","key_press":null,"block":1,"trial_type":"html-keyboard-response","trial_index":325,"time_elapsed":3760105,"internal_node_id":"0.0-13.0-1.68","match_key":"l","participant_id":"21"},{"rt":614.4799999892712,"stimulus":"Images/gun_3.png","key_press":65,"stim_onset":1582161179187,"block":1,"match_type":"non-match","image_category":"gun","sound_category":"rooster","audio_type":"label","phase":"test","trial_type":"image-keyboard-response","trial_index":326,"time_elapsed":3760721,"internal_node_id":"0.0-13.0-2.68","match_key":"l","participant_id":"21","correct":true},{"rt":null,"stimulus":"Sounds/correct.wav","key_press":null,"block":1,"trial_type":"audio-keyboard-response","trial_index":327,"time_elapsed":3762730,"internal_node_id":"0.0-13.0-3.68","match_key":"l","participant_id":"21"},{"rt":null,"stimulus":"Sounds/gun_label.wav","key_press":null,"block":1,"trial_type":"audio-keyboard-response","trial_index":328,"time_elapsed":3763316,"internal_node_id":"0.0-13.0-0.69","match_key":"l","participant_id":"21"},{"rt":null,"stimulus":"<p style=\"font-size: 48px;\">+</p>","key_press":null,"block":1,"trial_type":"html-keyboard-response","trial_index":329,"time_elapsed":3764305,"internal_node_id":"0.0-13.0-1.69","match_key":"l","participant_id":"21"},{"rt":606.1850000112318,"stimulus":"Images/cat_1.png","key_press":65,"stim_onset":1582161183387,"block":1,"match_type":"non-match","image_category":"cat","sound_category":"gun","audio_type":"label","phase":"test","trial_type":"image-keyboard-response","trial_index":330,"time_elapsed":3764912,"internal_node_id":"0.0-13.0-2.69","match_key":"l","participant_id":"21","correct":true},{"rt":null,"stimulus":"Sounds/correct.wav","key_press":null,"block":1,"trial_type":"audio-keyboard-response","trial_index":331,"time_elapsed":3766926,"internal_node_id":"0.0-13.0-3.69","match_key":"l","participant_id":"21"},{"rt":null,"stimulus":"Sounds/dog_label.wav","key_press":null,"block":1,"trial_type":"audio-keyboard-response","trial_index":332,"time_elapsed":3767576,"internal_node_id":"0.0-13.0-0.70","match_key":"l","participant_id":"21"},{"rt":null,"stimulus":"<p style=\"font-size: 48px;\">+</p>","key_press":null,"block":1,"trial_type":"html-keyboard-response","trial_index":333,"time_elapsed":3768572,"internal_node_id":"0.0-13.0-1.70","match_key":"l","participant_id":"21"},{"rt":1107.6499999905936,"stimulus":"Images/dog_3.png","key_press":76,"stim_onset":1582161187654,"block":1,"match_type":"match","image_category":"dog","sound_category":"dog","audio_type":"label","phase":"test","trial_type":"image-keyboard-response","trial_index":334,"time_elapsed":3769681,"internal_node_id":"0.0-13.0-2.70","match_key":"l","participant_id":"21","correct":true},{"rt":null,"stimulus":"Sounds/correct.wav","key_press":null,"block":1,"trial_type":"audio-keyboard-response","trial_index":335,"time_elapsed":3771692,"internal_node_id":"0.0-13.0-3.70","match_key":"l","participant_id":"21"},{"rt":null,"stimulus":"Sounds/train_sound.wav","key_press":null,"block":1,"trial_type":"audio-keyboard-response","trial_index":336,"time_elapsed":3772996,"internal_node_id":"0.0-13.0-0.71","match_key":"l","participant_id":"21"},{"rt":null,"stimulus":"<p style=\"font-size: 48px;\">+</p>","key_press":null,"block":1,"trial_type":"html-keyboard-response","trial_index":337,"time_elapsed":3773989,"internal_node_id":"0.0-13.0-1.71","match_key":"l","participant_id":"21"},{"rt":394.72500002011657,"stimulus":"Images/train_2.png","key_press":76,"stim_onset":1582161193071,"block":1,"match_type":"match","image_category":"train","sound_category":"train","audio_type":"sound","phase":"test","trial_type":"image-keyboard-response","trial_index":338,"time_elapsed":3774385,"internal_node_id":"0.0-13.0-2.71","match_key":"l","participant_id":"21","correct":true},{"rt":null,"stimulus":"Sounds/correct.wav","key_press":null,"block":1,"trial_type":"audio-keyboard-response","trial_index":339,"time_elapsed":3776395,"internal_node_id":"0.0-13.0-3.71","match_key":"l","participant_id":"21"},{"rt":null,"stimulus":"Sounds/dog_sound.wav","key_press":null,"block":1,"trial_type":"audio-keyboard-response","trial_index":340,"time_elapsed":3777096,"internal_node_id":"0.0-13.0-0.72","match_key":"l","participant_id":"21"},{"rt":null,"stimulus":"<p style=\"font-size: 48px;\">+</p>","key_press":null,"block":1,"trial_type":"html-keyboard-response","trial_index":341,"time_elapsed":3778089,"internal_node_id":"0.0-13.0-1.72","match_key":"l","participant_id":"21"},{"rt":870.6000000238419,"stimulus":"Images/dog_cartoon.png","key_press":76,"stim_onset":1582161197171,"block":1,"match_type":"match","image_category":"dog","sound_category":"dog","audio_type":"sound","phase":"test","trial_type":"image-keyboard-response","trial_index":342,"time_elapsed":3778960,"internal_node_id":"0.0-13.0-2.72","match_key":"l","participant_id":"21","correct":true},{"rt":null,"stimulus":"Sounds/correct.wav","key_press":null,"block":1,"trial_type":"audio-keyboard-response","trial_index":343,"time_elapsed":3780979,"internal_node_id":"0.0-13.0-3.72","match_key":"l","participant_id":"21"},{"rt":null,"stimulus":"Sounds/train_label.wav","key_press":null,"block":1,"trial_type":"audio-keyboard-response","trial_index":344,"time_elapsed":3782256,"internal_node_id":"0.0-13.0-0.73","match_key":"l","participant_id":"21"},{"rt":null,"stimulus":"<p style=\"font-size: 48px;\">+</p>","key_press":null,"block":1,"trial_type":"html-keyboard-response","trial_index":345,"time_elapsed":3783255,"internal_node_id":"0.0-13.0-1.73","match_key":"l","participant_id":"21"},{"rt":552.4900000016205,"stimulus":"Images/train_3.png","key_press":76,"stim_onset":1582161202338,"block":1,"match_type":"match","image_category":"train","sound_category":"train","audio_type":"label","phase":"test","trial_type":"image-keyboard-response","trial_index":346,"time_elapsed":3783809,"internal_node_id":"0.0-13.0-2.73","match_key":"l","participant_id":"21","correct":true},{"rt":null,"stimulus":"Sounds/correct.wav","key_press":null,"block":1,"trial_type":"audio-keyboard-response","trial_index":347,"time_elapsed":3785812,"internal_node_id":"0.0-13.0-3.73","match_key":"l","participant_id":"21"},{"rt":null,"stimulus":"Sounds/cat_label.wav","key_press":null,"block":1,"trial_type":"audio-keyboard-response","trial_index":348,"time_elapsed":3786656,"internal_node_id":"0.0-13.0-0.74","match_key":"l","participant_id":"21"},{"rt":null,"stimulus":"<p style=\"font-size: 48px;\">+</p>","key_press":null,"block":1,"trial_type":"html-keyboard-response","trial_index":349,"time_elapsed":3787655,"internal_node_id":"0.0-13.0-1.74","match_key":"l","participant_id":"21"},{"rt":808.4450000026263,"stimulus":"Images/motorcycle_2.png","key_press":65,"stim_onset":1582161206738,"block":1,"match_type":"non-match","image_category":"motorcycle","sound_category":"cat","audio_type":"label","phase":"test","trial_type":"image-keyboard-response","trial_index":350,"time_elapsed":3788464,"internal_node_id":"0.0-13.0-2.74","match_key":"l","participant_id":"21","correct":true},{"rt":null,"stimulus":"Sounds/correct.wav","key_press":null,"block":1,"trial_type":"audio-keyboard-response","trial_index":351,"time_elapsed":3790478,"internal_node_id":"0.0-13.0-3.74","match_key":"l","participant_id":"21"},{"rt":null,"stimulus":"Sounds/rooster_sound.wav","key_press":null,"block":1,"trial_type":"audio-keyboard-response","trial_index":352,"time_elapsed":3791176,"internal_node_id":"0.0-13.0-0.75","match_key":"l","participant_id":"21"},{"rt":null,"stimulus":"<p style=\"font-size: 48px;\">+</p>","key_press":null,"block":1,"trial_type":"html-keyboard-response","trial_index":353,"time_elapsed":3792172,"internal_node_id":"0.0-13.0-1.75","match_key":"l","participant_id":"21"},{"rt":627.3900000085123,"stimulus":"Images/whistle_cartoon.png","key_press":65,"stim_onset":1582161211254,"block":1,"match_type":"non-match","image_category":"whistle","sound_category":"rooster","audio_type":"sound","phase":"test","trial_type":"image-keyboard-response","trial_index":354,"time_elapsed":3792801,"internal_node_id":"0.0-13.0-2.75","match_key":"l","participant_id":"21","correct":true},{"rt":null,"stimulus":"Sounds/correct.wav","key_press":null,"block":1,"trial_type":"audio-keyboard-response","trial_index":355,"time_elapsed":3794808,"internal_node_id":"0.0-13.0-3.75","match_key":"l","participant_id":"21"},{"rt":null,"stimulus":"Sounds/car_label.wav","key_press":null,"block":1,"trial_type":"audio-keyboard-response","trial_index":356,"time_elapsed":3795896,"internal_node_id":"0.0-13.0-0.76","match_key":"l","participant_id":"21"},{"rt":null,"stimulus":"<p style=\"font-size: 48px;\">+</p>","key_press":null,"block":1,"trial_type":"html-keyboard-response","trial_index":357,"time_elapsed":3796889,"internal_node_id":"0.0-13.0-1.76","match_key":"l","participant_id":"21"},{"rt":598.7000000025146,"stimulus":"Images/car_2.png","key_press":76,"stim_onset":1582161215971,"block":1,"match_type":"match","image_category":"car","sound_category":"car","audio_type":"label","phase":"test","trial_type":"image-keyboard-response","trial_index":358,"time_elapsed":3797489,"internal_node_id":"0.0-13.0-2.76","match_key":"l","participant_id":"21","correct":true},{"rt":null,"stimulus":"Sounds/correct.wav","key_press":null,"block":1,"trial_type":"audio-keyboard-response","trial_index":359,"time_elapsed":3799496,"internal_node_id":"0.0-13.0-3.76","match_key":"l","participant_id":"21"},{"rt":null,"stimulus":"Sounds/dog_sound.wav","key_press":null,"block":1,"trial_type":"audio-keyboard-response","trial_index":360,"time_elapsed":3800196,"internal_node_id":"0.0-13.0-0.77","match_key":"l","participant_id":"21"},{"rt":null,"stimulus":"<p style=\"font-size: 48px;\">+</p>","key_press":null,"block":1,"trial_type":"html-keyboard-response","trial_index":361,"time_elapsed":3801189,"internal_node_id":"0.0-13.0-1.77","match_key":"l","participant_id":"21"},{"rt":650.7150000249967,"stimulus":"Images/car_1.png","key_press":65,"stim_onset":1582161220271,"block":1,"match_type":"non-match","image_category":"car","sound_category":"dog","audio_type":"sound","phase":"test","trial_type":"image-keyboard-response","trial_index":362,"time_elapsed":3801840,"internal_node_id":"0.0-13.0-2.77","match_key":"l","participant_id":"21","correct":true},{"rt":null,"stimulus":"Sounds/correct.wav","key_press":null,"block":1,"trial_type":"audio-keyboard-response","trial_index":363,"time_elapsed":3803844,"internal_node_id":"0.0-13.0-3.77","match_key":"l","participant_id":"21"},{"rt":null,"stimulus":"Sounds/train_label.wav","key_press":null,"block":1,"trial_type":"audio-keyboard-response","trial_index":364,"time_elapsed":3805116,"internal_node_id":"0.0-13.0-0.78","match_key":"l","participant_id":"21"},{"rt":null,"stimulus":"<p style=\"font-size: 48px;\">+</p>","key_press":null,"block":1,"trial_type":"html-keyboard-response","trial_index":365,"time_elapsed":3806106,"internal_node_id":"0.0-13.0-1.78","match_key":"l","participant_id":"21