[{"rt":7950.679999979911,"responses":"{\"Q0\":\"20\"}","trial_type":"survey-text","trial_index":0,"time_elapsed":7990,"internal_node_id":"0.0-0.0","match_key":"a","participant_id":"20"},{"rt":69440.64499999513,"stimulus":"<p>Use KEYBOARD 2 (match LEFT)</p><p>Press MATCH to continue.</p>","key_press":65,"trial_type":"html-keyboard-response","trial_index":1,"time_elapsed":77431,"internal_node_id":"0.0-1.0","match_key":"a","participant_id":"20"},{"rt":1866525.500000018,"stimulus":"<p>Welcome to the experiment.</p>","key_press":32,"trial_type":"html-keyboard-response","trial_index":2,"time_elapsed":1944585,"internal_node_id":"0.0-2.0","match_key":"a","participant_id":"20"},{"rt":25457.01499999268,"stimulus":"<p>Thank you for agreeing to participate in this study.</p><p>If during any part of the procedure you must stop for any reason, please inform the researcher that you do not wish to continue.</p>","key_press":32,"trial_type":"html-keyboard-response","trial_index":3,"time_elapsed":1970048,"internal_node_id":"0.0-3.0","match_key":"a","participant_id":"20"},{"rt":31119.169999990845,"stimulus":"<p>In this experiment, you will hear various words or sounds and see pictures of various animals and objects.</p><p>Most of the images will be of common everyday objects, such as cars, cats, cows, firearms, frogs, chickens, whistles, trains, motorcycles, and dogs.</p><p>Some of the images will be real-life stills, while others will be cartoons.</p>","key_press":32,"trial_type":"html-keyboard-response","trial_index":4,"time_elapsed":2001169,"internal_node_id":"0.0-4.0","match_key":"a","participant_id":"20"},{"rt":14198.105000017677,"stimulus":"<p>Sometimes, the word/sound will match the picture, for example you'll hear a meowing sound and see a cat.</p><p>Other times, the picture will not match the sound or word.</p><p>Your task is to decide as quickly as possible if the word/sound matches the picture or not. </p>","key_press":32,"trial_type":"html-keyboard-response","trial_index":5,"time_elapsed":2015375,"internal_node_id":"0.0-5.0","match_key":"a","participant_id":"20"},{"rt":24558.774999983143,"stimulus":"<p>For example, if you hear the word \"cat\" or hear a meowing sound, and then see a picture of a cat, you should press the MATCH key.</p><p> If the sound and image do not match, press the NOT-MATCH key to indicate that there is not a match.</p>","key_press":32,"trial_type":"html-keyboard-response","trial_index":6,"time_elapsed":2039935,"internal_node_id":"0.0-6.0","match_key":"a","participant_id":"20"},{"rt":18855.470000009518,"stimulus":"<p>If you make a mistake, you will hear a buzzing sound instead of a more pleasant sound.</p><p> Try to respond as quickly as possible, while making as few errors as possible. If you are making mistakes, you are probably rushing.</p>","key_press":32,"trial_type":"html-keyboard-response","trial_index":7,"time_elapsed":2058792,"internal_node_id":"0.0-7.0","match_key":"a","participant_id":"20"},{"rt":10758.340000000317,"stimulus":"<p>Please try to not move or blink your eyes during the presentation of the images. You can move and blink between images.</p><p>During the experiment there will be some breaks during which you can rest your eyes.</p>","key_press":32,"trial_type":"html-keyboard-response","trial_index":8,"time_elapsed":2069540,"internal_node_id":"0.0-8.0","match_key":"a","participant_id":"20"},{"rt":8862.59499998414,"stimulus":"<p>We will begin with 10 practice trials. Please let the experimenter know if you have any questions.</p>","key_press":32,"trial_type":"html-keyboard-response","trial_index":9,"time_elapsed":2078404,"internal_node_id":"0.0-9.0","match_key":"a","participant_id":"20"},{"rt":null,"stimulus":"Sounds/train_label.wav","key_press":null,"block":0,"trial_type":"audio-keyboard-response","trial_index":10,"time_elapsed":2079766,"internal_node_id":"0.0-10.0-0.0","match_key":"a","participant_id":"20"},{"rt":null,"stimulus":"<p style=\"font-size: 48px;\">+</p>","key_press":null,"block":0,"trial_type":"html-keyboard-response","trial_index":11,"time_elapsed":2080771,"internal_node_id":"0.0-10.0-1.0","match_key":"a","participant_id":"20"},{"rt":3998.439999995753,"stimulus":"Images/motorcycle_cartoon.png","key_press":76,"stim_onset":1582144998394,"block":0,"match_type":"non-match","image_category":"motorcycle","sound_category":"train","audio_type":"label","phase":"practice","trial_type":"image-keyboard-response","trial_index":12,"time_elapsed":2084772,"internal_node_id":"0.0-10.0-2.0","match_key":"a","participant_id":"20","correct":true},{"rt":null,"stimulus":"Sounds/correct.wav","key_press":null,"block":0,"trial_type":"audio-keyboard-response","trial_index":13,"time_elapsed":2086781,"internal_node_id":"0.0-10.0-3.0","match_key":"a","participant_id":"20"},{"rt":null,"stimulus":"Sounds/cat_label.wav","key_press":null,"block":0,"trial_type":"audio-keyboard-response","trial_index":14,"time_elapsed":2087625,"internal_node_id":"0.0-10.0-0.1","match_key":"a","participant_id":"20"},{"rt":null,"stimulus":"<p style=\"font-size: 48px;\">+</p>","key_press":null,"block":0,"trial_type":"html-keyboard-response","trial_index":15,"time_elapsed":2088621,"internal_node_id":"0.0-10.0-1.1","match_key":"a","participant_id":"20"},{"rt":908.915000007255,"stimulus":"Images/whistle_2.png","key_press":76,"stim_onset":1582145006243,"block":0,"match_type":"non-match","image_category":"whistle","sound_category":"cat","audio_type":"label","phase":"practice","trial_type":"image-keyboard-response","trial_index":16,"time_elapsed":2089531,"internal_node_id":"0.0-10.0-2.1","match_key":"a","participant_id":"20","correct":true},{"rt":null,"stimulus":"Sounds/correct.wav","key_press":null,"block":0,"trial_type":"audio-keyboard-response","trial_index":17,"time_elapsed":2091541,"internal_node_id":"0.0-10.0-3.1","match_key":"a","participant_id":"20"},{"rt":null,"stimulus":"Sounds/frog_label.wav","key_press":null,"block":0,"trial_type":"audio-keyboard-response","trial_index":18,"time_elapsed":2092445,"internal_node_id":"0.0-10.0-0.2","match_key":"a","participant_id":"20"},{"rt":null,"stimulus":"<p style=\"font-size: 48px;\">+</p>","key_press":null,"block":0,"trial_type":"html-keyboard-response","trial_index":19,"time_elapsed":2093438,"internal_node_id":"0.0-10.0-1.2","match_key":"a","participant_id":"20"},{"rt":732.4899999948684,"stimulus":"Images/frog_1.png","key_press":65,"stim_onset":1582145011060,"block":0,"match_type":"match","image_category":"frog","sound_category":"frog","audio_type":"label","phase":"practice","trial_type":"image-keyboard-response","trial_index":20,"time_elapsed":2094172,"internal_node_id":"0.0-10.0-2.2","match_key":"a","participant_id":"20","correct":true},{"rt":null,"stimulus":"Sounds/correct.wav","key_press":null,"block":0,"trial_type":"audio-keyboard-response","trial_index":21,"time_elapsed":2096177,"internal_node_id":"0.0-10.0-3.2","match_key":"a","participant_id":"20"},{"rt":null,"stimulus":"Sounds/motorcycle_label.wav","key_press":null,"block":0,"trial_type":"audio-keyboard-response","trial_index":22,"time_elapsed":2097305,"internal_node_id":"0.0-10.0-0.3","match_key":"a","participant_id":"20"},{"rt":null,"stimulus":"<p style=\"font-size: 48px;\">+</p>","key_press":null,"block":0,"trial_type":"html-keyboard-response","trial_index":23,"time_elapsed":2098305,"internal_node_id":"0.0-10.0-1.3","match_key":"a","participant_id":"20"},{"rt":881.180000025779,"stimulus":"Images/motorcycle_1.png","key_press":65,"stim_onset":1582145015927,"block":0,"match_type":"match","image_category":"motorcycle","sound_category":"motorcycle","audio_type":"label","phase":"practice","trial_type":"image-keyboard-response","trial_index":24,"time_elapsed":2099187,"internal_node_id":"0.0-10.0-2.3","match_key":"a","participant_id":"20","correct":true},{"rt":null,"stimulus":"Sounds/correct.wav","key_press":null,"block":0,"trial_type":"audio-keyboard-response","trial_index":25,"time_elapsed":2101195,"internal_node_id":"0.0-10.0-3.3","match_key":"a","participant_id":"20"},{"rt":null,"stimulus":"Sounds/dog_label.wav","key_press":null,"block":0,"trial_type":"audio-keyboard-response","trial_index":26,"time_elapsed":2101846,"internal_node_id":"0.0-10.0-0.4","match_key":"a","participant_id":"20"},{"rt":null,"stimulus":"<p style=\"font-size: 48px;\">+</p>","key_press":null,"block":0,"trial_type":"html-keyboard-response","trial_index":27,"time_elapsed":2102838,"internal_node_id":"0.0-10.0-1.4","match_key":"a","participant_id":"20"},{"rt":388.0950000016019,"stimulus":"Images/dog_cartoon.png","key_press":65,"stim_onset":1582145020460,"block":0,"match_type":"match","image_category":"dog","sound_category":"dog","audio_type":"label","phase":"practice","trial_type":"image-keyboard-response","trial_index":28,"time_elapsed":2103227,"internal_node_id":"0.0-10.0-2.4","match_key":"a","participant_id":"20","correct":true},{"rt":null,"stimulus":"Sounds/correct.wav","key_press":null,"block":0,"trial_type":"audio-keyboard-response","trial_index":29,"time_elapsed":2105242,"internal_node_id":"0.0-10.0-3.4","match_key":"a","participant_id":"20"},{"rt":null,"stimulus":"Sounds/rooster_label.wav","key_press":null,"block":0,"trial_type":"audio-keyboard-response","trial_index":30,"time_elapsed":2105945,"internal_node_id":"0.0-10.0-0.5","match_key":"a","participant_id":"20"},{"rt":null,"stimulus":"<p style=\"font-size: 48px;\">+</p>","key_press":null,"block":0,"trial_type":"html-keyboard-response","trial_index":31,"time_elapsed":2106938,"internal_node_id":"0.0-10.0-1.5","match_key":"a","participant_id":"20"},{"rt":376.0099999778904,"stimulus":"Images/rooster_2.png","key_press":65,"stim_onset":1582145024560,"block":0,"match_type":"match","image_category":"rooster","sound_category":"rooster","audio_type":"label","phase":"practice","trial_type":"image-keyboard-response","trial_index":32,"time_elapsed":2107315,"internal_node_id":"0.0-10.0-2.5","match_key":"a","participant_id":"20","correct":true},{"rt":null,"stimulus":"Sounds/correct.wav","key_press":null,"block":0,"trial_type":"audio-keyboard-response","trial_index":33,"time_elapsed":2109328,"internal_node_id":"0.0-10.0-3.5","match_key":"a","participant_id":"20"},{"rt":null,"stimulus":"Sounds/frog_sound.wav","key_press":null,"block":0,"trial_type":"audio-keyboard-response","trial_index":34,"time_elapsed":2110245,"internal_node_id":"0.0-10.0-0.6","match_key":"a","participant_id":"20"},{"rt":null,"stimulus":"<p style=\"font-size: 48px;\">+</p>","key_press":null,"block":0,"trial_type":"html-keyboard-response","trial_index":35,"time_elapsed":2111238,"internal_node_id":"0.0-10.0-1.6","match_key":"a","participant_id":"20"},{"rt":636.180000001099,"stimulus":"Images/rooster_1.png","key_press":76,"stim_onset":1582145028860,"block":0,"match_type":"non-match","image_category":"rooster","sound_category":"frog","audio_type":"sound","phase":"practice","trial_type":"image-keyboard-response","trial_index":36,"time_elapsed":2111876,"internal_node_id":"0.0-10.0-2.6","match_key":"a","participant_id":"20","correct":true},{"rt":null,"stimulus":"Sounds/correct.wav","key_press":null,"block":0,"trial_type":"audio-keyboard-response","trial_index":37,"time_elapsed":2113892,"internal_node_id":"0.0-10.0-3.6","match_key":"a","participant_id":"20"},{"rt":null,"stimulus":"Sounds/whistle_sound.wav","key_press":null,"block":0,"trial_type":"audio-keyboard-response","trial_index":38,"time_elapsed":2114585,"internal_node_id":"0.0-10.0-0.7","match_key":"a","participant_id":"20"},{"rt":null,"stimulus":"<p style=\"font-size: 48px;\">+</p>","key_press":null,"block":0,"trial_type":"html-keyboard-response","trial_index":39,"time_elapsed":2115588,"internal_node_id":"0.0-10.0-1.7","match_key":"a","participant_id":"20"},{"rt":454.2699999874458,"stimulus":"Images/whistle_orig.png","key_press":65,"stim_onset":1582145033210,"block":0,"match_type":"match","image_category":"whistle","sound_category":"whistle","audio_type":"sound","phase":"practice","trial_type":"image-keyboard-response","trial_index":40,"time_elapsed":2116043,"internal_node_id":"0.0-10.0-2.7","match_key":"a","participant_id":"20","correct":true},{"rt":null,"stimulus":"Sounds/correct.wav","key_press":null,"block":0,"trial_type":"audio-keyboard-response","trial_index":41,"time_elapsed":2118059,"internal_node_id":"0.0-10.0-3.7","match_key":"a","participant_id":"20"},{"rt":null,"stimulus":"Sounds/gun_sound.wav","key_press":null,"block":0,"trial_type":"audio-keyboard-response","trial_index":42,"time_elapsed":2118645,"internal_node_id":"0.0-10.0-0.8","match_key":"a","participant_id":"20"},{"rt":null,"stimulus":"<p style=\"font-size: 48px;\">+</p>","key_press":null,"block":0,"trial_type":"html-keyboard-response","trial_index":43,"time_elapsed":2119638,"internal_node_id":"0.0-10.0-1.8","match_key":"a","participant_id":"20"},{"rt":1075.925000011921,"stimulus":"Images/whistle_3.png","key_press":76,"stim_onset":1582145037260,"block":0,"match_type":"non-match","image_category":"whistle","sound_category":"gun","audio_type":"sound","phase":"practice","trial_type":"image-keyboard-response","trial_index":44,"time_elapsed":2120715,"internal_node_id":"0.0-10.0-2.8","match_key":"a","participant_id":"20","correct":true},{"rt":null,"stimulus":"Sounds/correct.wav","key_press":null,"block":0,"trial_type":"audio-keyboard-response","trial_index":45,"time_elapsed":2122724,"internal_node_id":"0.0-10.0-3.8","match_key":"a","participant_id":"20"},{"rt":null,"stimulus":"Sounds/motorcycle_sound.wav","key_press":null,"block":0,"trial_type":"audio-keyboard-response","trial_index":46,"time_elapsed":2123845,"internal_node_id":"0.0-10.0-0.9","match_key":"a","participant_id":"20"},{"rt":null,"stimulus":"<p style=\"font-size: 48px;\">+</p>","key_press":null,"block":0,"trial_type":"html-keyboard-response","trial_index":47,"time_elapsed":2124838,"internal_node_id":"0.0-10.0-1.9","match_key":"a","participant_id":"20"},{"rt":436.2949999924749,"stimulus":"Images/motorcycle_cartoon.png","key_press":65,"stim_onset":1582145042460,"block":0,"match_type":"match","image_category":"motorcycle","sound_category":"motorcycle","audio_type":"sound","phase":"practice","trial_type":"image-keyboard-response","trial_index":48,"time_elapsed":2125276,"internal_node_id":"0.0-10.0-2.9","match_key":"a","participant_id":"20","correct":true},{"rt":null,"stimulus":"Sounds/correct.wav","key_press":null,"block":0,"trial_type":"audio-keyboard-response","trial_index":49,"time_elapsed":2127293,"internal_node_id":"0.0-10.0-3.9","match_key":"a","participant_id":"20"},{"rt":42462.27999997791,"stimulus":"<p>The rest of the experiment is divided into five blocks with 100 trials in each block. It will take about 45 minutes to complete.</p><p>The experimenter will be in the outer room and you can communicate with them through the monitor if you have any questions or wish to stop the experiment.</p>","key_press":32,"trial_type":"html-keyboard-response","trial_index":50,"time_elapsed":2169763,"internal_node_id":"0.0-11.0","match_key":"a","participant_id":"20"},{"rt":40366.37999999197,"stimulus":"<p>Remember, please try not to move or blink your eyes during the presentation of the images. </p><p>At the end of the experiment, we will show you your scores on the task so you can see how you did.</p><p>The experiment will start on the next screen.</p>","key_press":32,"trial_type":"html-keyboard-response","trial_index":51,"time_elapsed":2210127,"internal_node_id":"0.0-12.0","match_key":"a","participant_id":"20"},{"rt":null,"stimulus":"Sounds/gun_sound.wav","key_press":null,"block":1,"trial_type":"audio-keyboard-response","trial_index":52,"time_elapsed":2212728,"internal_node_id":"0.0-13.0-0.0","match_key":"a","participant_id":"20"},{"rt":null,"stimulus":"<p style=\"font-size: 48px;\">+</p>","key_press":null,"block":1,"trial_type":"html-keyboard-response","trial_index":53,"time_elapsed":2213725,"internal_node_id":"0.0-13.0-1.0","match_key":"a","participant_id":"20"},{"rt":543.6650000046939,"stimulus":"Images/car_3.png","key_press":76,"stim_onset":1582145131348,"block":1,"match_type":"non-match","image_category":"car","sound_category":"gun","audio_type":"sound","phase":"test","trial_type":"image-keyboard-response","trial_index":54,"time_elapsed":2214270,"internal_node_id":"0.0-13.0-2.0","match_key":"a","participant_id":"20","correct":true},{"rt":null,"stimulus":"Sounds/correct.wav","key_press":null,"block":1,"trial_type":"audio-keyboard-response","trial_index":55,"time_elapsed":2216278,"internal_node_id":"0.0-13.0-3.0","match_key":"a","participant_id":"20"},{"rt":null,"stimulus":"Sounds/dog_sound.wav","key_press":null,"block":1,"trial_type":"audio-keyboard-response","trial_index":56,"time_elapsed":2216990,"internal_node_id":"0.0-13.0-0.1","match_key":"a","participant_id":"20"},{"rt":null,"stimulus":"<p style=\"font-size: 48px;\">+</p>","key_press":null,"block":1,"trial_type":"html-keyboard-response","trial_index":57,"time_elapsed":2217992,"internal_node_id":"0.0-13.0-1.1","match_key":"a","participant_id":"20"},{"rt":500.9650000138208,"stimulus":"Images/dog_2.png","key_press":65,"stim_onset":1582145135614,"block":1,"match_type":"match","image_category":"dog","sound_category":"dog","audio_type":"sound","phase":"test","trial_type":"image-keyboard-response","trial_index":58,"time_elapsed":2218494,"internal_node_id":"0.0-13.0-2.1","match_key":"a","participant_id":"20","correct":true},{"rt":null,"stimulus":"Sounds/correct.wav","key_press":null,"block":1,"trial_type":"audio-keyboard-response","trial_index":59,"time_elapsed":2220499,"internal_node_id":"0.0-13.0-3.1","match_key":"a","participant_id":"20"},{"rt":null,"stimulus":"Sounds/rooster_label.wav","key_press":null,"block":1,"trial_type":"audio-keyboard-response","trial_index":60,"time_elapsed":2221188,"internal_node_id":"0.0-13.0-0.2","match_key":"a","participant_id":"20"},{"rt":null,"stimulus":"<p style=\"font-size: 48px;\">+</p>","key_press":null,"block":1,"trial_type":"html-keyboard-response","trial_index":61,"time_elapsed":2222192,"internal_node_id":"0.0-13.0-1.2","match_key":"a","participant_id":"20"},{"rt":276.94999999925494,"stimulus":"Images/rooster_3.png","key_press":65,"stim_onset":1582145139814,"block":1,"match_type":"match","image_category":"rooster","sound_category":"rooster","audio_type":"label","phase":"test","trial_type":"image-keyboard-response","trial_index":62,"time_elapsed":2222470,"internal_node_id":"0.0-13.0-2.2","match_key":"a","participant_id":"20","correct":true},{"rt":null,"stimulus":"Sounds/correct.wav","key_press":null,"block":1,"trial_type":"audio-keyboard-response","trial_index":63,"time_elapsed":2224478,"internal_node_id":"0.0-13.0-3.2","match_key":"a","participant_id":"20"},{"rt":null,"stimulus":"Sounds/cow_sound.wav","key_press":null,"block":1,"trial_type":"audio-keyboard-response","trial_index":64,"time_elapsed":2225488,"internal_node_id":"0.0-13.0-0.3","match_key":"a","participant_id":"20"},{"rt":null,"stimulus":"<p style=\"font-size: 48px;\">+</p>","key_press":null,"block":1,"trial_type":"html-keyboard-response","trial_index":65,"time_elapsed":2226492,"internal_node_id":"0.0-13.0-1.3","match_key":"a","participant_id":"20"},{"rt":464.76000000257045,"stimulus":"Images/cow_orig.png","key_press":76,"stim_onset":1582145144114,"block":1,"match_type":"match","image_category":"cow","sound_category":"cow","audio_type":"sound","phase":"test","trial_type":"image-keyboard-response","trial_index":66,"time_elapsed":2226958,"internal_node_id":"0.0-13.0-2.3","match_key":"a","participant_id":"20","correct":false},{"rt":null,"stimulus":"Sounds/incorrect.wav","key_press":null,"block":1,"trial_type":"audio-keyboard-response","trial_index":67,"time_elapsed":2228966,"internal_node_id":"0.0-13.0-3.3","match_key":"a","participant_id":"20"},{"rt":null,"stimulus":"Sounds/car_sound.wav","key_press":null,"block":1,"trial_type":"audio-keyboard-response","trial_index":68,"time_elapsed":2230048,"internal_node_id":"0.0-13.0-0.4","match_key":"a","participant_id":"20"},{"rt":null,"stimulus":"<p style=\"font-size: 48px;\">+</p>","key_press":null,"block":1,"trial_type":"html-keyboard-response","trial_index":69,"time_elapsed":2231059,"internal_node_id":"0.0-13.0-1.4","match_key":"a","participant_id":"20"},{"rt":610.0449999794364,"stimulus":"Images/cat_orig.png","key_press":76,"stim_onset":1582145148681,"block":1,"match_type":"non-match","image_category":"cat","sound_category":"car","audio_type":"sound","phase":"test","trial_type":"image-keyboard-response","trial_index":70,"time_elapsed":2231670,"internal_node_id":"0.0-13.0-2.4","match_key":"a","participant_id":"20","correct":true},{"rt":null,"stimulus":"Sounds/correct.wav","key_press":null,"block":1,"trial_type":"audio-keyboard-response","trial_index":71,"time_elapsed":2233679,"internal_node_id":"0.0-13.0-3.4","match_key":"a","participant_id":"20"},{"rt":null,"stimulus":"Sounds/rooster_sound.wav","key_press":null,"block":1,"trial_type":"audio-keyboard-response","trial_index":72,"time_elapsed":2234368,"internal_node_id":"0.0-13.0-0.5","match_key":"a","participant_id":"20"},{"rt":null,"stimulus":"<p style=\"font-size: 48px;\">+</p>","key_press":null,"block":1,"trial_type":"html-keyboard-response","trial_index":73,"time_elapsed":2235359,"internal_node_id":"0.0-13.0-1.5","match_key":"a","participant_id":"20"},{"rt":462.3549999957904,"stimulus":"Images/rooster_1.png","key_press":65,"stim_onset":1582145152981,"block":1,"match_type":"match","image_category":"rooster","sound_category":"rooster","audio_type":"sound","phase":"test","trial_type":"image-keyboard-response","trial_index":74,"time_elapsed":2235822,"internal_node_id":"0.0-13.0-2.5","match_key":"a","participant_id":"20","correct":true},{"rt":null,"stimulus":"Sounds/correct.wav","key_press":null,"block":1,"trial_type":"audio-keyboard-response","trial_index":75,"time_elapsed":2237833,"internal_node_id":"0.0-13.0-3.5","match_key":"a","participant_id":"20"},{"rt":null,"stimulus":"Sounds/gun_label.wav","key_press":null,"block":1,"trial_type":"audio-keyboard-response","trial_index":76,"time_elapsed":2238408,"internal_node_id":"0.0-13.0-0.6","match_key":"a","participant_id":"20"},{"rt":null,"stimulus":"<p style=\"font-size: 48px;\">+</p>","key_press":null,"block":1,"trial_type":"html-keyboard-response","trial_index":77,"time_elapsed":2239426,"internal_node_id":"0.0-13.0-1.6","match_key":"a","participant_id":"20"},{"rt":523.4000000054948,"stimulus":"Images/cow_3.png","key_press":76,"stim_onset":1582145157048,"block":1,"match_type":"non-match","image_category":"cow","sound_category":"gun","audio_type":"label","phase":"test","trial_type":"image-keyboard-response","trial_index":78,"time_elapsed":2239950,"internal_node_id":"0.0-13.0-2.6","match_key":"a","participant_id":"20","correct":true},{"rt":null,"stimulus":"Sounds/correct.wav","key_press":null,"block":1,"trial_type":"audio-keyboard-response","trial_index":79,"time_elapsed":2241963,"internal_node_id":"0.0-13.0-3.6","match_key":"a","participant_id":"20"},{"rt":null,"stimulus":"Sounds/whistle_label.wav","key_press":null,"block":1,"trial_type":"audio-keyboard-response","trial_index":80,"time_elapsed":2242668,"internal_node_id":"0.0-13.0-0.7","match_key":"a","participant_id":"20"},{"rt":null,"stimulus":"<p style=\"font-size: 48px;\">+</p>","key_press":null,"block":1,"trial_type":"html-keyboard-response","trial_index":81,"time_elapsed":2243659,"internal_node_id":"0.0-13.0-1.7","match_key":"a","participant_id":"20"},{"rt":513.9550000019372,"stimulus":"Images/cat_3.png","key_press":76,"stim_onset":1582145161281,"block":1,"match_type":"non-match","image_category":"cat","sound_category":"whistle","audio_type":"label","phase":"test","trial_type":"image-keyboard-response","trial_index":82,"time_elapsed":2244174,"internal_node_id":"0.0-13.0-2.7","match_key":"a","participant_id":"20","correct":true},{"rt":null,"stimulus":"Sounds/correct.wav","key_press":null,"block":1,"trial_type":"audio-keyboard-response","trial_index":83,"time_elapsed":2246182,"internal_node_id":"0.0-13.0-3.7","match_key":"a","participant_id":"20"},{"rt":null,"stimulus":"Sounds/frog_label.wav","key_press":null,"block":1,"trial_type":"audio-keyboard-response","trial_index":84,"time_elapsed":2247088,"internal_node_id":"0.0-13.0-0.8","match_key":"a","participant_id":"20"},{"rt":null,"stimulus":"<p style=\"font-size: 48px;\">+</p>","key_press":null,"block":1,"trial_type":"html-keyboard-response","trial_index":85,"time_elapsed":2248093,"internal_node_id":"0.0-13.0-1.8","match_key":"a","participant_id":"20"},{"rt":472.7499999864958,"stimulus":"Images/cat_cartoon.png","key_press":76,"stim_onset":1582145165715,"block":1,"match_type":"non-match","image_category":"cat","sound_category":"frog","audio_type":"label","phase":"test","trial_type":"image-keyboard-response","trial_index":86,"time_elapsed":2248566,"internal_node_id":"0.0-13.0-2.8","match_key":"a","participant_id":"20","correct":true},{"rt":null,"stimulus":"Sounds/correct.wav","key_press":null,"block":1,"trial_type":"audio-keyboard-response","trial_index":87,"time_elapsed":2250580,"internal_node_id":"0.0-13.0-3.8","match_key":"a","participant_id":"20"},{"rt":null,"stimulus":"Sounds/gun_sound.wav","key_press":null,"block":1,"trial_type":"audio-keyboard-response","trial_index":88,"time_elapsed":2251168,"internal_node_id":"0.0-13.0-0.9","match_key":"a","participant_id":"20"},{"rt":null,"stimulus":"<p style=\"font-size: 48px;\">+</p>","key_press":null,"block":1,"trial_type":"html-keyboard-response","trial_index":89,"time_elapsed":2252159,"internal_node_id":"0.0-13.0-1.9","match_key":"a","participant_id":"20"},{"rt":750.0350000048056,"stimulus":"Images/train_orig.png","key_press":76,"stim_onset":1582145169781,"block":1,"match_type":"non-match","image_category":"train","sound_category":"gun","audio_type":"sound","phase":"test","trial_type":"image-keyboard-response","trial_index":90,"time_elapsed":2252910,"internal_node_id":"0.0-13.0-2.9","match_key":"a","participant_id":"20","correct":true},{"rt":null,"stimulus":"Sounds/correct.wav","key_press":null,"block":1,"trial_type":"audio-keyboard-response","trial_index":91,"time_elapsed":2254915,"internal_node_id":"0.0-13.0-3.9","match_key":"a","participant_id":"20"},{"rt":null,"stimulus":"Sounds/dog_label.wav","key_press":null,"block":1,"trial_type":"audio-keyboard-response","trial_index":92,"time_elapsed":2255568,"internal_node_id":"0.0-13.0-0.10","match_key":"a","participant_id":"20"},{"rt":null,"stimulus":"<p style=\"font-size: 48px;\">+</p>","key_press":null,"block":1,"trial_type":"html-keyboard-response","trial_index":93,"time_elapsed":2256559,"internal_node_id":"0.0-13.0-1.10","match_key":"a","participant_id":"20"},{"rt":461.1299999812618,"stimulus":"Images/motorcycle_1.png","key_press":76,"stim_onset":1582145174181,"block":1,"match_type":"non-match","image_category":"motorcycle","sound_category":"dog","audio_type":"label","phase":"test","trial_type":"image-keyboard-response","trial_index":94,"time_elapsed":2257022,"internal_node_id":"0.0-13.0-2.10","match_key":"a","participant_id":"20","correct":true},{"rt":null,"stimulus":"Sounds/correct.wav","key_press":null,"block":1,"trial_type":"audio-keyboard-response","trial_index":95,"time_elapsed":2259031,"internal_node_id":"0.0-13.0-3.10","match_key":"a","participant_id":"20"},{"rt":null,"stimulus":"Sounds/rooster_label.wav","key_press":null,"block":1,"trial_type":"audio-keyboard-response","trial_index":96,"time_elapsed":2259728,"internal_node_id":"0.0-13.0-0.11","match_key":"a","participant_id":"20"},{"rt":null,"stimulus":"<p style=\"font-size: 48px;\">+</p>","key_press":null,"block":1,"trial_type":"html-keyboard-response","trial_index":97,"time_elapsed":2260726,"internal_node_id":"0.0-13.0-1.11","match_key":"a","participant_id":"20"},{"rt":639.3350000148639,"stimulus":"Images/rooster_cartoon.png","key_press":65,"stim_onset":1582145178348,"block":1,"match_type":"match","image_category":"rooster","sound_category":"rooster","audio_type":"label","phase":"test","trial_type":"image-keyboard-response","trial_index":98,"time_elapsed":2261366,"internal_node_id":"0.0-13.0-2.11","match_key":"a","participant_id":"20","correct":true},{"rt":null,"stimulus":"Sounds/correct.wav","key_press":null,"block":1,"trial_type":"audio-keyboard-response","trial_index":99,"time_elapsed":2263379,"internal_node_id":"0.0-13.0-3.11","match_key":"a","participant_id":"20"},{"rt":null,"stimulus":"Sounds/dog_label.wav","key_press":null,"block":1,"trial_type":"audio-keyboard-response","trial_index":100,"time_elapsed":2264008,"internal_node_id":"0.0-13.0-0.12","match_key":"a","participant_id":"20"},{"rt":null,"stimulus":"<p style=\"font-size: 48px;\">+</p>","key_press":null,"block":1,"trial_type":"html-keyboard-response","trial_index":101,"time_elapsed":2265026,"internal_node_id":"0.0-13.0-1.12","match_key":"a","participant_id":"20"},{"rt":347.19500000961125,"stimulus":"Images/dog_cartoon.png","key_press":65,"stim_onset":1582145182648,"block":1,"match_type":"match","image_category":"dog","sound_category":"dog","audio_type":"label","phase":"test","trial_type":"image-keyboard-response","trial_index":102,"time_elapsed":2265374,"internal_node_id":"0.0-13.0-2.12","match_key":"a","participant_id":"20","correct":true},{"rt":null,"stimulus":"Sounds/correct.wav","key_press":null,"block":1,"trial_type":"audio-keyboard-response","trial_index":103,"time_elapsed":2267381,"internal_node_id":"0.0-13.0-3.12","match_key":"a","participant_id":"20"},{"rt":null,"stimulus":"Sounds/gun_label.wav","key_press":null,"block":1,"trial_type":"audio-keyboard-response","trial_index":104,"time_elapsed":2267968,"internal_node_id":"0.0-13.0-0.13","match_key":"a","participant_id":"20"},{"rt":null,"stimulus":"<p style=\"font-size: 48px;\">+</p>","key_press":null,"block":1,"trial_type":"html-keyboard-response","trial_index":105,"time_elapsed":2268959,"internal_node_id":"0.0-13.0-1.13","match_key":"a","participant_id":"20"},{"rt":469.64999998454005,"stimulus":"Images/gun_3.png","key_press":65,"stim_onset":1582145186581,"block":1,"match_type":"match","image_category":"gun","sound_category":"gun","audio_type":"label","phase":"test","trial_type":"image-keyboard-response","trial_index":106,"time_elapsed":2269430,"internal_node_id":"0.0-13.0-2.13","match_key":"a","participant_id":"20","correct":true},{"rt":null,"stimulus":"Sounds/correct.wav","key_press":null,"block":1,"trial_type":"audio-keyboard-response","trial_index":107,"time_elapsed":2271446,"internal_node_id":"0.0-13.0-3.13","match_key":"a","participant_id":"20"},{"rt":null,"stimulus":"Sounds/train_sound.wav","key_press":null,"block":1,"trial_type":"audio-keyboard-response","trial_index":108,"time_elapsed":2272748,"internal_node_id":"0.0-13.0-0.14","match_key":"a","participant_id":"20"},{"rt":null,"stimulus":"<p style=\"font-size: 48px;\">+</p>","key_press":null,"block":1,"trial_type":"html-keyboard-response","trial_index":109,"time_elapsed":2273742,"internal_node_id":"0.0-13.0-1.14","match_key":"a","participant_id":"20"},{"rt":614.800000010524,"stimulus":"Images/rooster_3.png","key_press":76,"stim_onset":1582145191365,"block":1,"match_type":"non-match","image_category":"rooster","sound_category":"train","audio_type":"sound","phase":"test","trial_type":"image-keyboard-response","trial_index":110,"time_elapsed":2274358,"internal_node_id":"0.0-13.0-2.14","match_key":"a","participant_id":"20","correct":true},{"rt":null,"stimulus":"Sounds/correct.wav","key_press":null,"block":1,"trial_type":"audio-keyboard-response","trial_index":111,"time_elapsed":2276365,"internal_node_id":"0.0-13.0-3.14","match_key":"a","participant_id":"20"},{"rt":null,"stimulus":"Sounds/whistle_label.wav","key_press":null,"block":1,"trial_type":"audio-keyboard-response","trial_index":112,"time_elapsed":2277068,"internal_node_id":"0.0-13.0-0.15","match_key":"a","participant_id":"20"},{"rt":null,"stimulus":"<p style=\"font-size: 48px;\">+</p>","key_press":null,"block":1,"trial_type":"html-keyboard-response","trial_index":113,"time_elapsed":2278059,"internal_node_id":"0.0-13.0-1.15","match_key":"a","participant_id":"20"},{"rt":433.79500001855195,"stimulus":"Images/whistle_orig.png","key_press":65,"stim_onset":1582145195681,"block":1,"match_type":"match","image_category":"whistle","sound_category":"whistle","audio_type":"label","phase":"test","trial_type":"image-keyboard-response","trial_index":114,"time_elapsed":2278494,"internal_node_id":"0.0-13.0-2.15","match_key":"a","participant_id":"20","correct":true},{"rt":null,"stimulus":"Sounds/correct.wav","key_press":null,"block":1,"trial_type":"audio-keyboard-response","trial_index":115,"time_elapsed":2280498,"internal_node_id":"0.0-13.0-3.15","match_key":"a","participant_id":"20"},{"rt":null,"stimulus":"Sounds/motorcycle_sound.wav","key_press":null,"block":1,"trial_type":"audio-keyboard-response","trial_index":116,"time_elapsed":2281608,"internal_node_id":"0.0-13.0-0.16","match_key":"a","participant_id":"20"},{"rt":null,"stimulus":"<p style=\"font-size: 48px;\">+</p>","key_press":null,"block":1,"trial_type":"html-keyboard-response","trial_index":117,"time_elapsed":2282626,"internal_node_id":"0.0-13.0-1.16","match_key":"a","participant_id":"20"},{"rt":506.9149999762885,"stimulus":"Images/cat_1.png","key_press":76,"stim_onset":1582145200248,"block":1,"match_type":"non-match","image_category":"cat","sound_category":"motorcycle","audio_type":"sound","phase":"test","trial_type":"image-keyboard-response","trial_index":118,"time_elapsed":2283134,"internal_node_id":"0.0-13.0-2.16","match_key":"a","participant_id":"20","correct":true},{"rt":null,"stimulus":"Sounds/correct.wav","key_press":null,"block":1,"trial_type":"audio-keyboard-response","trial_index":119,"time_elapsed":2285147,"internal_node_id":"0.0-13.0-3.16","match_key":"a","participant_id":"20"},{"rt":null,"stimulus":"Sounds/rooster_sound.wav","key_press":null,"block":1,"trial_type":"audio-keyboard-response","trial_index":120,"time_elapsed":2285848,"internal_node_id":"0.0-13.0-0.17","match_key":"a","participant_id":"20"},{"rt":null,"stimulus":"<p style=\"font-size: 48px;\">+</p>","key_press":null,"block":1,"trial_type":"html-keyboard-response","trial_index":121,"time_elapsed":2286843,"internal_node_id":"0.0-13.0-1.17","match_key":"a","participant_id":"20"},{"rt":442.40500000910833,"stimulus":"Images/rooster_orig.png","key_press":65,"stim_onset":1582145204465,"block":1,"match_type":"match","image_category":"rooster","sound_category":"rooster","audio_type":"sound","phase":"test","trial_type":"image-keyboard-response","trial_index":122,"time_elapsed":2287286,"internal_node_id":"0.0-13.0-2.17","match_key":"a","participant_id":"20","correct":true},{"rt":null,"stimulus":"Sounds/correct.wav","key_press":null,"block":1,"trial_type":"audio-keyboard-response","trial_index":123,"time_elapsed":2289296,"internal_node_id":"0.0-13.0-3.17","match_key":"a","participant_id":"20"},{"rt":null,"stimulus":"Sounds/whistle_label.wav","key_press":null,"block":1,"trial_type":"audio-keyboard-response","trial_index":124,"time_elapsed":2289968,"internal_node_id":"0.0-13.0-0.18","match_key":"a","participant_id":"20"},{"rt":null,"stimulus":"<p style=\"font-size: 48px;\">+</p>","key_press":null,"block":1,"trial_type":"html-keyboard-response","trial_index":125,"time_elapsed":2290959,"internal_node_id":"0.0-13.0-1.18","match_key":"a","participant_id":"20"},{"rt":493.50000001117587,"stimulus":"Images/whistle_3.png","key_press":65,"stim_onset":1582145208581,"block":1,"match_type":"match","image_category":"whistle","sound_category":"whistle","audio_type":"label","phase":"test","trial_type":"image-keyboard-response","trial_index":126,"time_elapsed":2291454,"internal_node_id":"0.0-13.0-2.18","match_key":"a","participant_id":"20","correct":true},{"rt":null,"stimulus":"Sounds/correct.wav","key_press":null,"block":1,"trial_type":"audio-keyboard-response","trial_index":127,"time_elapsed":2293462,"internal_node_id":"0.0-13.0-3.18","match_key":"a","participant_id":"20"},{"rt":null,"stimulus":"Sounds/cat_label.wav","key_press":null,"block":1,"trial_type":"audio-keyboard-response","trial_index":128,"time_elapsed":2294308,"internal_node_id":"0.0-13.0-0.19","match_key":"a","participant_id":"20"},{"rt":null,"stimulus":"<p style=\"font-size: 48px;\">+</p>","key_press":null,"block":1,"trial_type":"html-keyboard-response","trial_index":129,"time_elapsed":2295343,"internal_node_id":"0.0-13.0-1.19","match_key":"a","participant_id":"20"},{"rt":358.1100000012666,"stimulus":"Images/cat_orig.png","key_press":65,"stim_onset":1582145212965,"block":1,"match_type":"match","image_category":"cat","sound_category":"cat","audio_type":"label","phase":"test","trial_type":"image-keyboard-response","trial_index":130,"time_elapsed":2295702,"internal_node_id":"0.0-13.0-2.19","match_key":"a","participant_id":"20","correct":true},{"rt":null,"stimulus":"Sounds/correct.wav","key_press":null,"block":1,"trial_type":"audio-keyboard-response","trial_index":131,"time_elapsed":2297712,"internal_node_id":"0.0-13.0-3.19","match_key":"a","participant_id":"20"},{"rt":null,"stimulus":"Sounds/whistle_sound.wav","key_press":null,"block":1,"trial_type":"audio-keyboard-response","trial_index":132,"time_elapsed":2298408,"internal_node_id":"0.0-13.0-0.20","match_key":"a","participant_id":"20"},{"rt":null,"stimulus":"<p style=\"font-size: 48px;\">+</p>","key_press":null,"block":1,"trial_type":"html-keyboard-response","trial_index":133,"time_elapsed":2299426,"internal_node_id":"0.0-13.0-1.20","match_key":"a","participant_id":"20"},{"rt":667.0300000114366,"stimulus":"Images/frog_3.png","key_press":76,"stim_onset":1582145217048,"block":1,"match_type":"non-match","image_category":"frog","sound_category":"whistle","audio_type":"sound","phase":"test","trial_type":"image-keyboard-response","trial_index":134,"time_elapsed":2300094,"internal_node_id":"0.0-13.0-2.20","match_key":"a","participant_id":"20","correct":true},{"rt":null,"stimulus":"Sounds/correct.wav","key_press":null,"block":1,"trial_type":"audio-keyboard-response","trial_index":135,"time_elapsed":2302099,"internal_node_id":"0.0-13.0-3.20","match_key":"a","participant_id":"20"},{"rt":null,"stimulus":"Sounds/cow_label.wav","key_press":null,"block":1,"trial_type":"audio-keyboard-response","trial_index":136,"time_elapsed":2303128,"internal_node_id":"0.0-13.0-0.21","match_key":"a","participant_id":"20"},{"rt":null,"stimulus":"<p style=\"font-size: 48px;\">+</p>","key_press":null,"block":1,"trial_type":"html-keyboard-response","trial_index":137,"time_elapsed":2304126,"internal_node_id":"0.0-13.0-1.21","match_key":"a","participant_id":"20"},{"rt":566.7100000139326,"stimulus":"Images/cow_cartoon.png","key_press":65,"stim_onset":1582145221748,"block":1,"match_type":"match","image_category":"cow","sound_category":"cow","audio_type":"label","phase":"test","trial_type":"image-keyboard-response","trial_index":138,"time_elapsed":2304694,"internal_node_id":"0.0-13.0-2.21","match_key":"a","participant_id":"20","correct":true},{"rt":null,"stimulus":"Sounds/correct.wav","key_press":null,"block":1,"trial_type":"audio-keyboard-response","trial_index":139,"time_elapsed":2306698,"internal_node_id":"0.0-13.0-3.21","match_key":"a","participant_id":"20"},{"rt":null,"stimulus":"Sounds/motorcycle_sound.wav","key_press":null,"block":1,"trial_type":"audio-keyboard-response","trial_index":140,"time_elapsed":2307808,"internal_node_id":"0.0-13.0-0.22","match_key":"a","participant_id":"20"},{"rt":null,"stimulus":"<p style=\"font-size: 48px;\">+</p>","key_press":null,"block":1,"trial_type":"html-keyboard-response","trial_index":141,"time_elapsed":2308826,"internal_node_id":"0.0-13.0-1.22","match_key":"a","participant_id":"20"},{"rt":370.7199999769218,"stimulus":"Images/motorcycle_1.png","key_press":65,"stim_onset":1582145226448,"block":1,"match_type":"match","image_category":"motorcycle","sound_category":"motorcycle","audio_type":"sound","phase":"test","trial_type":"image-keyboard-response","trial_index":142,"time_elapsed":2309198,"internal_node_id":"0.0-13.0-2.22","match_key":"a","participant_id":"20","correct":true},{"rt":null,"stimulus":"Sounds/correct.wav","key_press":null,"block":1,"trial_type":"audio-keyboard-response","trial_index":143,"time_elapsed":2311215,"internal_node_id":"0.0-13.0-3.22","match_key":"a","participant_id":"20"},{"rt":null,"stimulus":"Sounds/frog_sound.wav","key_press":null,"block":1,"trial_type":"audio-keyboard-response","trial_index":144,"time_elapsed":2312128,"internal_node_id":"0.0-13.0-0.23","match_key":"a","participant_id":"20"},{"rt":null,"stimulus":"<p style=\"font-size: 48px;\">+</p>","key_press":null,"block":1,"trial_type":"html-keyboard-response","trial_index":145,"time_elapsed":2313126,"internal_node_id":"0.0-13.0-1.23","match_key":"a","participant_id":"20"},{"rt":406.9700000109151,"stimulus":"Images/frog_2.png","key_press":65,"stim_onset":1582145230748,"block":1,"match_type":"match","image_category":"frog","sound_category":"frog","audio_type":"sound","phase":"test","trial_type":"image-keyboard-response","trial_index":146,"time_elapsed":2313534,"internal_node_id":"0.0-13.0-2.23","match_key":"a","participant_id":"20","correct":true},{"rt":null,"stimulus":"Sounds/correct.wav","key_press":null,"block":1,"trial_type":"audio-keyboard-response","trial_index":147,"time_elapsed":2315547,"internal_node_id":"0.0-13.0-3.23","match_key":"a","participant_id":"20"},{"rt":null,"stimulus":"Sounds/cow_sound.wav","key_press":null,"block":1,"trial_type":"audio-keyboard-response","trial_index":148,"time_elapsed":2316568,"internal_node_id":"0.0-13.0-0.24","match_key":"a","participant_id":"20"},{"rt":null,"stimulus":"<p style=\"font-size: 48px;\">+</p>","key_press":null,"block":1,"trial_type":"html-keyboard-response","trial_index":149,"time_elapsed":2317559,"internal_node_id":"0.0-13.0-1.24","match_key":"a","participant_id":"20"},{"rt":387.92999999737367,"stimulus":"Images/cow_1.png","key_press":65,"stim_onset":1582145235182,"block":1,"match_type":"match","image_category":"cow","sound_category":"cow","audio_type":"sound","phase":"test","trial_type":"image-keyboard-response","trial_index":150,"time_elapsed":2317950,"internal_node_id":"0.0-13.0-2.24","match_key":"a","participant_id":"20","correct":true},{"rt":null,"stimulus":"Sounds/correct.wav","key_press":null,"block":1,"trial_type":"audio-keyboard-response","trial_index":151,"time_elapsed":2319962,"internal_node_id":"0.0-13.0-3.24","match_key":"a","participant_id":"20"},{"rt":null,"stimulus":"Sounds/cow_label.wav","key_press":null,"block":1,"trial_type":"audio-keyboard-response","trial_index":152,"time_elapsed":2320988,"internal_node_id":"0.0-13.0-0.25","match_key":"a","participant_id":"20"},{"rt":null,"stimulus":"<p style=\"font-size: 48px;\">+</p>","key_press":null,"block":1,"trial_type":"html-keyboard-response","trial_index":153,"time_elapsed":2321993,"internal_node_id":"0.0-13.0-1.25","match_key":"a","participant_id":"20"},{"rt":395.79000000981614,"stimulus":"Images/gun_orig.png","key_press":76,"stim_onset":1582145239615,"block":1,"match_type":"non-match","image_category":"gun","sound_category":"cow","audio_type":"label","phase":"test","trial_type":"image-keyboard-response","trial_index":154,"time_elapsed":2322390,"internal_node_id":"0.0-13.0-2.25","match_key":"a","participant_id":"20","correct":true},{"rt":null,"stimulus":"Sounds/correct.wav","key_press":null,"block":1,"trial_type":"audio-keyboard-response","trial_index":155,"time_elapsed":2324398,"internal_node_id":"0.0-13.0-3.25","match_key":"a","participant_id":"20"},{"rt":null,"stimulus":"Sounds/cat_label.wav","key_press":null,"block":1,"trial_type":"audio-keyboard-response","trial_index":156,"time_elapsed":2325248,"internal_node_id":"0.0-13.0-0.26","match_key":"a","participant_id":"20"},{"rt":null,"stimulus":"<p style=\"font-size: 48px;\">+</p>","key_press":null,"block":1,"trial_type":"html-keyboard-response","trial_index":157,"time_elapsed":2326243,"internal_node_id":"0.0-13.0-1.26","match_key":"a","participant_id":"20"},{"rt":530.0899999854155,"stimulus":"Images/gun_2.png","key_press":76,"stim_onset":1582145243865,"block":1,"match_type":"non-match","image_category":"gun","sound_category":"cat","audio_type":"label","phase":"test","trial_type":"image-keyboard-response","trial_index":158,"time_elapsed":2326774,"internal_node_id":"0.0-13.0-2.26","match_key":"a","participant_id":"20","correct":true},{"rt":null,"stimulus":"Sounds/correct.wav","key_press":null,"block":1,"trial_type":"audio-keyboard-response","trial_index":159,"time_elapsed":2328781,"internal_node_id":"0.0-13.0-3.26","match_key":"a","participant_id":"20"},{"rt":null,"stimulus":"Sounds/train_label.wav","key_press":null,"block":1,"trial_type":"audio-keyboard-response","trial_index":160,"time_elapsed":2330067,"internal_node_id":"0.0-13.0-0.27","match_key":"a","participant_id":"20"},{"rt":null,"stimulus":"<p style=\"font-size: 48px;\">+</p>","key_press":null,"block":1,"trial_type":"html-keyboard-response","trial_index":161,"time_elapsed":2331059,"internal_node_id":"0.0-13.0-1.27","match_key":"a","participant_id":"20"},{"rt":1337.0550000108778,"stimulus":"Images/train_orig.png","key_press":65,"stim_onset":1582145248681,"block":1,"match_type":"match","image_category":"train","sound_category":"train","audio_type":"label","phase":"test","trial_type":"image-keyboard-response","trial_index":162,"time_elapsed":2332397,"internal_node_id":"0.0-13.0-2.27","match_key":"a","participant_id":"20","correct":true},{"rt":null,"stimulus":"Sounds/correct.wav","key_press":null,"block":1,"trial_type":"audio-keyboard-response","trial_index":163,"time_elapsed":2334403,"internal_node_id":"0.0-13.0-3.27","match_key":"a","participant_id":"20"},{"rt":null,"stimulus":"Sounds/cow_label.wav","key_press":null,"block":1,"trial_type":"audio-keyboard-response","trial_index":164,"time_elapsed":2335387,"internal_node_id":"0.0-13.0-0.28","match_key":"a","participant_id":"20"},{"rt":null,"stimulus":"<p style=\"font-size: 48px;\">+</p>","key_press":null,"block":1,"trial_type":"html-keyboard-response","trial_index":165,"time_elapsed":2336393,"internal_node_id":"0.0-13.0-1.28","match_key":"a","participant_id":"20"},{"rt":483.78999999864027,"stimulus":"Images/car_orig.png","key_press":76,"stim_onset":1582145254014,"block":1,"match_type":"non-match","image_category":"car","sound_category":"cow","audio_type":"label","phase":"test","trial_type":"image-keyboard-response","trial_index":166,"time_elapsed":2336878,"internal_node_id":"0.0-13.0-2.28","match_key":"a","participant_id":"20","correct":true},{"rt":null,"stimulus":"Sounds/correct.wav","key_press":null,"block":1,"trial_type":"audio-keyboard-response","trial_index":167,"time_elapsed":2338881,"internal_node_id":"0.0-13.0-3.28","match_key":"a","participant_id":"20"},{"rt":null,"stimulus":"Sounds/gun_label.wav","key_press":null,"block":1,"trial_type":"audio-keyboard-response","trial_index":168,"time_elapsed":2339467,"internal_node_id":"0.0-13.0-0.29","match_key":"a","participant_id":"20"},{"rt":null,"stimulus":"<p style=\"font-size: 48px;\">+</p>","key_press":null,"block":1,"trial_type":"html-keyboard-response","trial_index":169,"time_elapsed":2340459,"internal_node_id":"0.0-13.0-1.29","match_key":"a","participant_id":"20"},{"rt":432.94999998714775,"stimulus":"Images/gun_orig.png","key_press":65,"stim_onset":1582145258081,"block":1,"match_type":"match","image_category":"gun","sound_category":"gun","audio_type":"label","phase":"test","trial_type":"image-keyboard-response","trial_index":170,"time_elapsed":2340893,"internal_node_id":"0.0-13.0-2.29","match_key":"a","participant_id":"20","correct":true},{"rt":null,"stimulus":"Sounds/correct.wav","key_press":null,"block":1,"trial_type":"audio-keyboard-response","trial_index":171,"time_elapsed":2342898,"internal_node_id":"0.0-13.0-3.29","match_key":"a","participant_id":"20"},{"rt":null,"stimulus":"Sounds/rooster_label.wav","key_press":null,"block":1,"trial_type":"audio-keyboard-response","trial_index":172,"time_elapsed":2343587,"internal_node_id":"0.0-13.0-0.30","match_key":"a","participant_id":"20"},{"rt":null,"stimulus":"<p style=\"font-size: 48px;\">+</p>","key_press":null,"block":1,"trial_type":"html-keyboard-response","trial_index":173,"time_elapsed":2344576,"internal_node_id":"0.0-13.0-1.30","match_key":"a","participant_id":"20"},{"rt":508.219999989029,"stimulus":"Images/rooster_2.png","key_press":65,"stim_onset":1582145262198,"block":1,"match_type":"match","image_category":"rooster","sound_category":"rooster","audio_type":"label","phase":"test","trial_type":"image-keyboard-response","trial_index":174,"time_elapsed":2345085,"internal_node_id":"0.0-13.0-2.30","match_key":"a","participant_id":"20","correct":true},{"rt":null,"stimulus":"Sounds/correct.wav","key_press":null,"block":1,"trial_type":"audio-keyboard-response","trial_index":175,"time_elapsed":2347095,"internal_node_id":"0.0-13.0-3.30","match_key":"a","participant_id":"20"},{"rt":null,"stimulus":"Sounds/rooster_label.wav","key_press":null,"block":1,"trial_type":"audio-keyboard-response","trial_index":176,"time_elapsed":2347767,"internal_node_id":"0.0-13.0-0.31","match_key":"a","participant_id":"20"},{"rt":null,"stimulus":"<p style=\"font-size: 48px;\">+</p>","key_press":null,"block":1,"trial_type":"html-keyboard-response","trial_index":177,"time_elapsed":2348759,"internal_node_id":"0.0-13.0-1.31","match_key":"a","participant_id":"20"},{"rt":437.17000001948327,"stimulus":"Images/whistle_orig.png","key_press":76,"stim_onset":1582145266381,"block":1,"match_type":"non-match","image_category":"whistle","sound_category":"rooster","audio_type":"label","phase":"test","trial_type":"image-keyboard-response","trial_index":178,"time_elapsed":2349197,"internal_node_id":"0.0-13.0-2.31","match_key":"a","participant_id":"20","correct":true},{"rt":null,"stimulus":"Sounds/correct.wav","key_press":null,"block":1,"trial_type":"audio-keyboard-response","trial_index":179,"time_elapsed":2351213,"internal_node_id":"0.0-13.0-3.31","match_key":"a","participant_id":"20"},{"rt":null,"stimulus":"Sounds/cow_sound.wav","key_press":null,"block":1,"trial_type":"audio-keyboard-response","trial_index":180,"time_elapsed":2352227,"internal_node_id":"0.0-13.0-0.32","match_key":"a","participant_id":"20"},{"rt":null,"stimulus":"<p style=\"font-size: 48px;\">+</p>","key_press":null,"block":1,"trial_type":"html-keyboard-response","trial_index":181,"time_elapsed":2353226,"internal_node_id":"0.0-13.0-1.32","match_key":"a","participant_id":"20"},{"rt":418.2300000102259,"stimulus":"Images/cow_2.png","key_press":65,"stim_onset":1582145270848,"block":1,"match_type":"match","image_category":"cow","sound_category":"cow","audio_type":"sound","phase":"test","trial_type":"image-keyboard-response","trial_index":182,"time_elapsed":2353645,"internal_node_id":"0.0-13.0-2.32","match_key":"a","participant_id":"20","correct":true},{"rt":null,"stimulus":"Sounds/correct.wav","key_press":null,"block":1,"trial_type":"audio-keyboard-response","trial_index":183,"time_elapsed":2355648,"internal_node_id":"0.0-13.0-3.32","match_key":"a","participant_id":"20"},{"rt":null,"stimulus":"Sounds/motorcycle_sound.wav","key_press":null,"block":1,"trial_type":"audio-keyboard-response","trial_index":184,"time_elapsed":2356767,"internal_node_id":"0.0-13.0-0.33","match_key":"a","participant_id":"20"},{"rt":null,"stimulus":"<p style=\"font-size: 48px;\">+</p>","key_press":null,"block":1,"trial_type":"html-keyboard-response","trial_index":185,"time_elapsed":2357759,"internal_node_id":"0.0-13.0-1.33","match_key":"a","participant_id":"20"},{"rt":820.974999981001,"stimulus":"Images/motorcycle_3.png","key_press":65,"stim_onset":1582145275381,"block":1,"match_type":"match","image_category":"motorcycle","sound_category":"motorcycle","audio_type":"sound","phase":"test","trial_type":"image-keyboard-response","trial_index":186,"time_elapsed":2358581,"internal_node_id":"0.0-13.0-2.33","match_key":"a","participant_id":"20","correct":true},{"rt":null,"stimulus":"Sounds/correct.wav","key_press":null,"block":1,"trial_type":"audio-keyboard-response","trial_index":187,"time_elapsed":2360583,"internal_node_id":"0.0-13.0-3.33","match_key":"a","participant_id":"20"},{"rt":null,"stimulus":"Sounds/rooster_label.wav","key_press":null,"block":1,"trial_type":"audio-keyboard-response","trial_index":188,"time_elapsed":2361247,"internal_node_id":"0.0-13.0-0.34","match_key":"a","participant_id":"20"},{"rt":null,"stimulus":"<p style=\"font-size: 48px;\">+</p>","key_press":null,"block":1,"trial_type":"html-keyboard-response","trial_index":189,"time_elapsed":2362243,"internal_node_id":"0.0-13.0-1.34","match_key":"a","participant_id":"20"},{"rt":553.7499999916181,"stimulus":"Images/dog_orig.png","key_press":76,"stim_onset":1582145279865,"block":1,"match_type":"non-match","image_category":"dog","sound_category":"rooster","audio_type":"label","phase":"test","trial_type":"image-keyboard-response","trial_index":190,"time_elapsed":2362797,"internal_node_id":"0.0-13.0-2.34","match_key":"a","participant_id":"20","correct":true},{"rt":null,"stimulus":"Sounds/correct.wav","key_press":null,"block":1,"trial_type":"audio-keyboard-response","trial_index":191,"time_elapsed":2364813,"internal_node_id":"0.0-13.0-3.34","match_key":"a","participant_id":"20"},{"rt":null,"stimulus":"Sounds/gun_sound.wav","key_press":null,"block":1,"trial_type":"audio-keyboard-response","trial_index":192,"time_elapsed":2365387,"internal_node_id":"0.0-13.0-0.35","match_key":"a","participant_id":"20"},{"rt":null,"stimulus":"<p style=\"font-size: 48px;\">+</p>","key_press":null,"block":1,"trial_type":"html-keyboard-response","trial_index":193,"time_elapsed":2366376,"internal_node_id":"0.0-13.0-1.35","match_key":"a","participant_id":"20"},{"rt":499.9900000113994,"stimulus":"Images/gun_1.png","key_press":65,"stim_onset":1582145283998,"block":1,"match_type":"match","image_category":"gun","sound_category":"gun","audio_type":"sound","phase":"test","trial_type":"image-keyboard-response","trial_index":194,"time_elapsed":2366877,"internal_node_id":"0.0-13.0-2.35","match_key":"a","participant_id":"20","correct":true},{"rt":null,"stimulus":"Sounds/correct.wav","key_press":null,"block":1,"trial_type":"audio-keyboard-response","trial_index":195,"time_elapsed":2368881,"internal_node_id":"0.0-13.0-3.35","match_key":"a","participant_id":"20"},{"rt":null,"stimulus":"Sounds/cow_label.wav","key_press":null,"block":1,"trial_type":"audio-keyboard-response","trial_index":196,"time_elapsed":2369907,"internal_node_id":"0.0-13.0-0.36","match_key":"a","participant_id":"20"},{"rt":null,"stimulus":"<p style=\"font-size: 48px;\">+</p>","key_press":null,"block":1,"trial_type":"html-keyboard-response","trial_index":197,"time_elapsed":2370909,"internal_node_id":"0.0-13.0-1.36","match_key":"a","participant_id":"20"},{"rt":342.899999988731,"stimulus":"Images/cow_3.png","key_press":65,"stim_onset":1582145288532,"block":1,"match_type":"match","image_category":"cow","sound_category":"cow","audio_type":"label","phase":"test","trial_type":"image-keyboard-response","trial_index":198,"time_elapsed":2371253,"internal_node_id":"0.0-13.0-2.36","match_key":"a","participant_id":"20","correct":true},{"rt":null,"stimulus":"Sounds/correct.wav","key_press":null,"block":1,"trial_type":"audio-keyboard-response","trial_index":199,"time_elapsed":2373263,"internal_node_id":"0.0-13.0-3.36","match_key":"a","participant_id":"20"},{"rt":null,"stimulus":"Sounds/rooster_sound.wav","key_press":null,"block":1,"trial_type":"audio-keyboard-response","trial_index":200,"time_elapsed":2373967,"internal_node_id":"0.0-13.0-0.37","match_key":"a","participant_id":"20"},{"rt":null,"stimulus":"<p style=\"font-size: 48px;\">+</p>","key_press":null,"block":1,"trial_type":"html-keyboard-response","trial_index":201,"time_elapsed":2374959,"internal_node_id":"0.0-13.0-1.37","match_key":"a","participant_id":"20"},{"rt":485.0250000022352,"stimulus":"Images/frog_2.png","key_press":76,"stim_onset":1582145292581,"block":1,"match_type":"non-match","image_category":"frog","sound_category":"rooster","audio_type":"sound","phase":"test","trial_type":"image-keyboard-response","trial_index":202,"time_elapsed":2375445,"internal_node_id":"0.0-13.0-2.37","match_key":"a","participant_id":"20","correct":true},{"rt":null,"stimulus":"Sounds/correct.wav","key_press":null,"block":1,"trial_type":"audio-keyboard-response","trial_index":203,"time_elapsed":2377448,"internal_node_id":"0.0-13.0-3.37","match_key":"a","participant_id":"20"},{"rt":null,"stimulus":"Sounds/dog_label.wav","key_press":null,"block":1,"trial_type":"audio-keyboard-response","trial_index":204,"time_elapsed":2378107,"internal_node_id":"0.0-13.0-0.38","match_key":"a","participant_id":"20"},{"rt":null,"stimulus":"<p style=\"font-size: 48px;\">+</p>","key_press":null,"block":1,"trial_type":"html-keyboard-response","trial_index":205,"time_elapsed":2379110,"internal_node_id":"0.0-13.0-1.38","match_key":"a","participant_id":"20"},{"rt":502.5949999978766,"stimulus":"Images/car_cartoon.png","key_press":76,"stim_onset":1582145296732,"block":1,"match_type":"non-match","image_category":"car","sound_category":"dog","audio_type":"label","phase":"test","trial_type":"image-keyboard-response","trial_index":206,"time_elapsed":2379613,"internal_node_id":"0.0-13.0-2.38","match_key":"a","participant_id":"20","correct":true},{"rt":null,"stimulus":"Sounds/correct.wav","key_press":null,"block":1,"trial_type":"audio-keyboard-response","trial_index":207,"time_elapsed":2381630,"internal_node_id":"0.0-13.0-3.38","match_key":"a","participant_id":"20"},{"rt":null,"stimulus":"Sounds/frog_sound.wav","key_press":null,"block":1,"trial_type":"audio-keyboard-response","trial_index":208,"time_elapsed":2382547,"internal_node_id":"0.0-13.0-0.39","match_key":"a","participant_id":"20"},{"rt":null,"stimulus":"<p style=\"font-size: 48px;\">+</p>","key_press":null,"block":1,"trial_type":"html-keyboard-response","trial_index":209,"time_elapsed":2383543,"internal_node_id":"0.0-13.0-1.39","match_key":"a","participant_id":"20"},{"rt":565.2499999850988,"stimulus":"Images/frog_3.png","key_press":65,"stim_onset":1582145301165,"block":1,"match_type":"match","image_category":"frog","sound_category":"frog","audio_type":"sound","phase":"test","trial_type":"image-keyboard-response","trial_index":210,"time_elapsed":2384109,"internal_node_id":"0.0-13.0-2.39","match_key":"a","participant_id":"20","correct":true},{"rt":null,"stimulus":"Sounds/correct.wav","key_press":null,"block":1,"trial_type":"audio-keyboard-response","trial_index":211,"time_elapsed":2386117,"internal_node_id":"0.0-13.0-3.39","match_key":"a","participant_id":"20"},{"rt":null,"stimulus":"Sounds/car_label.wav","key_press":null,"block":1,"trial_type":"audio-keyboard-response","trial_index":212,"time_elapsed":2387187,"internal_node_id":"0.0-13.0-0.40","match_key":"a","participant_id":"20"},{"rt":null,"stimulus":"<p style=\"font-size: 48px;\">+</p>","key_press":null,"block":1,"trial_type":"html-keyboard-response","trial_index":213,"time_elapsed":2388193,"internal_node_id":"0.0-13.0-1.40","match_key":"a","participant_id":"20"},{"rt":475.0550000173971,"stimulus":"Images/frog_orig.png","key_press":76,"stim_onset":1582145305815,"block":1,"match_type":"non-match","image_category":"frog","sound_category":"car","audio_type":"label","phase":"test","trial_type":"image-keyboard-response","trial_index":214,"time_elapsed":2388669,"internal_node_id":"0.0-13.0-2.40","match_key":"a","participant_id":"20","correct":true},{"rt":null,"stimulus":"Sounds/correct.wav","key_press":null,"block":1,"trial_type":"audio-keyboard-response","trial_index":215,"time_elapsed":2390679,"internal_node_id":"0.0-13.0-3.40","match_key":"a","participant_id":"20"},{"rt":null,"stimulus":"Sounds/cat_label.wav","key_press":null,"block":1,"trial_type":"audio-keyboard-response","trial_index":216,"time_elapsed":2391507,"internal_node_id":"0.0-13.0-0.41","match_key":"a","participant_id":"20"},{"rt":null,"stimulus":"<p style=\"font-size: 48px;\">+</p>","key_press":null,"block":1,"trial_type":"html-keyboard-response","trial_index":217,"time_elapsed":2392509,"internal_node_id":"0.0-13.0-1.41","match_key":"a","participant_id":"20"},{"rt":414.4999999841675,"stimulus":"Images/cat_1.png","key_press":65,"stim_onset":1582145310131,"block":1,"match_type":"match","image_category":"cat","sound_category":"cat","audio_type":"label","phase":"test","trial_type":"image-keyboard-response","trial_index":218,"time_elapsed":2392925,"internal_node_id":"0.0-13.0-2.41","match_key":"a","participant_id":"20","correct":true},{"rt":null,"stimulus":"Sounds/correct.wav","key_press":null,"block":1,"trial_type":"audio-keyboard-response","trial_index":219,"time_elapsed":2394932,"internal_node_id":"0.0-13.0-3.41","match_key":"a","participant_id":"20"},{"rt":null,"stimulus":"Sounds/frog_label.wav","key_press":null,"block":1,"trial_type":"audio-keyboard-response","trial_index":220,"time_elapsed":2395827,"internal_node_id":"0.0-13.0-0.42","match_key":"a","participant_id":"20"},{"rt":null,"stimulus":"<p style=\"font-size: 48px;\">+</p>","key_press":null,"block":1,"trial_type":"html-keyboard-response","trial_index":221,"time_elapsed":2396826,"internal_node_id":"0.0-13.0-1.42","match_key":"a","participant_id":"20"},{"rt":745.6799999922514,"stimulus":"Images/rooster_cartoon.png","key_press":76,"stim_onset":1582145314448,"block":1,"match_type":"non-match","image_category":"rooster","sound_category":"frog","audio_type":"label","phase":"test","trial_type":"image-keyboard-response","trial_index":222,"time_elapsed":2397573,"internal_node_id":"0.0-13.0-2.42","match_key":"a","participant_id":"20","correct":true},{"rt":null,"stimulus":"Sounds/correct.wav","key_press":null,"block":1,"trial_type":"audio-keyboard-response","trial_index":223,"time_elapsed":2399581,"internal_node_id":"0.0-13.0-3.42","match_key":"a","participant_id":"20"},{"rt":null,"stimulus":"Sounds/car_sound.wav","key_press":null,"block":1,"trial_type":"audio-keyboard-response","trial_index":224,"time_elapsed":2400667,"internal_node_id":"0.0-13.0-0.43","match_key":"a","participant_id":"20"},{"rt":null,"stimulus":"<p style=\"font-size: 48px;\">+</p>","key_press":null,"block":1,"trial_type":"html-keyboard-response","trial_index":225,"time_elapsed":2401659,"internal_node_id":"0.0-13.0-1.43","match_key":"a","participant_id":"20"},{"rt":400.63999997777864,"stimulus":"Images/car_2.png","key_press":65,"stim_onset":1582145319281,"block":1,"match_type":"match","image_category":"car","sound_category":"car","audio_type":"sound","phase":"test","trial_type":"image-keyboard-response","trial_index":226,"time_elapsed":2402061,"internal_node_id":"0.0-13.0-2.43","match_key":"a","participant_id":"20","correct":true},{"rt":null,"stimulus":"Sounds/correct.wav","key_press":null,"block":1,"trial_type":"audio-keyboard-response","trial_index":227,"time_elapsed":2404066,"internal_node_id":"0.0-13.0-3.43","match_key":"a","participant_id":"20"},{"rt":null,"stimulus":"Sounds/cow_label.wav","key_press":null,"block":1,"trial_type":"audio-keyboard-response","trial_index":228,"time_elapsed":2405087,"internal_node_id":"0.0-13.0-0.44","match_key":"a","participant_id":"20"},{"rt":null,"stimulus":"<p style=\"font-size: 48px;\">+</p>","key_press":null,"block":1,"trial_type":"html-keyboard-response","trial_index":229,"time_elapsed":2406093,"internal_node_id":"0.0-13.0-1.44","match_key":"a","participant_id":"20"},{"rt":502.80500002531335,"stimulus":"Images/motorcycle_3.png","key_press":76,"stim_onset":1582145323715,"block":1,"match_type":"non-match","image_category":"motorcycle","sound_category":"cow","audio_type":"label","phase":"test","trial_type":"image-keyboard-response","trial_index":230,"time_elapsed":2406597,"internal_node_id":"0.0-13.0-2.44","match_key":"a","participant_id":"20","correct":true},{"rt":null,"stimulus":"Sounds/correct.wav","key_press":null,"block":1,"trial_type":"audio-keyboard-response","trial_index":231,"time_elapsed":2408599,"internal_node_id":"0.0-13.0-3.44","match_key":"a","participant_id":"20"},{"rt":null,"stimulus":"Sounds/motorcycle_sound.wav","key_press":null,"block":1,"trial_type":"audio-keyboard-response","trial_index":232,"time_elapsed":2409727,"internal_node_id":"0.0-13.0-0.45","match_key":"a","participant_id":"20"},{"rt":null,"stimulus":"<p style=\"font-size: 48px;\">+</p>","key_press":null,"block":1,"trial_type":"html-keyboard-response","trial_index":233,"time_elapsed":2410726,"internal_node_id":"0.0-13.0-1.45","match_key":"a","participant_id":"20"},{"rt":548.9899999811314,"stimulus":"Images/whistle_2.png","key_press":76,"stim_onset":1582145328348,"block":1,"match_type":"non-match","image_category":"whistle","sound_category":"motorcycle","audio_type":"sound","phase":"test","trial_type":"image-keyboard-response","trial_index":234,"time_elapsed":2411277,"internal_node_id":"0.0-13.0-2.45","match_key":"a","participant_id":"20","correct":true},{"rt":null,"stimulus":"Sounds/correct.wav","key_press":null,"block":1,"trial_type":"audio-keyboard-response","trial_index":235,"time_elapsed":2413281,"internal_node_id":"0.0-13.0-3.45","match_key":"a","participant_id":"20"},{"rt":null,"stimulus":"Sounds/car_label.wav","key_press":null,"block":1,"trial_type":"audio-keyboard-response","trial_index":236,"time_elapsed":2414367,"internal_node_id":"0.0-13.0-0.46","match_key":"a","participant_id":"20"},{"rt":null,"stimulus":"<p style=\"font-size: 48px;\">+</p>","key_press":null,"block":1,"trial_type":"html-keyboard-response","trial_index":237,"time_elapsed":2415360,"internal_node_id":"0.0-13.0-1.46","match_key":"a","participant_id":"20"},{"rt":412.539999990724,"stimulus":"Images/car_1.png","key_press":65,"stim_onset":1582145332982,"block":1,"match_type":"match","image_category":"car","sound_category":"car","audio_type":"label","phase":"test","trial_type":"image-keyboard-response","trial_index":238,"time_elapsed":2415773,"internal_node_id":"0.0-13.0-2.46","match_key":"a","participant_id":"20","correct":true},{"rt":null,"stimulus":"Sounds/correct.wav","key_press":null,"block":1,"trial_type":"audio-keyboard-response","trial_index":239,"time_elapsed":2417785,"internal_node_id":"0.0-13.0-3.46","match_key":"a","participant_id":"20"},{"rt":null,"stimulus":"Sounds/gun_sound.wav","key_press":null,"block":1,"trial_type":"audio-keyboard-response","trial_index":240,"time_elapsed":2418347,"internal_node_id":"0.0-13.0-0.47","match_key":"a","participant_id":"20"},{"rt":null,"stimulus":"<p style=\"font-size: 48px;\">+</p>","key_press":null,"block":1,"trial_type":"html-keyboard-response","trial_index":241,"time_elapsed":2419343,"internal_node_id":"0.0-13.0-1.47","match_key":"a","participant_id":"20"},{"rt":404.9599999850616,"stimulus":"Images/gun_cartoon.png","key_press":65,"stim_onset":1582145336965,"block":1,"match_type":"match","image_category":"gun","sound_category":"gun","audio_type":"sound","phase":"test","trial_type":"image-keyboard-response","trial_index":242,"time_elapsed":2419749,"internal_node_id":"0.0-13.0-2.47","match_key":"a","participant_id":"20","correct":true},{"rt":null,"stimulus":"Sounds/correct.wav","key_press":null,"block":1,"trial_type":"audio-keyboard-response","trial_index":243,"time_elapsed":2421762,"internal_node_id":"0.0-13.0-3.47","match_key":"a","participant_id":"20"},{"rt":null,"stimulus":"Sounds/cow_sound.wav","key_press":null,"block":1,"trial_type":"audio-keyboard-response","trial_index":244,"time_elapsed":2422787,"internal_node_id":"0.0-13.0-0.48","match_key":"a","participant_id":"20"},{"rt":null,"stimulus":"<p style=\"font-size: 48px;\">+</p>","key_press":null,"block":1,"trial_type":"html-keyboard-response","trial_index":245,"time_elapsed":2423793,"internal_node_id":"0.0-13.0-1.48","match_key":"a","participant_id":"20"},{"rt":514.7050000089221,"stimulus":"Images/rooster_2.png","key_press":76,"stim_onset":1582145341415,"block":1,"match_type":"non-match","image_category":"rooster","sound_category":"cow","audio_type":"sound","phase":"test","trial_type":"image-keyboard-response","trial_index":246,"time_elapsed":2424309,"internal_node_id":"0.0-13.0-2.48","match_key":"a","participant_id":"20","correct":true},{"rt":null,"stimulus":"Sounds/correct.wav","key_press":null,"block":1,"trial_type":"audio-keyboard-response","trial_index":247,"time_elapsed":2426316,"internal_node_id":"0.0-13.0-3.48","match_key":"a","participant_id":"20"},{"rt":null,"stimulus":"Sounds/train_sound.wav","key_press":null,"block":1,"trial_type":"audio-keyboard-response","trial_index":248,"time_elapsed":2427607,"internal_node_id":"0.0-13.0-0.49","match_key":"a","participant_id":"20"},{"rt":null,"stimulus":"<p style=\"font-size: 48px;\">+</p>","key_press":null,"block":1,"trial_type":"html-keyboard-response","trial_index":249,"time_elapsed":2428610,"internal_node_id":"0.0-13.0-1.49","match_key":"a","participant_id":"20"},{"rt":506.48000001115724,"stimulus":"Images/train_cartoon.png","key_press":65,"stim_onset":1582145346232,"block":1,"match_type":"match","image_category":"train","sound_category":"train","audio_type":"sound","phase":"test","trial_type":"image-keyboard-response","trial_index":250,"time_elapsed":2429117,"internal_node_id":"0.0-13.0-2.49","match_key":"a","participant_id":"20","correct":true},{"rt":null,"stimulus":"Sounds/correct.wav","key_press":null,"block":1,"trial_type":"audio-keyboard-response","trial_index":251,"time_elapsed":2431130,"internal_node_id":"0.0-13.0-3.49","match_key":"a","participant_id":"20"},{"rt":null,"stimulus":"Sounds/train_sound.wav","key_press":null,"block":1,"trial_type":"audio-keyboard-response","trial_index":252,"time_elapsed":2432407,"internal_node_id":"0.0-13.0-0.50","match_key":"a","participant_id":"20"},{"rt":null,"stimulus":"<p style=\"font-size: 48px;\">+</p>","key_press":null,"block":1,"trial_type":"html-keyboard-response","trial_index":253,"time_elapsed":2433410,"internal_node_id":"0.0-13.0-1.50","match_key":"a","participant_id":"20"},{"rt":634.0999999954365,"stimulus":"Images/whistle_3.png","key_press":76,"stim_onset":1582145351032,"block":1,"match_type":"non-match","image_category":"whistle","sound_category":"train","audio_type":"sound","phase":"test","trial_type":"image-keyboard-response","trial_index":254,"time_elapsed":2434045,"internal_node_id":"0.0-13.0-2.50","match_key":"a","participant_id":"20","correct":true},{"rt":null,"stimulus":"Sounds/correct.wav","key_press":null,"block":1,"trial_type":"audio-keyboard-response","trial_index":255,"time_elapsed":2436056,"internal_node_id":"0.0-13.0-3.50","match_key":"a","participant_id":"20"},{"rt":null,"stimulus":"Sounds/car_sound.wav","key_press":null,"block":1,"trial_type":"audio-keyboard-response","trial_index":256,"time_elapsed":2437127,"internal_node_id":"0.0-13.0-0.51","match_key":"a","participant_id":"20"},{"rt":null,"stimulus":"<p style=\"font-size: 48px;\">+</p>","key_press":null,"block":1,"trial_type":"html-keyboard-response","trial_index":257,"time_elapsed":2438126,"internal_node_id":"0.0-13.0-1.51","match_key":"a","participant_id":"20"},{"rt":661.5649999873713,"stimulus":"Images/car_orig.png","key_press":65,"stim_onset":1582145355749,"block":1,"match_type":"match","image_category":"car","sound_category":"car","audio_type":"sound","phase":"test","trial_type":"image-keyboard-response","trial_index":258,"time_elapsed":2438789,"internal_node_id":"0.0-13.0-2.51","match_key":"a","participant_id":"20","correct":true},{"rt":null,"stimulus":"Sounds/correct.wav","key_press":null,"block":1,"trial_type":"audio-keyboard-response","trial_index":259,"time_elapsed":2440798,"internal_node_id":"0.0-13.0-3.51","match_key":"a","participant_id":"20"},{"rt":null,"stimulus":"Sounds/frog_label.wav","key_press":null,"block":1,"trial_type":"audio-keyboard-response","trial_index":260,"time_elapsed":2441687,"internal_node_id":"0.0-13.0-0.52","match_key":"a","participant_id":"20"},{"rt":null,"stimulus":"<p style=\"font-size: 48px;\">+</p>","key_press":null,"block":1,"trial_type":"html-keyboard-response","trial_index":261,"time_elapsed":2442676,"internal_node_id":"0.0-13.0-1.52","match_key":"a","participant_id":"20"},{"rt":439.55499998945743,"stimulus":"Images/gun_1.png","key_press":76,"stim_onset":1582145360299,"block":1,"match_type":"non-match","image_category":"gun","sound_category":"frog","audio_type":"label","phase":"test","trial_type":"image-keyboard-response","trial_index":262,"time_elapsed":2443117,"internal_node_id":"0.0-13.0-2.52","match_key":"a","participant_id":"20","correct":true},{"rt":null,"stimulus":"Sounds/correct.wav","key_press":null,"block":1,"trial_type":"audio-keyboard-response","trial_index":263,"time_elapsed":2445131,"internal_node_id":"0.0-13.0-3.52","match_key":"a","participant_id":"20"},{"rt":null,"stimulus":"Sounds/dog_label.wav","key_press":null,"block":1,"trial_type":"audio-keyboard-response","trial_index":264,"time_elapsed":2445787,"internal_node_id":"0.0-13.0-0.53","match_key":"a","participant_id":"20"},{"rt":null,"stimulus":"<p style=\"font-size: 48px;\">+</p>","key_press":null,"block":1,"trial_type":"html-keyboard-response","trial_index":265,"time_elapsed":2446776,"internal_node_id":"0.0-13.0-1.53","match_key":"a","participant_id":"20"},{"rt":523.4700000146404,"stimulus":"Images/rooster_1.png","key_press":76,"stim_onset":1582145364399,"block":1,"match_type":"non-match","image_category":"rooster","sound_category":"dog","audio_type":"label","phase":"test","trial_type":"image-keyboard-response","trial_index":266,"time_elapsed":2447301,"internal_node_id":"0.0-13.0-2.53","match_key":"a","participant_id":"20","correct":true},{"rt":null,"stimulus":"Sounds/correct.wav","key_press":null,"block":1,"trial_type":"audio-keyboard-response","trial_index":267,"time_elapsed":2449314,"internal_node_id":"0.0-13.0-3.53","match_key":"a","participant_id":"20"},{"rt":null,"stimulus":"Sounds/gun_sound.wav","key_press":null,"block":1,"trial_type":"audio-keyboard-response","trial_index":268,"time_elapsed":2449887,"internal_node_id":"0.0-13.0-0.54","match_key":"a","participant_id":"20"},{"rt":null,"stimulus":"<p style=\"font-size: 48px;\">+</p>","key_press":null,"block":1,"trial_type":"html-keyboard-response","trial_index":269,"time_elapsed":2450876,"internal_node_id":"0.0-13.0-1.54","match_key":"a","participant_id":"20"},{"rt":463.24999997159466,"stimulus":"Images/gun_2.png","key_press":65,"stim_onset":1582145368498,"block":1,"match_type":"match","image_category":"gun","sound_category":"gun","audio_type":"sound","phase":"test","trial_type":"image-keyboard-response","trial_index":270,"time_elapsed":2451341,"internal_node_id":"0.0-13.0-2.54","match_key":"a","participant_id":"20","correct":true},{"rt":null,"stimulus":"Sounds/correct.wav","key_press":null,"block":1,"trial_type":"audio-keyboard-response","trial_index":271,"time_elapsed":2453349,"internal_node_id":"0.0-13.0-3.54","match_key":"a","participant_id":"20"},{"rt":null,"stimulus":"Sounds/train_sound.wav","key_press":null,"block":1,"trial_type":"audio-keyboard-response","trial_index":272,"time_elapsed":2454647,"internal_node_id":"0.0-13.0-0.55","match_key":"a","participant_id":"20"},{"rt":null,"stimulus":"<p style=\"font-size: 48px;\">+</p>","key_press":null,"block":1,"trial_type":"html-keyboard-response","trial_index":273,"time_elapsed":2455643,"internal_node_id":"0.0-13.0-1.55","match_key":"a","participant_id":"20"},{"rt":536.6749999811873,"stimulus":"Images/car_2.png","key_press":76,"stim_onset":1582145373265,"block":1,"match_type":"non-match","image_category":"car","sound_category":"train","audio_type":"sound","phase":"test","trial_type":"image-keyboard-response","trial_index":274,"time_elapsed":2456181,"internal_node_id":"0.0-13.0-2.55","match_key":"a","participant_id":"20","correct":true},{"rt":null,"stimulus":"Sounds/correct.wav","key_press":null,"block":1,"trial_type":"audio-keyboard-response","trial_index":275,"time_elapsed":2458198,"internal_node_id":"0.0-13.0-3.55","match_key":"a","participant_id":"20"},{"rt":null,"stimulus":"Sounds/cat_sound.wav","key_press":null,"block":1,"trial_type":"audio-keyboard-response","trial_index":276,"time_elapsed":2459027,"internal_node_id":"0.0-13.0-0.56","match_key":"a","participant_id":"20"},{"rt":null,"stimulus":"<p style=\"font-size: 48px;\">+</p>","key_press":null,"block":1,"trial_type":"html-keyboard-response","trial_index":277,"time_elapsed":2460026,"internal_node_id":"0.0-13.0-1.56","match_key":"a","participant_id":"20"},{"rt":369.28499999362975,"stimulus":"Images/cat_3.png","key_press":65,"stim_onset":1582145377648,"block":1,"match_type":"match","image_category":"cat","sound_category":"cat","audio_type":"sound","phase":"test","trial_type":"image-keyboard-response","trial_index":278,"time_elapsed":2460397,"internal_node_id":"0.0-13.0-2.56","match_key":"a","participant_id":"20","correct":true},{"rt":null,"stimulus":"Sounds/correct.wav","key_press":null,"block":1,"trial_type":"audio-keyboard-response","trial_index":279,"time_elapsed":2462414,"internal_node_id":"0.0-13.0-3.56","match_key":"a","participant_id":"20"},{"rt":null,"stimulus":"Sounds/car_label.wav","key_press":null,"block":1,"trial_type":"audio-keyboard-response","trial_index":280,"time_elapsed":2463487,"internal_node_id":"0.0-13.0-0.57","match_key":"a","participant_id":"20"},{"rt":null,"stimulus":"<p style=\"font-size: 48px;\">+</p>","key_press":null,"block":1,"trial_type":"html-keyboard-response","trial_index":281,"time_elapsed":2464476,"internal_node_id":"0.0-13.0-1.57","match_key":"a","participant_id":"20"},{"rt":375.18000000249594,"stimulus":"Images/car_3.png","key_press":65,"stim_onset":1582145382099,"block":1,"match_type":"match","image_category":"car","sound_category":"car","audio_type":"label","phase":"test","trial_type":"image-keyboard-response","trial_index":282,"time_elapsed":2464853,"internal_node_id":"0.0-13.0-2.57","match_key":"a","participant_id":"20","correct":true},{"rt":null,"stimulus":"Sounds/correct.wav","key_press":null,"block":1,"trial_type":"audio-keyboard-response","trial_index":283,"time_elapsed":2466864,"internal_node_id":"0.0-13.0-3.57","match_key":"a","participant_id":"20"},{"rt":null,"stimulus":"Sounds/motorcycle_sound.wav","key_press":null,"block":1,"trial_type":"audio-keyboard-response","trial_index":284,"time_elapsed":2467987,"internal_node_id":"0.0-13.0-0.58","match_key":"a","participant_id":"20"},{"rt":null,"stimulus":"<p style=\"font-size: 48px;\">+</p>","key_press":null,"block":1,"trial_type":"html-keyboard-response","trial_index":285,"time_elapsed":2468976,"internal_node_id":"0.0-13.0-1.58","match_key":"a","participant_id":"20"},{"rt":507.48000000044703,"stimulus":"Images/motorcycle_orig.png","key_press":65,"stim_onset":1582145386599,"block":1,"match_type":"match","image_category":"motorcycle","sound_category":"motorcycle","audio_type":"sound","phase":"test","trial_type":"image-keyboard-response","trial_index":286,"time_elapsed":2469485,"internal_node_id":"0.0-13.0-2.58","match_key":"a","participant_id":"20","correct":true},{"rt":null,"stimulus":"Sounds/correct.wav","key_press":null,"block":1,"trial_type":"audio-keyboard-response","trial_index":287,"time_elapsed":2471498,"internal_node_id":"0.0-13.0-3.58","match_key":"a","participant_id":"20"},{"rt":null,"stimulus":"Sounds/whistle_sound.wav","key_press":null,"block":1,"trial_type":"audio-keyboard-response","trial_index":288,"time_elapsed":2472187,"internal_node_id":"0.0-13.0-0.59","match_key":"a","participant_id":"20"},{"rt":null,"stimulus":"<p style=\"font-size: 48px;\">+</p>","key_press":null,"block":1,"trial_type":"html-keyboard-response","trial_index":289,"time_elapsed":2473177,"internal_node_id":"0.0-13.0-1.59","match_key":"a","participant_id":"20"},{"rt":339.06500000786036,"stimulus":"Images/whistle_2.png","key_press":65,"stim_onset":1582145390799,"block":1,"match_type":"match","image_category":"whistle","sound_category":"whistle","audio_type":"sound","phase":"test","trial_type":"image-keyboard-response","trial_index":290,"time_elapsed":2473517,"internal_node_id":"0.0-13.0-2.59","match_key":"a","participant_id":"20","correct":true},{"rt":null,"stimulus":"Sounds/correct.wav","key_press":null,"block":1,"trial_type":"audio-keyboard-response","trial_index":291,"time_elapsed":2475531,"internal_node_id":"0.0-13.0-3.59","match_key":"a","participant_id":"20"},{"rt":null,"stimulus":"Sounds/rooster_sound.wav","key_press":null,"block":1,"trial_type":"audio-keyboard-response","trial_index":292,"time_elapsed":2476227,"internal_node_id":"0.0-13.0-0.60","match_key":"a","participant_id":"20"},{"rt":null,"stimulus":"<p style=\"font-size: 48px;\">+</p>","key_press":null,"block":1,"trial_type":"html-keyboard-response","trial_index":293,"time_elapsed":2477227,"internal_node_id":"0.0-13.0-1.60","match_key":"a","participant_id":"20"},{"rt":432.86500000953674,"stimulus":"Images/car_1.png","key_press":76,"stim_onset":1582145394849,"block":1,"match_type":"non-match","image_category":"car","sound_category":"rooster","audio_type":"sound","phase":"test","trial_type":"image-keyboard-response","trial_index":294,"time_elapsed":2477660,"internal_node_id":"0.0-13.0-2.60","match_key":"a","participant_id":"20","correct":true},{"rt":null,"stimulus":"Sounds/correct.wav","key_press":null,"block":1,"trial_type":"audio-keyboard-response","trial_index":295,"time_elapsed":2479665,"internal_node_id":"0.0-13.0-3.60","match_key":"a","participant_id":"20"},{"rt":null,"stimulus":"Sounds/car_sound.wav","key_press":null,"block":1,"trial_type":"audio-keyboard-response","trial_index":296,"time_elapsed":2480747,"internal_node_id":"0.0-13.0-0.61","match_key":"a","participant_id":"20"},{"rt":null,"stimulus":"<p style=\"font-size: 48px;\">+</p>","key_press":null,"block":1,"trial_type":"html-keyboard-response","trial_index":297,"time_elapsed":2481743,"internal_node_id":"0.0-13.0-1.61","match_key":"a","participant_id":"20"},{"rt":387.3200000086799,"stimulus":"Images/car_cartoon.png","key_press":65,"stim_onset":1582145399365,"block":1,"match_type":"match","image_category":"car","sound_category":"car","audio_type":"sound","phase":"test","trial_type":"image-keyboard-response","trial_index":298,"time_elapsed":2482133,"internal_node_id":"0.0-13.0-2.61","match_key":"a","participant_id":"20","correct":true},{"rt":null,"stimulus":"Sounds/correct.wav","key_press":null,"block":1,"trial_type":"audio-keyboard-response","trial_index":299,"time_elapsed":2484149,"internal_node_id":"0.0-13.0-3.61","match_key":"a","participant_id":"20"},{"rt":null,"stimulus":"Sounds/motorcycle_label.wav","key_press":null,"block":1,"trial_type":"audio-keyboard-response","trial_index":300,"time_elapsed":2485287,"internal_node_id":"0.0-13.0-0.62","match_key":"a","participant_id":"20"},{"rt":null,"stimulus":"<p style=\"font-size: 48px;\">+</p>","key_press":null,"block":1,"trial_type":"html-keyboard-response","trial_index":301,"time_elapsed":2486277,"internal_node_id":"0.0-13.0-1.62","match_key":"a","participant_id":"20"},{"rt":423.04500000271946,"stimulus":"Images/motorcycle_cartoon.png","key_press":65,"stim_onset":1582145403899,"block":1,"match_type":"match","image_category":"motorcycle","sound_category":"motorcycle","audio_type":"label","phase":"test","trial_type":"image-keyboard-response","trial_index":302,"time_elapsed":2486701,"internal_node_id":"0.0-13.0-2.62","match_key":"a","participant_id":"20","correct":true},{"rt":null,"stimulus":"Sounds/correct.wav","key_press":null,"block":1,"trial_type":"audio-keyboard-response","trial_index":303,"time_elapsed":2488717,"internal_node_id":"0.0-13.0-3.62","match_key":"a","participant_id":"20"},{"rt":null,"stimulus":"Sounds/whistle_sound.wav","key_press":null,"block":1,"trial_type":"audio-keyboard-response","trial_index":304,"time_elapsed":2489387,"internal_node_id":"0.0-13.0-0.63","match_key":"a","participant_id":"20"},{"rt":null,"stimulus":"<p style=\"font-size: 48px;\">+</p>","key_press":null,"block":1,"trial_type":"html-keyboard-response","trial_index":305,"time_elapsed":2490377,"internal_node_id":"0.0-13.0-1.63","match_key":"a","participant_id":"20"},{"rt":402.6650000018999,"stimulus":"Images/whistle_cartoon.png","key_press":65,"stim_onset":1582145407999,"block":1,"match_type":"match","image_category":"whistle","sound_category":"whistle","audio_type":"sound","phase":"test","trial_type":"image-keyboard-response","trial_index":306,"time_elapsed":2490781,"internal_node_id":"0.0-13.0-2.63","match_key":"a","participant_id":"20","correct":true},{"rt":null,"stimulus":"Sounds/correct.wav","key_press":null,"block":1,"trial_type":"audio-keyboard-response","trial_index":307,"time_elapsed":2492797,"internal_node_id":"0.0-13.0-3.63","match_key":"a","participant_id":"20"},{"rt":null,"stimulus":"Sounds/frog_label.wav","key_press":null,"block":1,"trial_type":"audio-keyboard-response","trial_index":308,"time_elapsed":2493707,"internal_node_id":"0.0-13.0-0.64","match_key":"a","participant_id":"20"},{"rt":null,"stimulus":"<p style=\"font-size: 48px;\">+</p>","key_press":null,"block":1,"trial_type":"html-keyboard-response","trial_index":309,"time_elapsed":2494710,"internal_node_id":"0.0-13.0-1.64","match_key":"a","participant_id":"20"},{"rt":437.5649999999441,"stimulus":"Images/motorcycle_cartoon.png","key_press":76,"stim_onset":1582145412332,"block":1,"match_type":"non-match","image_category":"motorcycle","sound_category":"frog","audio_type":"label","phase":"test","trial_type":"image-keyboard-response","trial_index":310,"time_elapsed":2495149,"internal_node_id":"0.0-13.0-2.64","match_key":"a","participant_id":"20","correct":true},{"rt":null,"stimulus":"Sounds/correct.wav","key_press":null,"block":1,"trial_type":"audio-keyboard-response","trial_index":311,"time_elapsed":2497165,"internal_node_id":"0.0-13.0-3.64","match_key":"a","participant_id":"20"},{"rt":null,"stimulus":"Sounds/train_label.wav","key_press":null,"block":1,"trial_type":"audio-keyboard-response","trial_index":312,"time_elapsed":2498447,"internal_node_id":"0.0-13.0-0.65","match_key":"a","participant_id":"20"},{"rt":null,"stimulus":"<p style=\"font-size: 48px;\">+</p>","key_press":null,"block":1,"trial_type":"html-keyboard-response","trial_index":313,"time_elapsed":2499444,"internal_node_id":"0.0-13.0-1.65","match_key":"a","participant_id":"20"},{"rt":936.0349999917671,"stimulus":"Images/train_1.png","key_press":65,"stim_onset":1582145417066,"block":1,"match_type":"match","image_category":"train","sound_category":"train","audio_type":"label","phase":"test","trial_type":"image-keyboard-response","trial_index":314,"time_elapsed":2500381,"internal_node_id":"0.0-13.0-2.65","match_key":"a","participant_id":"20","correct":true},{"rt":null,"stimulus":"Sounds/correct.wav","key_press":null,"block":1,"trial_type":"audio-keyboard-response","trial_index":315,"time_elapsed":2502397,"internal_node_id":"0.0-13.0-3.65","match_key":"a","participant_id":"20"},{"rt":null,"stimulus":"Sounds/cat_label.wav","key_press":null,"block":1,"trial_type":"audio-keyboard-response","trial_index":316,"time_elapsed":2503227,"internal_node_id":"0.0-13.0-0.66","match_key":"a","participant_id":"20"},{"rt":null,"stimulus":"<p style=\"font-size: 48px;\">+</p>","key_press":null,"block":1,"trial_type":"html-keyboard-response","trial_index":317,"time_elapsed":2504227,"internal_node_id":"0.0-13.0-1.66","match_key":"a","participant_id":"20"},{"rt":504.60000001452863,"stimulus":"Images/rooster_orig.png","key_press":76,"stim_onset":1582145421849,"block":1,"match_type":"non-match","image_category":"rooster","sound_category":"cat","audio_type":"label","phase":"test","trial_type":"image-keyboard-response","trial_index":318,"time_elapsed":2504733,"internal_node_id":"0.0-13.0-2.66","match_key":"a","participant_id":"20","correct":true},{"rt":null,"stimulus":"Sounds/correct.wav","key_press":null,"block":1,"trial_type":"audio-keyboard-response","trial_index":319,"time_elapsed":2506748,"internal_node_id":"0.0-13.0-3.66","match_key":"a","participant_id":"20"},{"rt":null,"stimulus":"Sounds/cat_sound.wav","key_press":null,"block":1,"trial_type":"audio-keyboard-response","trial_index":320,"time_elapsed":2507587,"internal_node_id":"0.0-13.0-0.67","match_key":"a","participant_id":"20"},{"rt":null,"stimulus":"<p style=\"font-size: 48px;\">+</p>","key_press":null,"block":1,"trial_type":"html-keyboard-response","trial_index":321,"time_elapsed":2508577,"internal_node_id":"0.0-13.0-1.67","match_key":"a","participant_id":"20"},{"rt":378.9350000154227,"stimulus":"Images/cat_cartoon.png","key_press":65,"stim_onset":1582145426199,"block":1,"match_type":"match","image_category":"cat","sound_category":"cat","audio_type":"sound","phase":"test","trial_type":"image-keyboard-response","trial_index":322,"time_elapsed":2508957,"internal_node_id":"0.0-13.0-2.67","match_key":"a","participant_id":"20","correct":true},{"rt":null,"stimulus":"Sounds/correct.wav","key_press":null,"block":1,"trial_type":"audio-keyboard-response","trial_index":323,"time_elapsed":2510967,"internal_node_id":"0.0-13.0-3.67","match_key":"a","participant_id":"20"},{"rt":null,"stimulus":"Sounds/train_sound.wav","key_press":null,"block":1,"trial_type":"audio-keyboard-response","trial_index":324,"time_elapsed":2512266,"internal_node_id":"0.0-13.0-0.68","match_key":"a","participant_id":"20"},{"rt":null,"stimulus":"<p style=\"font-size: 48px;\">+</p>","key_press":null,"block":1,"trial_type":"html-keyboard-response","trial_index":325,"time_elapsed":2513260,"internal_node_id":"0.0-13.0-1.68","match_key":"a","participant_id":"20"},{"rt":479.2200000085868,"stimulus":"Images/dog_cartoon.png","key_press":76,"stim_onset":1582145430882,"block":1,"match_type":"non-match","image_category":"dog","sound_category":"train","audio_type":"sound","phase":"test","trial_type":"image-keyboard-response","trial_index":326,"time_elapsed":2513740,"internal_node_id":"0.0-13.0-2.68","match_key":"a","participant_id":"20","correct":true},{"rt":null,"stimulus":"Sounds/correct.wav","key_press":null,"block":1,"trial_type":"audio-keyboard-response","trial_index":327,"time_elapsed":2515748,"internal_node_id":"0.0-13.0-3.68","match_key":"a","participant_id":"20"},{"rt":null,"stimulus":"Sounds/cat_label.wav","key_press":null,"block":1,"trial_type":"audio-keyboard-response","trial_index":328,"time_elapsed":2516566,"internal_node_id":"0.0-13.0-0.69","match_key":"a","participant_id":"20"},{"rt":null,"stimulus":"<p style=\"font-size: 48px;\">+</p>","key_press":null,"block":1,"trial_type":"html-keyboard-response","trial_index":329,"time_elapsed":2517559,"internal_node_id":"0.0-13.0-1.69","match_key":"a","participant_id":"20"},{"rt":563.9500000104308,"stimulus":"Images/cow_orig.png","key_press":76,"stim_onset":1582145435182,"block":1,"match_type":"non-match","image_category":"cow","sound_category":"cat","audio_type":"label","phase":"test","trial_type":"image-keyboard-response","trial_index":330,"time_elapsed":2518124,"internal_node_id":"0.0-13.0-2.69","match_key":"a","participant_id":"20","correct":true},{"rt":null,"stimulus":"Sounds/correct.wav","key_press":null,"block":1,"trial_type":"audio-keyboard-response","trial_index":331,"time_elapsed":2520133,"internal_node_id":"0.0-13.0-3.69","match_key":"a","participant_id":"20"},{"rt":null,"stimulus":"Sounds/dog_label.wav","key_press":null,"block":1,"trial_type":"audio-keyboard-response","trial_index":332,"time_elapsed":2520786,"internal_node_id":"0.0-13.0-0.70","match_key":"a","participant_id":"20"},{"rt":null,"stimulus":"<p style=\"font-size: 48px;\">+</p>","key_press":null,"block":1,"trial_type":"html-keyboard-response","trial_index":333,"time_elapsed":2521777,"internal_node_id":"0.0-13.0-1.70","match_key":"a","participant_id":"20"},{"rt":586.7200000211596,"stimulus":"Images/cow_1.png","key_press":76,"stim_onset":1582145439399,"block":1,"match_type":"non-match","image_category":"cow","sound_category":"dog","audio_type":"label","phase":"test","trial_type":"image-keyboard-response","trial_index":334,"time_elapsed":2522364,"internal_node_id":"0.0-13.0-2.70","match_key":"a","participant_id":"20","correct":true},{"rt":null,"stimulus":"Sounds/correct.wav","key_press":null,"block":1,"trial_type":"audio-keyboard-response","trial_index":335,"time_elapsed":2524381,"internal_node_id":"0.0-13.0-3.70","match_key":"a","participant_id":"20"},{"rt":null,"stimulus":"Sounds/whistle_sound.wav","key_press":null,"block":1,"trial_type":"audio-keyboard-response","trial_index":336,"time_elapsed":2525086,"internal_node_id":"0.0-13.0-0.71","match_key":"a","participant_id":"20"},{"rt":null,"stimulus":"<p style=\"font-size: 48px;\">+</p>","key_press":null,"block":1,"trial_type":"html-keyboard-response","trial_index":337,"time_elapsed":2526077,"internal_node_id":"0.0-13.0-1.71","match_key":"a","participant_id":"20"},{"rt":606.4450000119396,"stimulus":"Images/dog_2.png","key_press":76,"stim_onset":1582145443699,"block":1,"match_type":"non-match","image_category":"dog","sound_category":"whistle","audio_type":"sound","phase":"test","trial_type":"image-keyboard-response","trial_index":338,"time_elapsed":2526684,"internal_node_id":"0.0-13.0-2.71","match_key":"a","participant_id":"20","correct":true},{"rt":null,"stimulus":"Sounds/correct.wav","key_press":null,"block":1,"trial_type":"audio-keyboard-response","trial_index":339,"time_elapsed":2528699,"internal_node_id":"0.0-13.0-3.71","match_key":"a","participant_id":"20"},{"rt":null,"stimulus":"Sounds/gun_sound.wav","key_press":null,"block":1,"trial_type":"audio-keyboard-response","trial_index":340,"time_elapsed":2529286,"internal_node_id":"0.0-13.0-0.72","match_key":"a","participant_id":"20"},{"rt":null,"stimulus":"<p style=\"font-size: 48px;\">+</p>","key_press":null,"block":1,"trial_type":"html-keyboard-response","trial_index":341,"time_elapsed":2530277,"internal_node_id":"0.0-13.0-1.72","match_key":"a","participant_id":"20"},{"rt":566.3899999926798,"stimulus":"Images/motorcycle_orig.png","key_press":76,"stim_onset":1582145447899,"block":1,"match_type":"non-match","image_category":"motorcycle","sound_category":"gun","audio_type":"sound","phase":"test","trial_type":"image-keyboard-response","trial_index":342,"time_elapsed":2530844,"internal_node_id":"0.0-13.0-2.72","match_key":"a","participant_id":"20","correct":true},{"rt":null,"stimulus":"Sounds/correct.wav","key_press":null,"block":1,"trial_type":"audio-keyboard-response","trial_index":343,"time_elapsed":2532848,"internal_node_id":"0.0-13.0-3.72","match_key":"a","participant_id":"20"},{"rt":null,"stimulus":"Sounds/cat_sound.wav","key_press":null,"block":1,"trial_type":"audio-keyboard-response","trial_index":344,"time_elapsed":2533686,"internal_node_id":"0.0-13.0-0.73","match_key":"a","participant_id":"20"},{"rt":null,"stimulus":"<p style=\"font-size: 48px;\">+</p>","key_press":null,"block":1,"trial_type":"html-keyboard-response","trial_index":345,"time_elapsed":2534677,"internal_node_id":"0.0-13.0-1.73","match_key":"a","participant_id":"20"},{"rt":574.529999983497,"stimulus":"Images/dog_1.png","key_press":76,"stim_onset":1582145452299,"block":1,"match_type":"non-match","image_category":"dog","sound_category":"cat","audio_type":"sound","phase":"test","trial_type":"image-keyboard-response","trial_index":346,"time_elapsed":2535252,"internal_node_id":"0.0-13.0-2.73","match_key":"a","participant_id":"20","correct":true},{"rt":null,"stimulus":"Sounds/correct.wav","key_press":null,"block":1,"trial_type":"audio-keyboard-response","trial_index":347,"time_elapsed":2537265,"internal_node_id":"0.0-13.0-3.73","match_key":"a","participant_id":"20"},{"rt":null,"stimulus":"Sounds/cat_label.wav","key_press":null,"block":1,"trial_type":"audio-keyboard-response","trial_index":348,"time_elapsed":2538106,"internal_node_id":"0.0-13.0-0.74","match_key":"a","participant_id":"20"},{"rt":null,"stimulus":"<p style=\"font-size: 48px;\">+</p>","key_press":null,"block":1,"trial_type":"html-keyboard-response","trial_index":349,"time_elapsed":2539110,"internal_node_id":"0.0-13.0-1.74","match_key":"a","participant_id":"20"},{"rt":468.9950000029057,"stimulus":"Images/motorcycle_2.png","key_press":76,"stim_onset":1582145456732,"block":1,"match_type":"non-match","image_category":"motorcycle","sound_category":"cat","audio_type":"label","phase":"test","trial_type":"image-keyboard-response","trial_index":350,"time_elapsed":2539580,"internal_node_id":"0.0-13.0-2.74","match_key":"a","participant_id":"20","correct":true},{"rt":null,"stimulus":"Sounds/correct.wav","key_press":null,"block":1,"trial_type":"audio-keyboard-response","trial_index":351,"time_elapsed":2541587,"internal_node_id":"0.0-13.0-3.74","match_key":"a","participant_id":"20"},{"rt":null,"stimulus":"Sounds/dog_sound.wav","key_press":null,"block":1,"trial_type":"audio-keyboard-response","trial_index":352,"time_elapsed":2542286,"internal_node_id":"0.0-13.0-0.75","match_key":"a","participant_id":"20"},{"rt":null,"stimulus":"<p style=\"font-size: 48px;\">+</p>","key_press":null,"block":1,"trial_type":"html-keyboard-response","trial_index":353,"time_elapsed":2543277,"internal_node_id":"0.0-13.0-1.75","match_key":"a","participant_id":"20"},{"rt":486.47999999206513,"stimulus":"Images/gun_3.png","key_press":65,"stim_onset":1582145460899,"block":1,"match_type":"non-match","image_category":"gun","sound_category":"dog","audio_type":"sound","phase":"test","trial_type":"image-keyboard-response","trial_index":354,"time_elapsed":2543764,"internal_node_id":"0.0-13.0-2.75","match_key":"a","participant_id":"20","correct":false},{"rt":null,"stimulus":"Sounds/incorrect.wav","key_press":null,"block":1,"trial_type":"audio-keyboard-response","trial_index":355,"time_elapsed":2545781,"internal_node_id":"0.0-13.0-3.75","match_key":"a","participant_id":"20"},{"rt":null,"stimulus":"Sounds/car_label.wav","key_press":null,"block":1,"trial_type":"audio-keyboard-response","trial_index":356,"time_elapsed":2546866,"internal_node_id":"0.0-13.0-0.76","match_key":"a","participant_id":"20"},{"rt":null,"stimulus":"<p style=\"font-size: 48px;\">+</p>","key_press":null,"block":1,"trial_type":"html-keyboard-response","trial_index":357,"time_elapsed":2547860,"internal_node_id":"0.0-13.0-1.76","match_key":"a","participant_id":"20"},{"rt":567.0250000259839,"stimulus":"Images/train_3.png","key_press":76,"stim_onset":1582145465482,"block":1,"match_type":"non-match","image_category":"train","sound_category":"car","audio_type":"label","phase":"test","trial_type":"image-keyboard-response","trial_index":358,"time_elapsed":2548428,"internal_node_id":"0.0-13.0-2.76","match_key":"a","participant_id":"20","correct":true},{"rt":null,"stimulus":"Sounds/correct.wav","key_press":null,"block":1,"trial_type":"audio-keyboard-response","trial_index":359,"time_elapsed":2550432,"internal_node_id":"0.0-13.0-3.76","match_key":"a","participant_id":"20"},{"rt":null,"stimulus":"Sounds/cow_sound.wav","key_press":null,"block":1,"trial_type":"audio-keyboard-response","trial_index":360,"time_elapsed":2551446,"internal_node_id":"0.0-13.0-0.77","match_key":"a","participant_id":"20"},{"rt":null,"stimulus":"<p style=\"font-size: 48px;\">+</p>","key_press":null,"block":1,"trial_type":"html-keyboard-response","trial_index":361,"time_elapsed":2552444,"internal_node_id":"0.0-13.0-1.77","match_key":"a","participant_id":"20"},{"rt":767.3800000050105,"stimulus":"Images/cat_2.png","key_press":76,"stim_onset":1582145470066,"block":1,"match_type":"non-match","image_category":"cat","sound_category":"cow","audio_type":"sound","phase":"test","trial_type":"image-keyboard-response","trial_index":362,"time_elapsed":2553212,"internal_node_id":"0.0-13.0-2.77","match_key":"a","participant_id":"20","correct":true},{"rt":null,"stimulus":"Sounds/correct.wav","key_press":null,"block":1,"trial_type":"audio-keyboard-response","trial_index":363,"time_elapsed":2555215,"internal_node_id":"0.0-13.0-3.77","match_key":"a","participant_id":"20"},{"rt":null,"stimulus":"Sounds/cat_sound.wav","key_press":null,"block":1,"trial_type":"audio-keyboard-response","trial_index":364,"time_elapsed":2556066,"internal_node_id":"0.0-13.0-0.78","match_key":"a","participant_id":"20"},{"rt":null,"stimulus":"<p style=\"font-size: 48px;\">+</p>","key_press":null,"block":1,"trial_type":"html-keyboard-response","trial_index":365,"time_elapsed":2557060,"internal_node_id":"0.0-13.0-1.78","match_key":"a","participant_id":"20"},{"rt":