"rt","responses","trial_type","trial_index","time_elapsed","internal_node_id","match_key","participant_id","stimulus","key_press","block","stim_onset","match_type","image_category","sound_category","audio_type","phase","correct"
"10992.299999983516","{""Q0"":""22""}","survey-text","0","11030","0.0-0.0","l","22","","","","","","","","","",""
"26687.045000027865","","html-keyboard-response","1","37730","0.0-1.0","l","22","<p>Use KEYBOARD 1 (match RIGHT)</p><p>Press MATCH to continue.</p>","76","","","","","","","",""
"2153645.65999998","","html-keyboard-response","2","2190600","0.0-2.0","l","22","<p>Welcome to the experiment.</p>","32","","","","","","","",""
"25737.244999967515","","html-keyboard-response","3","2216343","0.0-3.0","l","22","<p>Thank you for agreeing to participate in this study.</p><p>If during any part of the procedure you must stop for any reason, please inform the researcher that you do not wish to continue.</p>","32","","","","","","","",""
"24494.96000004001","","html-keyboard-response","4","2240839","0.0-4.0","l","22","<p>In this experiment, you will hear various words or sounds and see pictures of various animals and objects.</p><p>Most of the images will be of common everyday objects, such as cars, cats, cows, firearms, frogs, chickens, whistles, trains, motorcycles, and dogs.</p><p>Some of the images will be real-life stills, while others will be cartoons.</p>","32","","","","","","","",""
"19023.350000032224","","html-keyboard-response","5","2259864","0.0-5.0","l","22","<p>Sometimes, the word/sound will match the picture, for example you'll hear a meowing sound and see a cat.</p><p>Other times, the picture will not match the sound or word.</p><p>Your task is to decide as quickly as possible if the word/sound matches the picture or not. </p>","32","","","","","","","",""
"14334.224999998696","","html-keyboard-response","6","2274199","0.0-6.0","l","22","<p>For example, if you hear the word ""cat"" or hear a meowing sound, and then see a picture of a cat, you should press the MATCH key.</p><p> If the sound and image do not match, press the NOT-MATCH key to indicate that there is not a match.</p>","32","","","","","","","",""
"14702.864999999292","","html-keyboard-response","7","2288903","0.0-7.0","l","22","<p>If you make a mistake, you will hear a buzzing sound instead of a more pleasant sound.</p><p> Try to respond as quickly as possible, while making as few errors as possible. If you are making mistakes, you are probably rushing.</p>","32","","","","","","","",""
"14783.220000041183","","html-keyboard-response","8","2303676","0.0-8.0","l","22","<p>Please try to not move or blink your eyes during the presentation of the images. You can move and blink between images.</p><p>During the experiment there will be some breaks during which you can rest your eyes.</p>","32","","","","","","","",""
"6446.215000003576","","html-keyboard-response","9","2310123","0.0-9.0","l","22","<p>We will begin with 10 practice trials. Please let the experimenter know if you have any questions.</p>","32","","","","","","","",""
"null","","audio-keyboard-response","10","2311485","0.0-10.0-0.0","l","22","Sounds/train_label.wav","null","0","","","","","","",""
"null","","html-keyboard-response","11","2312476","0.0-10.0-1.0","l","22","<p style=""font-size: 48px;"">+</p>","null","0","","","","","","",""
"1293.2250000303611","","image-keyboard-response","12","2313771","0.0-10.0-2.0","l","22","Images/train_1.png","76","0","1582300065633","match","train","train","label","practice","true"
"null","","audio-keyboard-response","13","2315788","0.0-10.0-3.0","l","22","Sounds/correct.wav","null","0","","","","","","",""
"null","","audio-keyboard-response","14","2316365","0.0-10.0-0.1","l","22","Sounds/gun_sound.wav","null","0","","","","","","",""
"null","","html-keyboard-response","15","2317359","0.0-10.0-1.1","l","22","<p style=""font-size: 48px;"">+</p>","null","0","","","","","","",""
"19114.6749999607","","image-keyboard-response","16","2336475","0.0-10.0-2.1","l","22","Images/motorcycle_1.png","76","0","1582300070516","non-match","motorcycle","gun","sound","practice","false"
"null","","audio-keyboard-response","17","2338487","0.0-10.0-3.1","l","22","Sounds/incorrect.wav","null","0","","","","","","",""
"null","","audio-keyboard-response","18","2339318","0.0-10.0-0.2","l","22","Sounds/cat_sound.wav","null","0","","","","","","",""
"null","","html-keyboard-response","19","2340309","0.0-10.0-1.2","l","22","<p style=""font-size: 48px;"">+</p>","null","0","","","","","","",""
"1140.4050000128336","","image-keyboard-response","20","2341451","0.0-10.0-2.2","l","22","Images/frog_orig.png","65","0","1582300093467","non-match","frog","cat","sound","practice","true"
"null","","audio-keyboard-response","21","2343463","0.0-10.0-3.2","l","22","Sounds/correct.wav","null","0","","","","","","",""
"null","","audio-keyboard-response","22","2344478","0.0-10.0-0.3","l","22","Sounds/cow_label.wav","null","0","","","","","","",""
"null","","html-keyboard-response","23","2345476","0.0-10.0-1.3","l","22","<p style=""font-size: 48px;"">+</p>","null","0","","","","","","",""
"757.4350000359118","","image-keyboard-response","24","2346235","0.0-10.0-2.3","l","22","Images/train_cartoon.png","65","0","1582300098633","non-match","train","cow","label","practice","true"
"null","","audio-keyboard-response","25","2348247","0.0-10.0-3.3","l","22","Sounds/correct.wav","null","0","","","","","","",""
"null","","audio-keyboard-response","26","2348938","0.0-10.0-0.4","l","22","Sounds/rooster_label.wav","null","0","","","","","","",""
"null","","html-keyboard-response","27","2349943","0.0-10.0-1.4","l","22","<p style=""font-size: 48px;"">+</p>","null","0","","","","","","",""
"498.77499998547137","","image-keyboard-response","28","2350443","0.0-10.0-2.4","l","22","Images/car_3.png","65","0","1582300103100","non-match","car","rooster","label","practice","true"
"null","","audio-keyboard-response","29","2352448","0.0-10.0-3.4","l","22","Sounds/correct.wav","null","0","","","","","","",""
"null","","audio-keyboard-response","30","2353518","0.0-10.0-0.5","l","22","Sounds/car_sound.wav","null","0","","","","","","",""
"null","","html-keyboard-response","31","2354510","0.0-10.0-1.5","l","22","<p style=""font-size: 48px;"">+</p>","null","0","","","","","","",""
"635.9299999894574","","image-keyboard-response","32","2355147","0.0-10.0-2.5","l","22","Images/car_1.png","76","0","1582300107667","match","car","car","sound","practice","true"
"null","","audio-keyboard-response","33","2357150","0.0-10.0-3.5","l","22","Sounds/correct.wav","null","0","","","","","","",""
"null","","audio-keyboard-response","34","2357838","0.0-10.0-0.6","l","22","Sounds/whistle_sound.wav","null","0","","","","","","",""
"null","","html-keyboard-response","35","2358843","0.0-10.0-1.6","l","22","<p style=""font-size: 48px;"">+</p>","null","0","","","","","","",""
"878.4899999736808","","image-keyboard-response","36","2359723","0.0-10.0-2.6","l","22","Images/cat_2.png","65","0","1582300112000","non-match","cat","whistle","sound","practice","true"
"null","","audio-keyboard-response","37","2361733","0.0-10.0-3.6","l","22","Sounds/correct.wav","null","0","","","","","","",""
"null","","audio-keyboard-response","38","2362758","0.0-10.0-0.7","l","22","Sounds/cow_sound.wav","null","0","","","","","","",""
"null","","html-keyboard-response","39","2363788","0.0-10.0-1.7","l","22","<p style=""font-size: 48px;"">+</p>","null","0","","","","","","",""
"729.7450000187382","","image-keyboard-response","40","2364519","0.0-10.0-2.7","l","22","Images/cow_cartoon.png","76","0","1582300116946","match","cow","cow","sound","practice","true"
"null","","audio-keyboard-response","41","2366527","0.0-10.0-3.7","l","22","Sounds/correct.wav","null","0","","","","","","",""
"null","","audio-keyboard-response","42","2367230","0.0-10.0-0.8","l","22","Sounds/dog_sound.wav","null","0","","","","","","",""
"null","","html-keyboard-response","43","2368222","0.0-10.0-1.8","l","22","<p style=""font-size: 48px;"">+</p>","null","0","","","","","","",""
"472.01500000664964","","image-keyboard-response","44","2368695","0.0-10.0-2.8","l","22","Images/dog_2.png","76","0","1582300121379","match","dog","dog","sound","practice","true"
"null","","audio-keyboard-response","45","2370711","0.0-10.0-3.8","l","22","Sounds/correct.wav","null","0","","","","","","",""
"null","","audio-keyboard-response","46","2371790","0.0-10.0-0.9","l","22","Sounds/car_label.wav","null","0","","","","","","",""
"null","","html-keyboard-response","47","2372789","0.0-10.0-1.9","l","22","<p style=""font-size: 48px;"">+</p>","null","0","","","","","","",""
"513.2449999800883","","image-keyboard-response","48","2373303","0.0-10.0-2.9","l","22","Images/car_3.png","76","0","1582300125945","match","car","car","label","practice","true"
"null","","audio-keyboard-response","49","2375311","0.0-10.0-3.9","l","22","Sounds/correct.wav","null","0","","","","","","",""
"64888.09999998193","","html-keyboard-response","50","2440199","0.0-11.0","l","22","<p>The rest of the experiment is divided into five blocks with 100 trials in each block. It will take about 45 minutes to complete.</p><p>The experimenter will be in the outer room and you can communicate with them through the monitor if you have any questions or wish to stop the experiment.</p>","32","","","","","","","",""
"5165.960000013001","","html-keyboard-response","51","2445366","0.0-12.0","l","22","<p>Remember, please try not to move or blink your eyes during the presentation of the images. </p><p>At the end of the experiment, we will show you your scores on the task so you can see how you did.</p><p>The experiment will start on the next screen.</p>","32","","","","","","","",""
"null","","audio-keyboard-response","52","2448238","0.0-13.0-0.0","l","22","Sounds/cat_sound.wav","null","1","","","","","","",""
"null","","html-keyboard-response","53","2449255","0.0-13.0-1.0","l","22","<p style=""font-size: 48px;"">+</p>","null","1","","","","","","",""
"509.8950000246987","","image-keyboard-response","54","2449766","0.0-13.0-2.0","l","22","Images/cat_3.png","76","1","1582300202412","match","cat","cat","sound","test","true"
"null","","audio-keyboard-response","55","2451776","0.0-13.0-3.0","l","22","Sounds/correct.wav","null","1","","","","","","",""
"null","","audio-keyboard-response","56","2452799","0.0-13.0-0.1","l","22","Sounds/cow_label.wav","null","1","","","","","","",""
"null","","html-keyboard-response","57","2453788","0.0-13.0-1.1","l","22","<p style=""font-size: 48px;"">+</p>","null","1","","","","","","",""
"488.7350000208244","","image-keyboard-response","58","2454278","0.0-13.0-2.1","l","22","Images/cow_orig.png","76","1","1582300206946","match","cow","cow","label","test","true"
"null","","audio-keyboard-response","59","2456293","0.0-13.0-3.1","l","22","Sounds/correct.wav","null","1","","","","","","",""
"null","","audio-keyboard-response","60","2456998","0.0-13.0-0.2","l","22","Sounds/whistle_label.wav","null","1","","","","","","",""
"null","","html-keyboard-response","61","2457989","0.0-13.0-1.2","l","22","<p style=""font-size: 48px;"">+</p>","null","1","","","","","","",""
"432.38000001292676","","image-keyboard-response","62","2458422","0.0-13.0-2.2","l","22","Images/dog_3.png","65","1","1582300211146","non-match","dog","whistle","label","test","true"
"null","","audio-keyboard-response","63","2460427","0.0-13.0-3.2","l","22","Sounds/correct.wav","null","1","","","","","","",""
"null","","audio-keyboard-response","64","2460998","0.0-13.0-0.3","l","22","Sounds/gun_label.wav","null","1","","","","","","",""
"null","","html-keyboard-response","65","2461989","0.0-13.0-1.3","l","22","<p style=""font-size: 48px;"">+</p>","null","1","","","","","","",""
"464.2149999854155","","image-keyboard-response","66","2462454","0.0-13.0-2.3","l","22","Images/cat_orig.png","65","1","1582300215146","non-match","cat","gun","label","test","true"
"null","","audio-keyboard-response","67","2464461","0.0-13.0-3.3","l","22","Sounds/correct.wav","null","1","","","","","","",""
"null","","audio-keyboard-response","68","2465738","0.0-13.0-0.4","l","22","Sounds/train_label.wav","null","1","","","","","","",""
"null","","html-keyboard-response","69","2466755","0.0-13.0-1.4","l","22","<p style=""font-size: 48px;"">+</p>","null","1","","","","","","",""
"401.8050000304356","","image-keyboard-response","70","2467158","0.0-13.0-2.4","l","22","Images/train_1.png","76","1","1582300219912","match","train","train","label","test","true"
"null","","audio-keyboard-response","71","2469161","0.0-13.0-3.4","l","22","Sounds/correct.wav","null","1","","","","","","",""
"null","","audio-keyboard-response","72","2469718","0.0-13.0-0.5","l","22","Sounds/gun_label.wav","null","1","","","","","","",""
"null","","html-keyboard-response","73","2470722","0.0-13.0-1.5","l","22","<p style=""font-size: 48px;"">+</p>","null","1","","","","","","",""
"626.8700000364333","","image-keyboard-response","74","2471350","0.0-13.0-2.5","l","22","Images/gun_2.png","76","1","1582300223879","match","gun","gun","label","test","true"
"null","","audio-keyboard-response","75","2473359","0.0-13.0-3.5","l","22","Sounds/correct.wav","null","1","","","","","","",""
"null","","audio-keyboard-response","76","2474018","0.0-13.0-0.6","l","22","Sounds/dog_label.wav","null","1","","","","","","",""
"null","","html-keyboard-response","77","2475022","0.0-13.0-1.6","l","22","<p style=""font-size: 48px;"">+</p>","null","1","","","","","","",""
"406.5650000120513","","image-keyboard-response","78","2475430","0.0-13.0-2.6","l","22","Images/dog_3.png","76","1","1582300228179","match","dog","dog","label","test","true"
"null","","audio-keyboard-response","79","2477443","0.0-13.0-3.6","l","22","Sounds/correct.wav","null","1","","","","","","",""
"null","","audio-keyboard-response","80","2478358","0.0-13.0-0.7","l","22","Sounds/frog_sound.wav","null","1","","","","","","",""
"null","","html-keyboard-response","81","2479355","0.0-13.0-1.7","l","22","<p style=""font-size: 48px;"">+</p>","null","1","","","","","","",""
"521.8199999653734","","image-keyboard-response","82","2479878","0.0-13.0-2.7","l","22","Images/frog_3.png","76","1","1582300232513","match","frog","frog","sound","test","true"
"null","","audio-keyboard-response","83","2481893","0.0-13.0-3.7","l","22","Sounds/correct.wav","null","1","","","","","","",""
"null","","audio-keyboard-response","84","2482778","0.0-13.0-0.8","l","22","Sounds/frog_sound.wav","null","1","","","","","","",""
"null","","html-keyboard-response","85","2483772","0.0-13.0-1.8","l","22","<p style=""font-size: 48px;"">+</p>","null","1","","","","","","",""
"536.7350000306033","","image-keyboard-response","86","2484310","0.0-13.0-2.8","l","22","Images/cow_2.png","65","1","1582300236929","non-match","cow","frog","sound","test","true"
"null","","audio-keyboard-response","87","2486321","0.0-13.0-3.8","l","22","Sounds/correct.wav","null","1","","","","","","",""
"null","","audio-keyboard-response","88","2487458","0.0-13.0-0.9","l","22","Sounds/motorcycle_label.wav","null","1","","","","","","",""
"null","","html-keyboard-response","89","2488456","0.0-13.0-1.9","l","22","<p style=""font-size: 48px;"">+</p>","null","1","","","","","","",""
"397.400000016205","","image-keyboard-response","90","2488854","0.0-13.0-2.9","l","22","Images/motorcycle_orig.png","76","1","1582300241613","match","motorcycle","motorcycle","label","test","true"
"null","","audio-keyboard-response","91","2490862","0.0-13.0-3.9","l","22","Sounds/correct.wav","null","1","","","","","","",""
"null","","audio-keyboard-response","92","2492138","0.0-13.0-0.10","l","22","Sounds/train_label.wav","null","1","","","","","","",""
"null","","html-keyboard-response","93","2493156","0.0-13.0-1.10","l","22","<p style=""font-size: 48px;"">+</p>","null","1","","","","","","",""
"609.5599999534898","","image-keyboard-response","94","2493766","0.0-13.0-2.10","l","22","Images/motorcycle_orig.png","65","1","1582300246313","non-match","motorcycle","train","label","test","true"
"null","","audio-keyboard-response","95","2495777","0.0-13.0-3.10","l","22","Sounds/correct.wav","null","1","","","","","","",""
"null","","audio-keyboard-response","96","2496859","0.0-13.0-0.11","l","22","Sounds/car_sound.wav","null","1","","","","","","",""
"null","","html-keyboard-response","97","2497857","0.0-13.0-1.11","l","22","<p style=""font-size: 48px;"">+</p>","null","1","","","","","","",""
"453.3999999985099","","image-keyboard-response","98","2498311","0.0-13.0-2.11","l","22","Images/car_2.png","76","1","1582300251014","match","car","car","sound","test","true"
"null","","audio-keyboard-response","99","2500327","0.0-13.0-3.11","l","22","Sounds/correct.wav","null","1","","","","","","",""
"null","","audio-keyboard-response","100","2501339","0.0-13.0-0.12","l","22","Sounds/cow_sound.wav","null","1","","","","","","",""
"null","","html-keyboard-response","101","2502357","0.0-13.0-1.12","l","22","<p style=""font-size: 48px;"">+</p>","null","1","","","","","","",""
"480.7549999677576","","image-keyboard-response","102","2502839","0.0-13.0-2.12","l","22","Images/cow_1.png","76","1","1582300255514","match","cow","cow","sound","test","true"
"null","","audio-keyboard-response","103","2504850","0.0-13.0-3.12","l","22","Sounds/correct.wav","null","1","","","","","","",""
"null","","audio-keyboard-response","104","2505739","0.0-13.0-0.13","l","22","Sounds/frog_label.wav","null","1","","","","","","",""
"null","","html-keyboard-response","105","2506757","0.0-13.0-1.13","l","22","<p style=""font-size: 48px;"">+</p>","null","1","","","","","","",""
"481.4100000075996","","image-keyboard-response","106","2507239","0.0-13.0-2.13","l","22","Images/frog_cartoon.png","76","1","1582300259914","match","frog","frog","label","test","true"
"null","","audio-keyboard-response","107","2509246","0.0-13.0-3.13","l","22","Sounds/correct.wav","null","1","","","","","","",""
"null","","audio-keyboard-response","108","2509819","0.0-13.0-0.14","l","22","Sounds/gun_sound.wav","null","1","","","","","","",""
"null","","html-keyboard-response","109","2510807","0.0-13.0-1.14","l","22","<p style=""font-size: 48px;"">+</p>","null","1","","","","","","",""
"767.4950000364333","","image-keyboard-response","110","2511575","0.0-13.0-2.14","l","22","Images/rooster_2.png","65","1","1582300263964","non-match","rooster","gun","sound","test","true"
"null","","audio-keyboard-response","111","2513579","0.0-13.0-3.14","l","22","Sounds/correct.wav","null","1","","","","","","",""
"null","","audio-keyboard-response","112","2514279","0.0-13.0-0.15","l","22","Sounds/rooster_label.wav","null","1","","","","","","",""
"null","","html-keyboard-response","113","2515274","0.0-13.0-1.15","l","22","<p style=""font-size: 48px;"">+</p>","null","1","","","","","","",""
"572.6049999939278","","image-keyboard-response","114","2515847","0.0-13.0-2.15","l","22","Images/rooster_cartoon.png","76","1","1582300268431","match","rooster","rooster","label","test","true"
"null","","audio-keyboard-response","115","2517862","0.0-13.0-3.15","l","22","Sounds/correct.wav","null","1","","","","","","",""
"null","","audio-keyboard-response","116","2518519","0.0-13.0-0.16","l","22","Sounds/dog_label.wav","null","1","","","","","","",""
"null","","html-keyboard-response","117","2519507","0.0-13.0-1.16","l","22","<p style=""font-size: 48px;"">+</p>","null","1","","","","","","",""
"675.199999997858","","image-keyboard-response","118","2520183","0.0-13.0-2.16","l","22","Images/dog_2.png","76","1","1582300272664","match","dog","dog","label","test","true"
"null","","audio-keyboard-response","119","2522194","0.0-13.0-3.16","l","22","Sounds/correct.wav","null","1","","","","","","",""
"null","","audio-keyboard-response","120","2522899","0.0-13.0-0.17","l","22","Sounds/rooster_sound.wav","null","1","","","","","","",""
"null","","html-keyboard-response","121","2523890","0.0-13.0-1.17","l","22","<p style=""font-size: 48px;"">+</p>","null","1","","","","","","",""
"547.8950000251643","","image-keyboard-response","122","2524439","0.0-13.0-2.17","l","22","Images/whistle_3.png","65","1","1582300277048","non-match","whistle","rooster","sound","test","true"
"null","","audio-keyboard-response","123","2526448","0.0-13.0-3.17","l","22","Sounds/correct.wav","null","1","","","","","","",""
"null","","audio-keyboard-response","124","2527739","0.0-13.0-0.18","l","22","Sounds/train_sound.wav","null","1","","","","","","",""
"null","","html-keyboard-response","125","2528757","0.0-13.0-1.18","l","22","<p style=""font-size: 48px;"">+</p>","null","1","","","","","","",""
"496.92000000504777","","image-keyboard-response","126","2529255","0.0-13.0-2.18","l","22","Images/frog_cartoon.png","65","1","1582300281914","non-match","frog","train","sound","test","true"
"null","","audio-keyboard-response","127","2531259","0.0-13.0-3.18","l","22","Sounds/correct.wav","null","1","","","","","","",""
"null","","audio-keyboard-response","128","2531939","0.0-13.0-0.19","l","22","Sounds/rooster_sound.wav","null","1","","","","","","",""
"null","","html-keyboard-response","129","2532957","0.0-13.0-1.19","l","22","<p style=""font-size: 48px;"">+</p>","null","1","","","","","","",""
"505.04499999806285","","image-keyboard-response","130","2533463","0.0-13.0-2.19","l","22","Images/cat_3.png","65","1","1582300286114","non-match","cat","rooster","sound","test","true"
"null","","audio-keyboard-response","131","2535480","0.0-13.0-3.19","l","22","Sounds/correct.wav","null","1","","","","","","",""
"null","","audio-keyboard-response","132","2536059","0.0-13.0-0.20","l","22","Sounds/gun_label.wav","null","1","","","","","","",""
"null","","html-keyboard-response","133","2537057","0.0-13.0-1.20","l","22","<p style=""font-size: 48px;"">+</p>","null","1","","","","","","",""
"516.7850000434555","","image-keyboard-response","134","2537575","0.0-13.0-2.20","l","22","Images/frog_2.png","65","1","1582300290214","non-match","frog","gun","label","test","true"
"null","","audio-keyboard-response","135","2539579","0.0-13.0-3.20","l","22","Sounds/correct.wav","null","1","","","","","","",""
"null","","audio-keyboard-response","136","2540659","0.0-13.0-0.21","l","22","Sounds/car_sound.wav","null","1","","","","","","",""
"null","","html-keyboard-response","137","2541657","0.0-13.0-1.21","l","22","<p style=""font-size: 48px;"">+</p>","null","1","","","","","","",""
"492.89000005228445","","image-keyboard-response","138","2542151","0.0-13.0-2.21","l","22","Images/frog_3.png","65","1","1582300294814","non-match","frog","car","sound","test","true"
"null","","audio-keyboard-response","139","2544161","0.0-13.0-3.21","l","22","Sounds/correct.wav","null","1","","","","","","",""
"null","","audio-keyboard-response","140","2544859","0.0-13.0-0.22","l","22","Sounds/whistle_label.wav","null","1","","","","","","",""
"null","","html-keyboard-response","141","2545857","0.0-13.0-1.22","l","22","<p style=""font-size: 48px;"">+</p>","null","1","","","","","","",""
"693.1000000331551","","image-keyboard-response","142","2546551","0.0-13.0-2.22","l","22","Images/whistle_2.png","76","1","1582300299014","match","whistle","whistle","label","test","true"
"null","","audio-keyboard-response","143","2548561","0.0-13.0-3.22","l","22","Sounds/correct.wav","null","1","","","","","","",""
"null","","audio-keyboard-response","144","2549259","0.0-13.0-0.23","l","22","Sounds/whistle_sound.wav","null","1","","","","","","",""
"null","","html-keyboard-response","145","2550257","0.0-13.0-1.23","l","22","<p style=""font-size: 48px;"">+</p>","null","1","","","","","","",""
"772.8800000040792","","image-keyboard-response","146","2551031","0.0-13.0-2.23","l","22","Images/whistle_3.png","76","1","1582300303414","match","whistle","whistle","sound","test","true"
"null","","audio-keyboard-response","147","2553045","0.0-13.0-3.23","l","22","Sounds/correct.wav","null","1","","","","","","",""
"null","","audio-keyboard-response","148","2554059","0.0-13.0-0.24","l","22","Sounds/cow_sound.wav","null","1","","","","","","",""
"null","","html-keyboard-response","149","2555057","0.0-13.0-1.24","l","22","<p style=""font-size: 48px;"">+</p>","null","1","","","","","","",""
"500.934999960009","","image-keyboard-response","150","2555559","0.0-13.0-2.24","l","22","Images/gun_orig.png","65","1","1582300308215","non-match","gun","cow","sound","test","true"
"null","","audio-keyboard-response","151","2557563","0.0-13.0-3.24","l","22","Sounds/correct.wav","null","1","","","","","","",""
"null","","audio-keyboard-response","152","2558139","0.0-13.0-0.25","l","22","Sounds/gun_sound.wav","null","1","","","","","","",""
"null","","html-keyboard-response","153","2559141","0.0-13.0-1.25","l","22","<p style=""font-size: 48px;"">+</p>","null","1","","","","","","",""
"833.53999996325","","image-keyboard-response","154","2559975","0.0-13.0-2.25","l","22","Images/motorcycle_1.png","65","1","1582300312298","non-match","motorcycle","gun","sound","test","true"
"null","","audio-keyboard-response","155","2561981","0.0-13.0-3.25","l","22","Sounds/correct.wav","null","1","","","","","","",""
"null","","audio-keyboard-response","156","2562879","0.0-13.0-0.26","l","22","Sounds/frog_label.wav","null","1","","","","","","",""
"null","","html-keyboard-response","157","2563874","0.0-13.0-1.26","l","22","<p style=""font-size: 48px;"">+</p>","null","1","","","","","","",""
"548.1349999899976","","image-keyboard-response","158","2564423","0.0-13.0-2.26","l","22","Images/gun_cartoon.png","65","1","1582300317031","non-match","gun","frog","label","test","true"
"null","","audio-keyboard-response","159","2566431","0.0-13.0-3.26","l","22","Sounds/correct.wav","null","1","","","","","","",""
"null","","audio-keyboard-response","160","2567279","0.0-13.0-0.27","l","22","Sounds/cat_sound.wav","null","1","","","","","","",""
"null","","html-keyboard-response","161","2568274","0.0-13.0-1.27","l","22","<p style=""font-size: 48px;"">+</p>","null","1","","","","","","",""
"419.98500004410744","","image-keyboard-response","162","2568695","0.0-13.0-2.27","l","22","Images/cat_1.png","76","1","1582300321431","match","cat","cat","sound","test","true"
"null","","audio-keyboard-response","163","2570712","0.0-13.0-3.27","l","22","Sounds/correct.wav","null","1","","","","","","",""
"null","","audio-keyboard-response","164","2571839","0.0-13.0-0.28","l","22","Sounds/motorcycle_label.wav","null","1","","","","","","",""
"null","","html-keyboard-response","165","2572841","0.0-13.0-1.28","l","22","<p style=""font-size: 48px;"">+</p>","null","1","","","","","","",""
"365.3899999917485","","image-keyboard-response","166","2573207","0.0-13.0-2.28","l","22","Images/motorcycle_3.png","76","1","1582300325998","match","motorcycle","motorcycle","label","test","true"
"null","","audio-keyboard-response","167","2575213","0.0-13.0-3.28","l","22","Sounds/correct.wav","null","1","","","","","","",""
"null","","audio-keyboard-response","168","2576299","0.0-13.0-0.29","l","22","Sounds/car_sound.wav","null","1","","","","","","",""
"null","","html-keyboard-response","169","2577291","0.0-13.0-1.29","l","22","<p style=""font-size: 48px;"">+</p>","null","1","","","","","","",""
"538.9899999718182","","image-keyboard-response","170","2577831","0.0-13.0-2.29","l","22","Images/car_orig.png","76","1","1582300330448","match","car","car","sound","test","true"
"null","","audio-keyboard-response","171","2579845","0.0-13.0-3.29","l","22","Sounds/correct.wav","null","1","","","","","","",""
"null","","audio-keyboard-response","172","2580739","0.0-13.0-0.30","l","22","Sounds/frog_label.wav","null","1","","","","","","",""
"null","","html-keyboard-response","173","2581741","0.0-13.0-1.30","l","22","<p style=""font-size: 48px;"">+</p>","null","1","","","","","","",""
"457.05999998608604","","image-keyboard-response","174","2582199","0.0-13.0-2.30","l","22","Images/motorcycle_cartoon.png","65","1","1582300334898","non-match","motorcycle","frog","label","test","true"
"null","","audio-keyboard-response","175","2584213","0.0-13.0-3.30","l","22","Sounds/correct.wav","null","1","","","","","","",""
"null","","audio-keyboard-response","176","2585239","0.0-13.0-0.31","l","22","Sounds/cow_label.wav","null","1","","","","","","",""
"null","","html-keyboard-response","177","2586241","0.0-13.0-1.31","l","22","<p style=""font-size: 48px;"">+</p>","null","1","","","","","","",""
"389.46500001475215","","image-keyboard-response","178","2586632","0.0-13.0-2.31","l","22","Images/cow_2.png","76","1","1582300339398","match","cow","cow","label","test","true"
"null","","audio-keyboard-response","179","2588645","0.0-13.0-3.31","l","22","Sounds/correct.wav","null","1","","","","","","",""
"null","","audio-keyboard-response","180","2589759","0.0-13.0-0.32","l","22","Sounds/motorcycle_sound.wav","null","1","","","","","","",""
"null","","html-keyboard-response","181","2590758","0.0-13.0-1.32","l","22","<p style=""font-size: 48px;"">+</p>","null","1","","","","","","",""
"512.3050000402145","","image-keyboard-response","182","2591271","0.0-13.0-2.32","l","22","Images/whistle_1.png","65","1","1582300343915","non-match","whistle","motorcycle","sound","test","true"
"null","","audio-keyboard-response","183","2593280","0.0-13.0-3.32","l","22","Sounds/correct.wav","null","1","","","","","","",""
"null","","audio-keyboard-response","184","2593979","0.0-13.0-0.33","l","22","Sounds/dog_sound.wav","null","1","","","","","","",""
"null","","html-keyboard-response","185","2594975","0.0-13.0-1.33","l","22","<p style=""font-size: 48px;"">+</p>","null","1","","","","","","",""
"615.8149999682792","","image-keyboard-response","186","2595591","0.0-13.0-2.33","l","22","Images/rooster_3.png","65","1","1582300348132","non-match","rooster","dog","sound","test","true"
"null","","audio-keyboard-response","187","2597597","0.0-13.0-3.33","l","22","Sounds/correct.wav","null","1","","","","","","",""
"null","","audio-keyboard-response","188","2598179","0.0-13.0-0.34","l","22","Sounds/gun_sound.wav","null","1","","","","","","",""
"null","","html-keyboard-response","189","2599175","0.0-13.0-1.34","l","22","<p style=""font-size: 48px;"">+</p>","null","1","","","","","","",""
"1135.6900000246242","","image-keyboard-response","190","2600311","0.0-13.0-2.34","l","22","Images/gun_3.png","76","1","1582300352332","match","gun","gun","sound","test","true"
"null","","audio-keyboard-response","191","2602328","0.0-13.0-3.34","l","22","Sounds/correct.wav","null","1","","","","","","",""
"null","","audio-keyboard-response","192","2603159","0.0-13.0-0.35","l","22","Sounds/cat_sound.wav","null","1","","","","","","",""
"null","","html-keyboard-response","193","2604158","0.0-13.0-1.35","l","22","<p style=""font-size: 48px;"">+</p>","null","1","","","","","","",""
"614.8800000082701","","image-keyboard-response","194","2604775","0.0-13.0-2.35","l","22","Images/cow_3.png","65","1","1582300357315","non-match","cow","cat","sound","test","true"
"null","","audio-keyboard-response","195","2606781","0.0-13.0-3.35","l","22","Sounds/correct.wav","null","1","","","","","","",""
"null","","audio-keyboard-response","196","2607359","0.0-13.0-0.36","l","22","Sounds/gun_label.wav","null","1","","","","","","",""
"null","","html-keyboard-response","197","2608358","0.0-13.0-1.36","l","22","<p style=""font-size: 48px;"">+</p>","null","1","","","","","","",""
"575.5050000152551","","image-keyboard-response","198","2608935","0.0-13.0-2.36","l","22","Images/gun_orig.png","76","1","1582300361515","match","gun","gun","label","test","true"
"null","","audio-keyboard-response","199","2610944","0.0-13.0-3.36","l","22","Sounds/correct.wav","null","1","","","","","","",""
"null","","audio-keyboard-response","200","2611639","0.0-13.0-0.37","l","22","Sounds/rooster_label.wav","null","1","","","","","","",""
"null","","html-keyboard-response","201","2612642","0.0-13.0-1.37","l","22","<p style=""font-size: 48px;"">+</p>","null","1","","","","","","",""
"580.7999999960884","","image-keyboard-response","202","2613223","0.0-13.0-2.37","l","22","Images/cow_cartoon.png","65","1","1582300365799","non-match","cow","rooster","label","test","true"
"null","","audio-keyboard-response","203","2615232","0.0-13.0-3.37","l","22","Sounds/correct.wav","null","1","","","","","","",""
"null","","audio-keyboard-response","204","2616379","0.0-13.0-0.38","l","22","Sounds/motorcycle_label.wav","null","1","","","","","","",""
"null","","html-keyboard-response","205","2617375","0.0-13.0-1.38","l","22","<p style=""font-size: 48px;"">+</p>","null","1","","","","","","",""
"343.4000000124797","","image-keyboard-response","206","2617720","0.0-13.0-2.38","l","22","Images/dog_1.png","65","1","1582300370532","non-match","dog","motorcycle","label","test","true"
"null","","audio-keyboard-response","207","2619728","0.0-13.0-3.38","l","22","Sounds/correct.wav","null","1","","","","","","",""
"null","","audio-keyboard-response","208","2620839","0.0-13.0-0.39","l","22","Sounds/motorcycle_sound.wav","null","1","","","","","","",""
"null","","html-keyboard-response","209","2621842","0.0-13.0-1.39","l","22","<p style=""font-size: 48px;"">+</p>","null","1","","","","","","",""
"756.6600000136532","","image-keyboard-response","210","2622600","0.0-13.0-2.39","l","22","Images/train_orig.png","65","1","1582300374999","non-match","train","motorcycle","sound","test","true"
"null","","audio-keyboard-response","211","2624613","0.0-13.0-3.39","l","22","Sounds/correct.wav","null","1","","","","","","",""
"null","","audio-keyboard-response","212","2625919","0.0-13.0-0.40","l","22","Sounds/train_sound.wav","null","1","","","","","","",""
"null","","html-keyboard-response","213","2626926","0.0-13.0-1.40","l","22","<p style=""font-size: 48px;"">+</p>","null","1","","","","","","",""
"601.459999976214","","image-keyboard-response","214","2627528","0.0-13.0-2.40","l","22","Images/train_2.png","76","1","1582300380082","match","train","train","sound","test","true"
"null","","audio-keyboard-response","215","2629532","0.0-13.0-3.40","l","22","Sounds/correct.wav","null","1","","","","","","",""
"null","","audio-keyboard-response","216","2630219","0.0-13.0-0.41","l","22","Sounds/rooster_sound.wav","null","1","","","","","","",""
"null","","html-keyboard-response","217","2631209","0.0-13.0-1.41","l","22","<p style=""font-size: 48px;"">+</p>","null","1","","","","","","",""
"542.0499999891035","","image-keyboard-response","218","2631752","0.0-13.0-2.41","l","22","Images/rooster_1.png","76","1","1582300384366","match","rooster","rooster","sound","test","true"
"null","","audio-keyboard-response","219","2633763","0.0-13.0-3.41","l","22","Sounds/correct.wav","null","1","","","","","","",""
"null","","audio-keyboard-response","220","2634599","0.0-13.0-0.42","l","22","Sounds/cat_label.wav","null","1","","","","","","",""
"null","","html-keyboard-response","221","2635592","0.0-13.0-1.42","l","22","<p style=""font-size: 48px;"">+</p>","null","1","","","","","","",""
"430.5550000281073","","image-keyboard-response","222","2636024","0.0-13.0-2.42","l","22","Images/frog_orig.png","65","1","1582300388749","non-match","frog","cat","label","test","true"
"null","","audio-keyboard-response","223","2638032","0.0-13.0-3.42","l","22","Sounds/correct.wav","null","1","","","","","","",""
"null","","audio-keyboard-response","224","2638699","0.0-13.0-0.43","l","22","Sounds/dog_label.wav","null","1","","","","","","",""
"null","","html-keyboard-response","225","2639692","0.0-13.0-1.43","l","22","<p style=""font-size: 48px;"">+</p>","null","1","","","","","","",""
"586.5500000072643","","image-keyboard-response","226","2640280","0.0-13.0-2.43","l","22","Images/dog_1.png","65","1","1582300392849","match","dog","dog","label","test","false"
"null","","audio-keyboard-response","227","2642297","0.0-13.0-3.43","l","22","Sounds/incorrect.wav","null","1","","","","","","",""
"null","","audio-keyboard-response","228","2642919","0.0-13.0-0.44","l","22","Sounds/dog_label.wav","null","1","","","","","","",""
"null","","html-keyboard-response","229","2643909","0.0-13.0-1.44","l","22","<p style=""font-size: 48px;"">+</p>","null","1","","","","","","",""
"673.9349999697879","","image-keyboard-response","230","2644584","0.0-13.0-2.44","l","22","Images/dog_orig.png","76","1","1582300397066","match","dog","dog","label","test","true"
"null","","audio-keyboard-response","231","2646597","0.0-13.0-3.44","l","22","Sounds/correct.wav","null","1","","","","","","",""
"null","","audio-keyboard-response","232","2647299","0.0-13.0-0.45","l","22","Sounds/whistle_label.wav","null","1","","","","","","",""
"null","","html-keyboard-response","233","2648292","0.0-13.0-1.45","l","22","<p style=""font-size: 48px;"">+</p>","null","1","","","","","","",""
"594.5300000021234","","image-keyboard-response","234","2648888","0.0-13.0-2.45","l","22","Images/gun_3.png","65","1","1582300401449","non-match","gun","whistle","label","test","true"
"null","","audio-keyboard-response","235","2650897","0.0-13.0-3.45","l","22","Sounds/correct.wav","null","1","","","","","","",""
"null","","audio-keyboard-response","236","2651739","0.0-13.0-0.46","l","22","Sounds/cat_sound.wav","null","1","","","","","","",""
"null","","html-keyboard-response","237","2652742","0.0-13.0-1.46","l","22","<p style=""font-size: 48px;"">+</p>","null","1","","","","","","",""
"431.209999951534","","image-keyboard-response","238","2653176","0.0-13.0-2.46","l","22","Images/train_cartoon.png","65","1","1582300405900","non-match","train","cat","sound","test","true"
"null","","audio-keyboard-response","239","2655182","0.0-13.0-3.46","l","22","Sounds/correct.wav","null","1","","","","","","",""
"null","","audio-keyboard-response","240","2655859","0.0-13.0-0.47","l","22","Sounds/whistle_label.wav","null","1","","","","","","",""
"null","","html-keyboard-response","241","2656859","0.0-13.0-1.47","l","22","<p style=""font-size: 48px;"">+</p>","null","1","","","","","","",""
"539.6700000273995","","image-keyboard-response","242","2657400","0.0-13.0-2.47","l","22","Images/whistle_orig.png","76","1","1582300410016","match","whistle","whistle","label","test","true"
"null","","audio-keyboard-response","243","2659413","0.0-13.0-3.47","l","22","Sounds/correct.wav","null","1","","","","","","",""
"null","","audio-keyboard-response","244","2660499","0.0-13.0-0.48","l","22","Sounds/car_label.wav","null","1","","","","","","",""
"null","","html-keyboard-response","245","2661492","0.0-13.0-1.48","l","22","<p style=""font-size: 48px;"">+</p>","null","1","","","","","","",""
"674.2399999639019","","image-keyboard-response","246","2662168","0.0-13.0-2.48","l","22","Images/train_3.png","65","1","1582300414650","non-match","train","car","label","test","true"
"null","","audio-keyboard-response","247","2664185","0.0-13.0-3.48","l","22","Sounds/correct.wav","null","1","","","","","","",""
"null","","audio-keyboard-response","248","2665259","0.0-13.0-0.49","l","22","Sounds/car_sound.wav","null","1","","","","","","",""
"null","","html-keyboard-response","249","2666259","0.0-13.0-1.49","l","22","<p style=""font-size: 48px;"">+</p>","null","1","","","","","","",""
"452.0000000484288","","image-keyboard-response","250","2666712","0.0-13.0-2.49","l","22","Images/rooster_1.png","65","1","1582300419416","non-match","rooster","car","sound","test","true"
"null","","audio-keyboard-response","251","2668715","0.0-13.0-3.49","l","22","Sounds/correct.wav","null","1","","","","","","",""
"null","","audio-keyboard-response","252","2669739","0.0-13.0-0.50","l","22","Sounds/cow_sound.wav","null","1","","","","","","",""
"null","","html-keyboard-response","253","2670743","0.0-13.0-1.50","l","22","<p style=""font-size: 48px;"">+</p>","null","1","","","","","","",""
"560.2249999647029","","image-keyboard-response","254","2671304","0.0-13.0-2.50","l","22","Images/motorcycle_2.png","65","1","1582300423900","non-match","motorcycle","cow","sound","test","true"
"null","","audio-keyboard-response","255","2673313","0.0-13.0-3.50","l","22","Sounds/correct.wav","null","1","","","","","","",""
"null","","audio-keyboard-response","256","2673979","0.0-13.0-0.51","l","22","Sounds/dog_label.wav","null","1","","","","","","",""
"null","","html-keyboard-response","257","2674976","0.0-13.0-1.51","l","22","<p style=""font-size: 48px;"">+</p>","null","1","","","","","","",""
"470.69500002544373","","image-keyboard-response","258","2675448","0.0-13.0-2.51","l","22","Images/motorcycle_3.png","65","1","1582300428133","non-match","motorcycle","dog","label","test","true"
"null","","audio-keyboard-response","259","2677464","0.0-13.0-3.51","l","22","Sounds/correct.wav","null","1","","","","","","",""
"null","","audio-keyboard-response","260","2678159","0.0-13.0-0.52","l","22","Sounds/rooster_label.wav","null","1","","","","","","",""
"null","","html-keyboard-response","261","2679159","0.0-13.0-1.52","l","22","<p style=""font-size: 48px;"">+</p>","null","1","","","","","","",""
"399.50499997939914","","image-keyboard-response","262","2679560","0.0-13.0-2.52","l","22","Images/train_2.png","65","1","1582300432317","non-match","train","rooster","label","test","true"
"null","","audio-keyboard-response","263","2681564","0.0-13.0-3.52","l","22","Sounds/correct.wav","null","1","","","","","","",""
"null","","audio-keyboard-response","264","2682699","0.0-13.0-0.53","l","22","Sounds/motorcycle_label.wav","null","1","","","","","","",""
"null","","html-keyboard-response","265","2683693","0.0-13.0-1.53","l","22","<p style=""font-size: 48px;"">+</p>","null","1","","","","","","",""
"554.0400000172667","","image-keyboard-response","266","2684248","0.0-13.0-2.53","l","22","Images/motorcycle_2.png","76","1","1582300436850","match","motorcycle","motorcycle","label","test","true"
"null","","audio-keyboard-response","267","2686265","0.0-13.0-3.53","l","22","Sounds/correct.wav","null","1","","","","","","",""
"null","","audio-keyboard-response","268","2686840","0.0-13.0-0.54","l","22","Sounds/gun_label.wav","null","1","","","","","","",""
"null","","html-keyboard-response","269","2687843","0.0-13.0-1.54","l","22","<p style=""font-size: 48px;"">+</p>","null","1","","","","","","",""
"388.1050000200048","","image-keyboard-response","270","2688232","0.0-13.0-2.54","l","22","Images/dog_orig.png","65","1","1582300441000","non-match","dog","gun","label","test","true"
"null","","audio-keyboard-response","271","2690247","0.0-13.0-3.54","l","22","Sounds/correct.wav","null","1","","","","","","",""
"null","","audio-keyboard-response","272","2690920","0.0-13.0-0.55","l","22","Sounds/rooster_label.wav","null","1","","","","","","",""
"null","","html-keyboard-response","273","2691910","0.0-13.0-1.55","l","22","<p style=""font-size: 48px;"">+</p>","null","1","","","","","","",""
"561.6300000110641","","image-keyboard-response","274","2692472","0.0-13.0-2.55","l","22","Images/gun_2.png","65","1","1582300445067","non-match","gun","rooster","label","test","true"
"null","","audio-keyboard-response","275","2694482","0.0-13.0-3.55","l","22","Sounds/correct.wav","null","1","","","","","","",""
"null","","audio-keyboard-response","276","2695760","0.0-13.0-0.56","l","22","Sounds/train_label.wav","null","1","","","","","","",""
"null","","html-keyboard-response","277","2696760","0.0-13.0-1.56","l","22","<p style=""font-size: 48px;"">+</p>","null","1","","","","","","",""
"653.6199999973178","","image-keyboard-response","278","2697416","0.0-13.0-2.56","l","22","Images/train_orig.png","76","1","1582300449917","match","train","train","label","test","true"
"null","","audio-keyboard-response","279","2699430","0.0-13.0-3.56","l","22","Sounds/correct.wav","null","1","","","","","","",""
"null","","audio-keyboard-response","280","2700259","0.0-13.0-0.57","l","22","Sounds/cat_sound.wav","null","1","","","","","","",""
"null","","html-keyboard-response","281","2701260","0.0-13.0-1.57","l","22","<p style=""font-size: 48px;"">+</p>","null","1","","","","","","",""
"507.1600000374019","","image-keyboard-response","282","2701768","0.0-13.0-2.57","l","22","Images/car_1.png","65","1","1582300454417","non-match","car","cat","sound","test","true"
"null","","audio-keyboard-response","283","2703782","0.0-13.0-3.57","l","22","Sounds/correct.wav","null","1","","","","","","",""
"null","","audio-keyboard-response","284","2704480","0.0-13.0-0.58","l","22","Sounds/whistle_sound.wav","null","1","","","","","","",""
"null","","html-keyboard-response","285","2705476","0.0-13.0-1.58","l","22","<p style=""font-size: 48px;"">+</p>","null","1","","","","","","",""
"466.6399999987334","","image-keyboard-response","286","2705944","0.0-13.0-2.58","l","22","Images/whistle_1.png","76","1","1582300458634","match","whistle","whistle","sound","test","true"
"null","","audio-keyboard-response","287","2707948","0.0-13.0-3.58","l","22","Sounds/correct.wav","null","1","","","","","","",""
"null","","audio-keyboard-response","288","2709019","0.0-13.0-0.59","l","22","Sounds/car_sound.wav","null","1","","","","","","",""
"null","","html-keyboard-response","289","2710010","0.0-13.0-1.59","l","22","<p style=""font-size: 48px;"">+</p>","null","1","","","","","","",""
"477.0799999823794","","image-keyboard-response","290","2710488","0.0-13.0-2.59","l","22","Images/whistle_orig.png","65","1","1582300463167","non-match","whistle","car","sound","test","true"
"null","","audio-keyboard-response","291","2712498","0.0-13.0-3.59","l","22","Sounds/correct.wav","null","1","","","","","","",""
"null","","audio-keyboard-response","292","2713320","0.0-13.0-0.60","l","22","Sounds/cat_sound.wav","null","1","","","","","","",""
"null","","html-keyboard-response","293","2714310","0.0-13.0-1.60","l","22","<p style=""font-size: 48px;"">+</p>","null","1","","","","","","",""
"448.9600000088103","","image-keyboard-response","294","2714760","0.0-13.0-2.60","l","22","Images/cat_2.png","76","1","1582300467467","match","cat","cat","sound","test","true"
"null","","audio-keyboard-response","295","2716767","0.0-13.0-3.60","l","22","Sounds/correct.wav","null","1","","","","","","",""
"null","","audio-keyboard-response","296","2717839","0.0-13.0-0.61","l","22","Sounds/car_label.wav","null","1","","","","","","",""
"null","","html-keyboard-response","297","2718843","0.0-13.0-1.61","l","22","<p style=""font-size: 48px;"">+</p>","null","1","","","","","","",""
"443.7749999924563","","image-keyboard-response","298","2719288","0.0-13.0-2.61","l","22","Images/car_3.png","76","1","1582300472000","match","car","car","label","test","true"
"null","","audio-keyboard-response","299","2721297","0.0-13.0-3.61","l","22","Sounds/correct.wav","null","1","","","","","","",""
"null","","audio-keyboard-response","300","2722099","0.0-13.0-0.62","l","22","Sounds/cat_sound.wav","null","1","","","","","","",""
"null","","html-keyboard-response","301","2723093","0.0-13.0-1.62","l","22","<p style=""font-size: 48px;"">+</p>","null","1","","","","","","",""
"577.7150000212714","","image-keyboard-response","302","2723672","0.0-13.0-2.62","l","22","Images/cat_cartoon.png","76","1","1582300476250","match","cat","cat","sound","test","true"
"null","","audio-keyboard-response","303","2725680","0.0-13.0-3.62","l","22","Sounds/correct.wav","null","1","","","","","","",""
"null","","audio-keyboard-response","304","2726379","0.0-13.0-0.63","l","22","Sounds/rooster_sound.wav","null","1","","","","","","",""
"null","","html-keyboard-response","305","2727377","0.0-13.0-1.63","l","22","<p style=""font-size: 48px;"">+</p>","null","1","","","","","","",""
"374.0949999773875","","image-keyboard-response","306","2727752","0.0-13.0-2.63","l","22","Images/rooster_2.png","76","1","1582300480534","match","rooster","rooster","sound","test","true"
"null","","audio-keyboard-response","307","2729764","0.0-13.0-3.63","l","22","Sounds/correct.wav","null","1","","","","","","",""
"null","","audio-keyboard-response","308","2730880","0.0-13.0-0.64","l","22","Sounds/motorcycle_sound.wav","null","1","","","","","","",""
"null","","html-keyboard-response","309","2731877","0.0-13.0-1.64","l","22","<p style=""font-size: 48px;"">+</p>","null","1","","","","","","",""
"370.3150000073947","","image-keyboard-response","310","2732248","0.0-13.0-2.64","l","22","Images/motorcycle_1.png","76","1","1582300485034","match","motorcycle","motorcycle","sound","test","true"
"null","","audio-keyboard-response","311","2734264","0.0-13.0-3.64","l","22","Sounds/correct.wav","null","1","","","","","","",""
"null","","audio-keyboard-response","312","2734960","0.0-13.0-0.65","l","22","Sounds/whistle_sound.wav","null","1","","","","","","",""
"null","","html-keyboard-response","313","2735960","0.0-13.0-1.65","l","22","<p style=""font-size: 48px;"">+</p>","null","1","","","","","","",""
"734.8500000080094","","image-keyboard-response","314","2736696","0.0-13.0-2.65","l","22","Images/train_1.png","65","1","1582300489117","non-match","train","whistle","sound","test","true"
"null","","audio-keyboard-response","315","2738699","0.0-13.0-3.65","l","22","Sounds/correct.wav","null","1","","","","","","",""
"null","","audio-keyboard-response","316","2739400","0.0-13.0-0.66","l","22","Sounds/whistle_label.wav","null","1","","","","","","",""
"null","","html-keyboard-response","317","2740394","0.0-13.0-1.66","l","22","<p style=""font-size: 48px;"">+</p>","null","1","","","","","","",""
"445.464999997057","","image-keyboard-response","318","2740840","0.0-13.0-2.66","l","22","Images/car_2.png","65","1","1582300493551","non-match","car","whistle","label","test","true"
"null","","audio-keyboard-response","319","2742851","0.0-13.0-3.66","l","22","Sounds/correct.wav","null","1","","","","","","",""
"null","","audio-keyboard-response","320","2744140","0.0-13.0-0.67","l","22","Sounds/train_label.wav","null","1","","","","","","",""
"null","","html-keyboard-response","321","2745144","0.0-13.0-1.67","l","22","<p style=""font-size: 48px;"">+</p>","null","1","","","","","","",""
"463.6099999770522","","image-keyboard-response","322","2745609","0.0-13.0-2.67","l","22","Images/car_3.png","65","1","1582300498301","non-match","car","train","label","test","true"
"null","","audio-keyboard-response","323","2747616","0.0-13.0-3.67","l","22","Sounds/correct.wav","null","1","","","","","","",""
"null","","audio-keyboard-response","324","2748520","0.0-13.0-0.68","l","22","Sounds/frog_sound.wav","null","1","","","","","","",""
"null","","html-keyboard-response","325","2749511","0.0-13.0-1.68","l","22","<p style=""font-size: 48px;"">+</p>","null","1","","","","","","",""
"496.7199999955483","","image-keyboard-response","326","2750008","0.0-13.0-2.68","l","22","Images/car_orig.png","65","1","1582300502668","non-match","car","frog","sound","test","true"
"null","","audio-keyboard-response","327","2752015","0.0-13.0-3.68","l","22","Sounds/correct.wav","null","1","","","","","","",""
"null","","audio-keyboard-response","328","2753100","0.0-13.0-0.69","l","22","Sounds/car_sound.wav","null","1","","","","","","",""
"null","","html-keyboard-response","329","2754094","0.0-13.0-1.69","l","22","<p style=""font-size: 48px;"">+</p>","null","1","","","","","","",""
"985.3400000138208","","image-keyboard-response","330","2755080","0.0-13.0-2.69","l","22","Images/car_1.png","76","1","1582300507251","match","car","car","sound","test","true"
"null","","audio-keyboard-response","331","2757084","0.0-13.0-3.69","l","22","Sounds/correct.wav","null","1","","","","","","",""
"null","","audio-keyboard-response","332","2758140","0.0-13.0-0.70","l","22","Sounds/car_sound.wav","null","1","","","","","","",""
"null","","html-keyboard-response","333","2759144","0.0-13.0-1.70","l","22","<p style=""font-size: 48px;"">+</p>","null","1","","","","","","",""
"415.6849999562837","","image-keyboard-response","334","2759561","0.0-13.0-2.70","l","22","Images/dog_2.png","65","1","1582300512301","non-match","dog","car","sound","test","true"
"null","","audio-keyboard-response","335","2761567","0.0-13.0-3.70","l","22","Sounds/correct.wav","null","1","","","","","","",""
"null","","audio-keyboard-response","336","2762460","0.0-13.0-0.71","l","22","Sounds/frog_sound.wav","null","1","","","","","","",""
"null","","html-keyboard-response","337","2763478","0.0-13.0-1.71","l","22","<p style=""font-size: 48px;"">+</p>","null","1","","","","","","",""
"657.7699999907054","","image-keyboard-response","338","2764136","0.0-13.0-2.71","l","22","Images/frog_orig.png","76","1","1582300516635","match","frog","frog","sound","test","true"
"null","","audio-keyboard-response","339","2766148","0.0-13.0-3.71","l","22","Sounds/correct.wav","null","1","","","","","","",""
"null","","audio-keyboard-response","340","2767160","0.0-13.0-0.72","l","22","Sounds/cow_label.wav","null","1","","","","","","",""
"null","","html-keyboard-response","341","2768177","0.0-13.0-1.72","l","22","<p style=""font-size: 48px;"">+</p>","null","1","","","","","","",""
"406.09499998390675","","image-keyboard-response","342","2768584","0.0-13.0-2.72","l","22","Images/car_cartoon.png","65","1","1582300521335","non-match","car","cow","label","test","true"
"null","","audio-keyboard-response","343","2770598","0.0-13.0-3.72","l","22","Sounds/correct.wav","null","1","","","","","","",""
"null","","audio-keyboard-response","344","2771180","0.0-13.0-0.73","l","22","Sounds/gun_sound.wav","null","1","","","","","","",""
"null","","html-keyboard-response","345","2772178","0.0-13.0-1.73","l","22","<p style=""font-size: 48px;"">+</p>","null","1","","","","","","",""
"1013.9199999975972","","image-keyboard-response","346","2773193","0.0-13.0-2.73","l","22","Images/gun_cartoon.png","76","1","1582300525335","match","gun","gun","sound","test","true"
"null","","audio-keyboard-response","347","2775202","0.0-13.0-3.73","l","22","Sounds/correct.wav","null","1","","","","","","",""
"null","","audio-keyboard-response","348","2775900","0.0-13.0-0.74","l","22","Sounds/rooster_label.wav","null","1","","","","","","",""
"null","","html-keyboard-response","349","2776894","0.0-13.0-1.74","l","22","<p style=""font-size: 48px;"">+</p>","null","1","","","","","","",""
"377.06500000786036","","image-keyboard-response","350","2777272","0.0-13.0-2.74","l","22","Images/rooster_orig.png","76","1","1582300530051","match","rooster","rooster","label","test","true"
"null","","audio-keyboard-response","351","2779281","0.0-13.0-3.74","l","22","Sounds/correct.wav","null","1","","","","","","",""
"null","","audio-keyboard-response","352","2780280","0.0-13.0-0.75","l","22","Sounds/cow_label.wav","null","1","","","","","","",""
"null","","html-keyboard-response","353","2781278","0.0-13.0-1.75","l","22","<p style=""font-size: 48px;"">+</p>","null","1","","","","","","",""
"473.7550000427291","","image-keyboard-response","354","2781752","0.0-13.0-2.75","l","22","Images/dog_cartoon.png","65","1","1582300534435","non-match","dog","cow","label","test","true"
"null","","audio-keyboard-response","355","2783767","0.0-13.0-3.75","l","22","Sounds/correct.wav","null","1","","","","","","",""
"null","","audio-keyboard-response","356","2785040","0.0-13.0-0.76","l","22","Sounds/train_label.wav","null","1","","","","","","",""
"null","","html-keyboard-response","357","2786044","0.0-13.0-1.76","l","22","<p style=""font-size: 48px;"">+</p>","null","1","","","","","","",""
"427.2349999519065","","image-keyboard-response","358","2786473","0.0-13.0-2.76","l","22","Images/rooster_cartoon.png","65","1","1582300539201","non-match","rooster","train","label","test","true"
"null","","audio-keyboard-response","359","2788481","0.0-13.0-3.76","l","22","Sounds/correct.wav","null","1","","","","","","",""
"null","","audio-keyboard-response","360","2789380","0.0-13.0-0.77","l","22","Sounds/frog_sound.wav","null","1","","","","","","",""
"null","","html-keyboard-response","361","2790378","0.0-13.0-1.77","l","22","<p style=""font-size: 48px;"">+</p>","null","1","","","","","","",""
"397.70500001031905","","image-keyboard-response","362","2790776","0.0-13.0-2.77","l","22","Images/frog_1.png","76","1","1582300543535","match","frog","frog","sound","test","true"
"null","","audio-keyboard-response","363","2792783","0.0-13.0-3.77","l","22","Sounds/correct.wav","null","1","","","","","","",""
"null","","audio-keyboard-response","364","2793500","0.0-13.0-0.78","l","22","Sounds/dog_sound.wav","null","1","","","","","","",""
"null","","html-keyboard-response","365","2794494","0.0-13.0-1.78","l","22","<p style=""font-size: 48px;"">+</p>","null","1","","","","","","",""
"552.8649999760091","","image-keyboard-response","366","2795048","0.0-13.0-2.78","l","22","Images/gun_1.png","65","1","1582300547652","non-match","gun","dog","sound","test","true"
"null","","audio-keyboard-response","367","2797065","0.0-13.0-3.78","l","22","Sounds/correct.wav","null","1","","","","","","",""
"null","","audio-keyboard-response","368","2798180","0.0-13.0-0.79","l","22","Sounds/motorcycle_sound.wav","null","1","","","","","","",""
"null","","html-keyboard-response","369","2799178","0.0-13.0-1.79","l","22","<p style=""font-size: 48px;"">+</p>","null","1","","","","","","",""
"397.8999999817461","","image-keyboard-response","370","2799577","0.0-13.0-2.79","l","22","Images/cat_2.png","65","1","1582300552336","non-match","cat","motorcycle","sound","test","true"
"null","","audio-keyboard-response","371","2801585","0.0-13.0-3.79","l","22","Sounds/correct.wav","null","1","","","","","","",""
"null","","audio-keyboard-response","372","2802661","0.0-13.0-0.80","l","22","Sounds/car_sound.wav","null","1","","","","","","",""
"null","","html-keyboard-response","373","2803695","0.0-13.0-1.80","l","22","<p style=""font-size: 48px;"">+</p>","null","1","","","","","","",""
"984.9050000193529","","image-keyboard-response","374","2804681","0.0-13.0-2.80","l","22","Images/car_cartoon.png","76","1","1582300556852","match","car","car","sound","test","true"
"null","","audio-keyboard-response","375","2806683","0.0-13.0-3.80","l","22","Sounds/correct.wav","null","1","","","","","","",""
"null","","audio-keyboard-response","376","2807820","0.0-13.0-0.81","l","22","Sounds/motorcycle_label.wav","null","1","","","","","","",""
"null","","html-keyboard-response","377","2808812","0.0-13.0-1.81","l","22","<p style=""font-size: 48px;"">+</p>","null","1","","","","","","",""
"507.68500001868233","","image-keyboard-response","378","2809321","0.0-13.0-2.81","l","22","Images/motorcycle_cartoon.png","76","1","1582300561969","match","motorcycle","motorcycle","label","test","true"
"null","","audio-keyboard-response","379","2811334","0.0-13.0-3.81","l","22","Sounds/correct.wav","null","1","","","","","","",""
"null","","audio-keyboard-response","380","2812360","0.0-13.0-0.82","l","22","Sounds/cow_label.wav","null","1","","","","","","",""
"null","","html-keyboard-response","381","2813379","0.0-13.0-1.82","l","22","<p style=""font-size: 48px;"">+</p>","null","1","","","","","","",""
"581.5149999689311","","image-keyboard-response","382","2813961","0.0-13.0-2.82","l","22","Images/cow_3.png","76","1","1582300566536","match","cow","cow","label","test","true"
"null","","audio-keyboard-response","383","2815969","0.0-13.0-3.82","l","22","Sounds/correct.wav","null","1","","","","","","",""
"null","","audio-keyboard-response","384","2816981","0.0-13.0-0.83","l","22","Sounds/cow_sound.wav","null","1","","","","","","",""
"null","","html-keyboard-response","385","2817979","0.0-13.0-1.83","l","22","<p style=""font-size: 48px;"">+</p>","null","1","","","","","","",""
"605.3299999912269","","image-keyboard-response","386","2818585","0.0-13.0-2.83","l","22","Images/rooster_orig.png","65","1","1582300571136","non-match","rooster","cow","sound","test","true"
"null","","audio-keyboard-response","387","2820599","0.0-13.0-3.83","l","22","Sounds/correct.wav","null","1","","","","","","",""
"null","","audio-keyboard-response","388","2821181","0.0-13.0-0.84","l","22","Sounds/gun_sound.wav","null","1","","","","","","",""
"null","","html-keyboard-response","389","2822179","0.0-13.0-1.84","l","22","<p style=""font-size: 48px;"">+</p>","null","1","","","","","","",""
"453.1299999798648","","image-keyboard-response","390","2822633","0.0-13.0-2.84","l","22","Images/gun_1.png","76","1","1582300575336","match","gun","gun","sound","test","true"
"null","","audio-keyboard-response","391","2824650","0.0-13.0-3.84","l","22","Sounds/correct.wav","null","1","","","","","","",""
"null","","audio-keyboard-response","392","2825941","0.0-13.0-0.85","l","22","Sounds/train_sound.wav","null","1","","","","","","",""
"null","","html-keyboard-response","393","2826945","0.0-13.0-1.85","l","22","<p style=""font-size: 48px;"">+</p>","null","1","","","","","","",""
"404.6049999888055","","image-keyboard-response","394","2827353","0.0-13.0-2.85","l","22","Images/cow_orig.png","65","1","1582300580103","non-match","cow","train","sound","test","true"
"null","","audio-keyboard-response","395","2829366","0.0-13.0-3.85","l","22","Sounds/correct.wav","null","1","","","","","","",""
"null","","audio-keyboard-response","396","2830281","0.0-13.0-0.86","l","22","Sounds/frog_sound.wav","null","1","","","","","","",""
"null","","html-keyboard-response","397","2831279","0.0-13.0-1.86","l","22","<p style=""font-size: 48px;"">+</p>","null","1","","","","","","",""
"537.0850000181235","","image-keyboard-response","398","2831817","0.0-13.0-2.86","l","22","Images/whistle_cartoon.png","65","1","1582300584436","non-match","whistle","frog","sound","test","true"
"null","","audio-keyboard-response","399","2833821","0.0-13.0-3.86","l","22","Sounds/correct.wav","null","1","","","","","","",""
"null","","audio-keyboard-response","400","2834501","0.0-13.0-0.87","l","22","Sounds/rooster_label.wav","null","1","","","","","","",""
"null","","html-keyboard-response","401","2835495","0.0-13.0-1.87","l","22","<p style=""font-size: 48px;"">+</p>","null","1","","","","","","",""
"464.464999968186","","image-keyboard-response","402","2835961","0.0-13.0-2.87","l","22","Images/rooster_3.png","76","1","1582300588653","match","rooster","rooster","label","test","true"
"null","","audio-keyboard-response","403","2837970","0.0-13.0-3.87","l","22","Sounds/correct.wav","null","1","","","","","","",""
"null","","audio-keyboard-response","404","2838621","0.0-13.0-0.88","l","22","Sounds/dog_label.wav","null","1","","","","","","",""
"null","","html-keyboard-response","405","2839612","0.0-13.0-1.88","l","22","<p style=""font-size: 48px;"">+</p>","null","1","","","","","","",""
"619.8899999726564","","image-keyboard-response","406","2840233","0.0-13.0-2.88","l","22","Images/cow_1.png","65","1","1582300592769","non-match","cow","dog","label","test","true"
"null","","audio-keyboard-response","407","2842250","0.0-13.0-3.88","l","22","Sounds/correct.wav","null","1","","","","","","",""
"null","","audio-keyboard-response","408","2842941","0.0-13.0-0.89","l","22","Sounds/whistle_label.wav","null","1","","","","","","",""
"null","","html-keyboard-response","409","2843946","0.0-13.0-1.89","l","22","<p style=""font-size: 48px;"">+</p>","null","1","","","","","","",""
"542.2999999718741","","image-keyboard-response","410","2844489","0.0-13.0-2.89","l","22","Images/whistle_cartoon.png","76","1","1582300597103","match","whistle","whistle","label","test","true"
"null","","audio-keyboard-response","411","2846499","0.0-13.0-3.89","l","22","Sounds/correct.wav","null","1","","","","","","",""
"null","","audio-keyboard-response","412","2847201","0.0-13.0-0.90","l","22","Sounds/dog_sound.wav","null","1","","","","","","",""
"null","","html-keyboard-response","413","2848196","0.0-13.0-1.90","l","22","<p style=""font-size: 48px;"">+</p>","null","1","","","","","","",""
"468.2749999919906","","image-keyboard-response","414","2848665","0.0-13.0-2.90","l","22","Images/dog_cartoon.png","76","1","1582300601353","match","dog","dog","sound","test","true"
"null","","audio-keyboard-response","415","2850668","0.0-13.0-3.90","l","22","Sounds/correct.wav","null","1","","","","","","",""
"null","","audio-keyboard-response","416","2851681","0.0-13.0-0.91","l","22","Sounds/cow_label.wav","null","1","","","","","","",""
"null","","html-keyboard-response","417","2852679","0.0-13.0-1.91","l","22","<p style=""font-size: 48px;"">+</p>","null","1","","","","","","",""
"449.094999989029","","image-keyboard-response","418","2853129","0.0-13.0-2.91","l","22","Images/cow_cartoon.png","76","1","1582300605836","match","cow","cow","label","test","true"
"null","","audio-keyboard-response","419","2855143","0.0-13.0-3.91","l","22","Sounds/correct.wav","null","1","","","","","","",""
"null","","audio-keyboard-response","420","2855981","0.0-13.0-0.92","l","22","Sounds/cat_label.wav","null","1","","","","","","",""
"null","","html-keyboard-response","421","2856979","0.0-13.0-1.92","l","22","<p style=""font-size: 48px;"">+</p>","null","1","","","","","","",""
"517.020000028424","","image-keyboard-response","422","2857497","0.0-13.0-2.92","l","22","Images/whistle_2.png","65","1","1582300610136","non-match","whistle","cat","label","test","true"
"null","","audio-keyboard-response","423","2859501","0.0-13.0-3.92","l","22","Sounds/correct.wav","null","1","","","","","","",""
"null","","audio-keyboard-response","424","2860620","0.0-13.0-0.93","l","22","Sounds/motorcycle_label.wav","null","1","","","","","","",""
"null","","html-keyboard-response","425","2861612","0.0-13.0-1.93","l","22","<p style=""font-size: 48px;"">+</p>","null","1","","","","","","",""
"426.34499998530373","","image-keyboard-response","426","2862041","0.0-13.0-2.93","l","22","Images/frog_1.png","65","1","1582300614769","non-match","frog","motorcycle","label","test","true"
"null","","audio-keyboard-response","427","2864049","0.0-13.0-3.93","l","22","Sounds/correct.wav","null","1","","","","","","",""
"null","","audio-keyboard-response","428","2864960","0.0-13.0-0.94","l","22","Sounds/frog_sound.wav","null","1","","","","","","",""
"null","","html-keyboard-response","429","2865962","0.0-13.0-1.94","l","22","<p style=""font-size: 48px;"">+</p>","null","1","","","","","","",""
"413.67999999783933","","image-keyboard-response","430","2866377","0.0-13.0-2.94","l","22","Images/frog_2.png","76","1","1582300619119","match","frog","frog","sound","test","true"
"null","","audio-keyboard-response","431","2868384","0.0-13.0-3.94","l","22","Sounds/correct.wav","null","1","","","","","","",""
"null","","audio-keyboard-response","432","2869680","0.0-13.0-0.95","l","22","Sounds/train_sound.wav","null","1","","","","","","",""
"null","","html-keyboard-response","433","2870679","0.0-13.0-1.95","l","22","<p style=""font-size: 48px;"">+</p>","null","1","","","","","","",""
"606.5249999519438","","image-keyboard-response","434","2871289","0.0-13.0-2.95","l","22","Images/train_3.png","76","1","1582300623836","match","train","train","sound","test","true"
"null","","audio-keyboard-response","435","2873301","0.0-13.0-3.95","l","22","Sounds/correct.wav","null","1","","","","","","",""
"null","","audio-keyboard-response","436","2874580","0.0-13.0-0.96","l","22","Sounds/train_label.wav","null","1","","","","","","",""
"null","","html-keyboard-response","437","2875579","0.0-13.0-1.96","l","22","<p style=""font-size: 48px;"">+</p>","null","1","","","","","","",""
"716.614999982994","","image-keyboard-response","438","2876297","0.0-13.0-2.96","l","22","Images/train_cartoon.png","76","1","1582300628736","match","train","train","label","test","true"
"null","","audio-keyboard-response","439","2878301","0.0-13.0-3.96","l","22","Sounds/correct.wav","null","1","","","","","","",""
"null","","audio-keyboard-response","440","2879380","0.0-13.0-0.97","l","22","Sounds/car_label.wav","null","1","","","","","","",""
"null","","html-keyboard-response","441","2880379","0.0-13.0-1.97","l","22","<p style=""font-size: 48px;"">+</p>","null","1","","","","","","",""
"605.0449999747798","","image-keyboard-response","442","2880985","0.0-13.0-2.97","l","22","Images/cat_1.png","65","1","1582300633536","non-match","cat","car","label","test","true"
"null","","audio-keyboard-response","443","2883000","0.0-13.0-3.97","l","22","Sounds/correct.wav","null","1","","","","","","",""
"null","","audio-keyboard-response","444","2883840","0.0-13.0-0.98","l","22","Sounds/cat_sound.wav","null","1","","","","","","",""
"null","","html-keyboard-response","445","2884829","0.0-13.0-1.98","l","22","<p style=""font-size: 48px;"">+</p>","null","1","","","","","","",""
"506.70999998692423","","image-keyboard-response","446","2885337","0.0-13.0-2.98","l","22","Images/cat_orig.png","76","1","1582300637986","match","cat","cat","sound","test","true"
"null","","audio-keyboard-response","447","2887352","0.0-13.0-3.98","l","22","Sounds/correct.wav","null","1","","","","","","",""
"null","","audio-keyboard-response","448","2888020","0.0-13.0-0.99","l","22","Sounds/dog_label.wav","null","1","","","","","","",""
"null","","html-keyboard-response","449","2889012","0.0-13.0-1.99","l","22","<p style=""font-size: 48px;"">+</p>","null","1","","","","","","",""
"547.0349999959581","","image-keyboard-response","450","2889560","0.0-13.0-2.99","l","22","Images/cat_cartoon.png","65","1","1582300642170","non-match","cat","dog","label","test","true"
"null","","audio-keyboard-response","451","2891567","0.0-13.0-3.99","l","22","Sounds/correct.wav","null","1","","","","","","",""
"13336.889999976847","","html-keyboard-response","452","2904905","0.0-14.0","l","22","<p>Please take this opportunity to rest your eyes before proceeding.</p><p>When ready, press the enter key to continue to the next set of trials.</p>","32","","","","","","","",""
"null","","audio-keyboard-response","453","2907671","0.0-15.0-0.0","l","22","Sounds/dog_sound.wav","null","2","","","","","","",""
"null","","html-keyboard-response","454","2908663","0.0-15.0-1.0","l","22","<p style=""font-size: 48px;"">+</p>","null","2","","","","","","",""
"527.4749999516644","","image-keyboard-response","455","2909193","0.0-15.0-2.0","l","22","Images/dog_1.png","76","2","1582300661820","match","dog","dog","sound","test","true"
"null","","audio-keyboard-response","456","2911201","0.0-15.0-3.0","l","22","Sounds/correct.wav","null","2","","","","","","",""
"null","","audio-keyboard-response","457","2912230","0.0-15.0-0.1","l","22","Sounds/cow_label.wav","null","2","","","","","","",""
"null","","html-keyboard-response","458","2913229","0.0-15.0-1.1","l","22","<p style=""font-size: 48px;"">+</p>","null","2","","","","","","",""
"394.6049999794923","","image-keyboard-response","459","2913625","0.0-15.0-2.1","l","22","Images/cow_1.png","76","2","1582300666386","match","cow","cow","label","test","true"
"null","","audio-keyboard-response","460","2915635","0.0-15.0-3.1","l","22","Sounds/correct.wav","null","2","","","","","","",""
"null","","audio-keyboard-response","461","2916710","0.0-15.0-0.2","l","22","Sounds/car_sound.wav","null","2","","","","","","",""
"null","","html-keyboard-response","462","2917713","0.0-15.0-1.2","l","22","<p style=""font-size: 48px;"">+</p>","null","2","","","","","","",""
"614.9900000309572","","image-keyboard-response","463","2918329","0.0-15.0-2.2","l","22","Images/whistle_3.png","65","2","1582300670870","non-match","whistle","car","sound","test","true"
"null","","audio-keyboard-response","464","2920334","0.0-15.0-3.2","l","22","Sounds/correct.wav","null","2","","","","","","",""
"null","","audio-keyboard-response","465","2921470","0.0-15.0-0.3","l","22","Sounds/motorcycle_label.wav","null","2","","","","","","",""
"null","","html-keyboard-response","466","2922462","0.0-15.0-1.3","l","22","<p style=""font-size: 48px;"">+</p>","null","2","","","","","","",""
"393.0549999931827","","image-keyboard-response","467","2922856","0.0-15.0-2.3","l","22","Images/motorcycle_cartoon.png","76","2","1582300675619","match","motorcycle","motorcycle","label","test","true"
"null","","audio-keyboard-response","468","2924866","0.0-15.0-3.3","l","22","Sounds/correct.wav","null","2","","","","","","",""
"null","","audio-keyboard-response","469","2925570","0.0-15.0-0.4","l","22","Sounds/whistle_label.wav","null","2","","","","","","",""
"null","","html-keyboard-response","470","2926562","0.0-15.0-1.4","l","22","<p style=""font-size: 48px;"">+</p>","null","2","","","","","","",""
"420.795000041835","","image-keyboard-response","471","2926984","0.0-15.0-2.4","l","22","Images/whistle_1.png","76","2","1582300679719","match","whistle","whistle","label","test","true"
"null","","audio-keyboard-response","472","2929000","0.0-15.0-3.4","l","22","Sounds/correct.wav","null","2","","","","","","",""
"null","","audio-keyboard-response","473","2929830","0.0-15.0-0.5","l","22","Sounds/cat_label.wav","null","2","","","","","","",""
"null","","html-keyboard-response","474","2930829","0.0-15.0-1.5","l","22","<p style=""font-size: 48px;"">+</p>","null","2","","","","","","",""
"442.174999974668","","image-keyboard-response","475","2931272","0.0-15.0-2.5","l","22","Images/cat_3.png","76","2","1582300683986","match","cat","cat","label","test","true"
"null","","audio-keyboard-response","476","2933282","0.0-15.0-3.5","l","22","Sounds/correct.wav","null","2","","","","","","",""
"null","","audio-keyboard-response","477","2933970","0.0-15.0-0.6","l","22","Sounds/rooster_sound.wav","null","2","","","","","","",""
"null","","html-keyboard-response","478","2934962","0.0-15.0-1.6","l","22","<p style=""font-size: 48px;"">+</p>","null","2","","","","","","",""
"868.6599999782629","","image-keyboard-response","479","2935832","0.0-15.0-2.6","l","22","Images/cat_2.png","65","2","1582300688120","non-match","cat","rooster","sound","test","true"
"null","","audio-keyboard-response","480","2937836","0.0-15.0-3.6","l","22","Sounds/correct.wav","null","2","","","","","","",""
"null","","audio-keyboard-response","481","2938850","0.0-15.0-0.7","l","22","Sounds/cow_label.wav","null","2","","","","","","",""
"null","","html-keyboard-response","482","2939846","0.0-15.0-1.7","l","22","<p style=""font-size: 48px;"">+</p>","null","2","","","","","","",""
"369.2400000290945","","image-keyboard-response","483","2940216","0.0-15.0-2.7","l","22","Images/cow_2.png","76","2","1582300693003","match","cow","cow","label","test","true"
"null","","audio-keyboard-response","484","2942233","0.0-15.0-3.7","l","22","Sounds/correct.wav","null","2","","","","","","",""
"null","","audio-keyboard-response","485","2943230","0.0-15.0-0.8","l","22","Sounds/cow_label.wav","null","2","","","","","","",""
"null","","html-keyboard-response","486","2944229","0.0-15.0-1.8","l","22","<p style=""font-size: 48px;"">+</p>","null","2","","","","","","",""
"370.2449999982491","","image-keyboard-response","487","2944600","0.0-15.0-2.8","l","22","Images/rooster_3.png","65","2","1582300697386","non-match","rooster","cow","label","test","true"
"null","","audio-keyboard-response","488","2946617","0.0-15.0-3.8","l","22","Sounds/correct.wav","null","2","","","","","","",""
"null","","audio-keyboard-response","489","2947630","0.0-15.0-0.9","l","22","Sounds/cow_sound.wav","null","2","","","","","","",""
"null","","html-keyboard-response","490","2948629","0.0-15.0-1.9","l","22","<p style=""font-size: 48px;"">+</p>","null","2","","","","","","",""
"513.9750000089407","","image-keyboard-response","491","2949144","0.0-15.0-2.9","l","22","Images/cow_cartoon.png","76","2","1582300701786","match","cow","cow","sound","test","true"
"null","","audio-keyboard-response","492","2951151","0.0-15.0-3.9","l","22","Sounds/correct.wav","null","2","","","","","","",""
"null","","audio-keyboard-response","493","2951850","0.0-15.0-0.10","l","22","Sounds/rooster_label.wav","null","2","","","","","","",""
"null","","html-keyboard-response","494","2952846","0.0-15.0-1.10","l","22","<p style=""font-size: 48px;"">+</p>","null","2","","","","","","",""
"601.1949999956414","","image-keyboard-response","495","2953448","0.0-15.0-2.10","l","22","Images/gun_cartoon.png","65","2","1582300706003","non-match","gun","rooster","label","test","true"
"null","","audio-keyboard-response","496","2955451","0.0-15.0-3.10","l","22","Sounds/correct.wav","null","2","","","","","","",""
"null","","audio-keyboard-response","497","2956290","0.0-15.0-0.11","l","22","Sounds/cat_sound.wav","null","2","","","","","","",""
"null","","html-keyboard-response","498","2957279","0.0-15.0-1.11","l","22","<p style=""font-size: 48px;"">+</p>","null","2","","","","","","",""
"424.07000000821427","","image-keyboard-response","499","2957704","0.0-15.0-2.11","l","22","Images/rooster_1.png","65","2","1582300710436","non-match","rooster","cat","sound","test","true"
"null","","audio-keyboard-response","500","2959716","0.0-15.0-3.11","l","22","Sounds/correct.wav","null","2","","","","","","",""
"null","","audio-keyboard-response","501","2960850","0.0-15.0-0.12","l","22","Sounds/motorcycle_label.wav","null","2","","","","","","",""
"null","","html-keyboard-response","502","2961846","0.0-15.0-1.12","l","22","<p style=""font-size: 48px;"">+</p>","null","2","","","","","","",""
"385.17000002320856","","image-keyboard-response","503","2962232","0.0-15.0-2.12","l","22","Images/frog_1.png","65","2","1582300715003","non-match","frog","motorcycle","label","test","true"
"null","","audio-keyboard-response","504","2964235","0.0-15.0-3.12","l","22","Sounds/correct.wav","null","2","","","","","","",""
"null","","audio-keyboard-response","505","2964810","0.0-15.0-0.13","l","22","Sounds/gun_label.wav","null","2","","","","","","",""
"null","","html-keyboard-response","506","2965813","0.0-15.0-1.13","l","22","<p style=""font-size: 48px;"">+</p>","null","2","","","","","","",""
"450.45499998377636","","image-keyboard-response","507","2966264","0.0-15.0-2.13","l","22","Images/gun_orig.png","76","2","1582300718970","match","gun","gun","label","test","true"
"null","","audio-keyboard-response","508","2968268","0.0-15.0-3.13","l","22","Sounds/correct.wav","null","2","","","","","","",""
"null","","audio-keyboard-response","509","2969170","0.0-15.0-0.14","l","22","Sounds/frog_label.wav","null","2","","","","","","",""
"null","","html-keyboard-response","510","2970163","0.0-15.0-1.14","l","22","<p style=""font-size: 48px;"">+</p>","null","2","","","","","","",""
"404.57000001333654","","image-keyboard-response","511","2970568","0.0-15.0-2.14","l","22","Images/frog_1.png","76","2","1582300723320","match","frog","frog","label","test","true"
"null","","audio-keyboard-response","512","2972583","0.0-15.0-3.14","l","22","Sounds/correct.wav","null","2","","","","","","",""
"null","","audio-keyboard-response","513","2973890","0.0-15.0-0.15","l","22","Sounds/train_sound.wav","null","2","","","","","","",""
"null","","html-keyboard-response","514","2974879","0.0-15.0-1.15","l","22","<p style=""font-size: 48px;"">+</p>","null","2","","","","","","",""
"439.6650000126101","","image-keyboard-response","515","2975320","0.0-15.0-2.15","l","22","Images/train_2.png","76","2","1582300728037","match","train","train","sound","test","true"
"null","","audio-keyboard-response","516","2977333","0.0-15.0-3.15","l","22","Sounds/correct.wav","null","2","","","","","","",""
"null","","audio-keyboard-response","517","2978350","0.0-15.0-0.16","l","22","Sounds/cow_sound.wav","null","2","","","","","","",""
"null","","html-keyboard-response","518","2979346","0.0-15.0-1.16","l","22","<p style=""font-size: 48px;"">+</p>","null","2","","","","","","",""
"405.1150000304915","","image-keyboard-response","519","2979752","0.0-15.0-2.16","l","22","Images/car_2.png","65","2","1582300732503","non-match","car","cow","sound","test","true"
"null","","audio-keyboard-response","520","2981765","0.0-15.0-3.16","l","22","Sounds/correct.wav","null","2","","","","","","",""
"null","","audio-keyboard-response","521","2982468","0.0-15.0-0.17","l","22","Sounds/dog_sound.wav","null","2","","","","","","",""
"null","","html-keyboard-response","522","2983461","0.0-15.0-1.17","l","22","<p style=""font-size: 48px;"">+</p>","null","2","","","","","","",""
"432.5400000088848","","image-keyboard-response","523","2983895","0.0-15.0-2.17","l","22","Images/rooster_orig.png","65","2","1582300736618","non-match","rooster","dog","sound","test","true"
"null","","audio-keyboard-response","524","2985900","0.0-15.0-3.17","l","22","Sounds/correct.wav","null","2","","","","","","",""
"null","","audio-keyboard-response","525","2987028","0.0-15.0-0.18","l","22","Sounds/motorcycle_label.wav","null","2","","","","","","",""
"null","","html-keyboard-response","526","2988028","0.0-15.0-1.18","l","22","<p style=""font-size: 48px;"">+</p>","null","2","","","","","","",""
"505.57499995920807","","image-keyboard-response","527","2988535","0.0-15.0-2.18","l","22","Images/motorcycle_2.png","76","2","1582300741185","match","motorcycle","motorcycle","label","test","true"
"null","","audio-keyboard-response","528","2990549","0.0-15.0-3.18","l","22","Sounds/correct.wav","null","2","","","","","","",""
"null","","audio-keyboard-response","529","2991548","0.0-15.0-0.19","l","22","Sounds/cow_sound.wav","null","2","","","","","","",""
"null","","html-keyboard-response","530","2992545","0.0-15.0-1.19","l","22","<p style=""font-size: 48px;"">+</p>","null","2","","","","","","",""
"420.85499997483566","","image-keyboard-response","531","2992966","0.0-15.0-2.19","l","22","Images/gun_2.png","65","2","1582300745702","non-match","gun","cow","sound","test","true"
"null","","audio-keyboard-response","532","2994982","0.0-15.0-3.19","l","22","Sounds/correct.wav","null","2","","","","","","",""
"null","","audio-keyboard-response","533","2995688","0.0-15.0-0.20","l","22","Sounds/whistle_label.wav","null","2","","","","","","",""
"null","","html-keyboard-response","534","2996678","0.0-15.0-1.20","l","22","<p style=""font-size: 48px;"">+</p>","null","2","","","","","","",""
"399.7250000247732","","image-keyboard-response","535","2997079","0.0-15.0-2.20","l","22","Images/dog_3.png","65","2","1582300749835","non-match","dog","whistle","label","test","true"
"null","","audio-keyboard-response","536","2999083","0.0-15.0-3.20","l","22","Sounds/correct.wav","null","2","","","","","","",""
"null","","audio-keyboard-response","537","2999928","0.0-15.0-0.21","l","22","Sounds/cat_sound.wav","null","2","","","","","","",""
"null","","html-keyboard-response","538","3000928","0.0-15.0-1.21","l","22","<p style=""font-size: 48px;"">+</p>","null","2","","","","","","",""
"437.46500002453104","","image-keyboard-response","539","3001366","0.0-15.0-2.21","l","22","Images/cat_2.png","76","2","1582300754085","match","cat","cat","sound","test","true"
"null","","audio-keyboard-response","540","3003382","0.0-15.0-3.21","l","22","Sounds/correct.wav","null","2","","","","","","",""
"null","","audio-keyboard-response","541","3004668","0.0-15.0-0.22","l","22","Sounds/train_label.wav","null","2","","","","","","",""
"null","","html-keyboard-response","542","3005661","0.0-15.0-1.22","l","22","<p style=""font-size: 48px;"">+</p>","null","2","","","","","","",""
"583.8600000133738","","image-keyboard-response","543","3006246","0.0-15.0-2.22","l","22","Images/train_3.png","76","2","1582300758819","match","train","train","label","test","true"
"null","","audio-keyboard-response","544","3008253","0.0-15.0-3.22","l","22","Sounds/correct.wav","null","2","","","","","","",""
"null","","audio-keyboard-response","545","3009328","0.0-15.0-0.23","l","22","Sounds/car_label.wav","null","2","","","","","","",""
"null","","html-keyboard-response","546","3010328","0.0-15.0-1.23","l","22","<p style=""font-size: 48px;"">+</p>","null","2","","","","","","",""
"397.6949999923818","","image-keyboard-response","547","3010727","0.0-15.0-2.23","l","22","Images/car_3.png","76","2","1582300763485","match","car","car","label","test","true"
"null","","audio-keyboard-response","548","3012736","0.0-15.0-3.23","l","22","Sounds/correct.wav","null","2","","","","","","",""
"null","","audio-keyboard-response","549","3013648","0.0-15.0-0.24","l","22","Sounds/frog_sound.wav","null","2","","","","","","",""
"null","","html-keyboard-response","550","3014645","0.0-15.0-1.24","l","22","<p style=""font-size: 48px;"">+</p>","null","2","","","","","","",""
"384.37500002328306","","image-keyboard-response","551","3015030","0.0-15.0-2.24","l","22","Images/car_orig.png","65","2","1582300767802","non-match","car","frog","sound","test","true"
"null","","audio-keyboard-response","552","3017033","0.0-15.0-3.24","l","22","Sounds/correct.wav","null","2","","","","","","",""
"null","","audio-keyboard-response","553","3017868","0.0-15.0-0.25","l","22","Sounds/cat_sound.wav","null","2","","","","","","",""
"null","","html-keyboard-response","554","3018862","0.0-15.0-1.25","l","22","<p style=""font-size: 48px;"">+</p>","null","2","","","","","","",""
"455.79999999608845","","image-keyboard-response","555","3019318","0.0-15.0-2.25","l","22","Images/cat_1.png","76","2","1582300772019","match","cat","cat","sound","test","true"
"null","","audio-keyboard-response","556","3021332","0.0-15.0-3.25","l","22","Sounds/correct.wav","null","2","","","","","","",""
"null","","audio-keyboard-response","557","3022028","0.0-15.0-0.26","l","22","Sounds/whistle_label.wav","null","2","","","","","","",""
"null","","html-keyboard-response","558","3023028","0.0-15.0-1.26","l","22","<p style=""font-size: 48px;"">+</p>","null","2","","","","","","",""
"561.5150000085123","","image-keyboard-response","559","3023591","0.0-15.0-2.26","l","22","Images/whistle_2.png","76","2","1582300776185","match","whistle","whistle","label","test","true"
"null","","audio-keyboard-response","560","3025602","0.0-15.0-3.26","l","22","Sounds/correct.wav","null","2","","","","","","",""
"null","","audio-keyboard-response","561","3026508","0.0-15.0-0.27","l","22","Sounds/frog_label.wav","null","2","","","","","","",""
"null","","html-keyboard-response","562","3027512","0.0-15.0-1.27","l","22","<p style=""font-size: 48px;"">+</p>","null","2","","","","","","",""
"461.74499997869134","","image-keyboard-response","563","3027974","0.0-15.0-2.27","l","22","Images/gun_orig.png","65","2","1582300780669","non-match","gun","frog","label","test","true"
"null","","audio-keyboard-response","564","3029984","0.0-15.0-3.27","l","22","Sounds/correct.wav","null","2","","","","","","",""
"null","","audio-keyboard-response","565","3030868","0.0-15.0-0.28","l","22","Sounds/frog_sound.wav","null","2","","","","","","",""
"null","","html-keyboard-response","566","3031862","0.0-15.0-1.28","l","22","<p style=""font-size: 48px;"">+</p>","null","2","","","","","","",""
"399.70499998889863","","image-keyboard-response","567","3032262","0.0-15.0-2.28","l","22","Images/frog_orig.png","76","2","1582300785019","match","frog","frog","sound","test","true"
"null","","audio-keyboard-response","568","3034268","0.0-15.0-3.28","l","22","Sounds/correct.wav","null","2","","","","","","",""
"null","","audio-keyboard-response","569","3035408","0.0-15.0-0.29","l","22","Sounds/motorcycle_label.wav","null","2","","","","","","",""
"null","","html-keyboard-response","570","3036412","0.0-15.0-1.29","l","22","<p style=""font-size: 48px;"">+</p>","null","2","","","","","","",""
"426.01499997545034","","image-keyboard-response","571","3036839","0.0-15.0-2.29","l","22","Images/motorcycle_3.png","76","2","1582300789569","match","motorcycle","motorcycle","label","test","true"
"null","","audio-keyboard-response","572","3038850","0.0-15.0-3.29","l","22","Sounds/correct.wav","null","2","","","","","","",""
"null","","audio-keyboard-response","573","3039548","0.0-15.0-0.30","l","22","Sounds/rooster_sound.wav","null","2","","","","","","",""
"null","","html-keyboard-response","574","3040545","0.0-15.0-1.30","l","22","<p style=""font-size: 48px;"">+</p>","null","2","","","","","","",""
"532.2850000229664","","image-keyboard-response","575","3041078","0.0-15.0-2.30","l","22","Images/whistle_cartoon.png","65","2","1582300793702","non-match","whistle","rooster","sound","test","true"
"null","","audio-keyboard-response","576","3043082","0.0-15.0-3.30","l","22","Sounds/correct.wav","null","2","","","","","","",""
"null","","audio-keyboard-response","577","3043747","0.0-15.0-0.31","l","22","Sounds/rooster_sound.wav","null","2","","","","","","",""
"null","","html-keyboard-response","578","3044743","0.0-15.0-1.31","l","22","<p style=""font-size: 48px;"">+</p>","null","2","","","","","","",""
"332.71499996772036","","image-keyboard-response","579","3045077","0.0-15.0-2.31","l","22","Images/rooster_3.png","76","2","1582300797901","match","rooster","rooster","sound","test","true"
"null","","audio-keyboard-response","580","3047084","0.0-15.0-3.31","l","22","Sounds/correct.wav","null","2","","","","","","",""
"null","","audio-keyboard-response","581","3048367","0.0-15.0-0.32","l","22","Sounds/train_label.wav","null","2","","","","","","",""
"null","","html-keyboard-response","582","3049360","0.0-15.0-1.32","l","22","<p style=""font-size: 48px;"">+</p>","null","2","","","","","","",""
"419.8850000393577","","image-keyboard-response","583","3049781","0.0-15.0-2.32","l","22","Images/train_cartoon.png","76","2","1582300802517","match","train","train","label","test","true"
"null","","audio-keyboard-response","584","3051798","0.0-15.0-3.32","l","22","Sounds/correct.wav","null","2","","","","","","",""
"null","","audio-keyboard-response","585","3052467","0.0-15.0-0.33","l","22","Sounds/dog_label.wav","null","2","","","","","","",""
"null","","html-keyboard-response","586","3053460","0.0-15.0-1.33","l","22","<p style=""font-size: 48px;"">+</p>","null","2","","","","","","",""
"543.424999981653","","image-keyboard-response","587","3054005","0.0-15.0-2.33","l","22","Images/gun_1.png","65","2","1582300806617","non-match","gun","dog","label","test","true"
"null","","audio-keyboard-response","588","3056014","0.0-15.0-3.33","l","22","Sounds/correct.wav","null","2","","","","","","",""
"null","","audio-keyboard-response","589","3057027","0.0-15.0-0.34","l","22","Sounds/cow_sound.wav","null","2","","","","","","",""
"null","","html-keyboard-response","590","3058027","0.0-15.0-1.34","l","22","<p style=""font-size: 48px;"">+</p>","null","2","","","","","","",""
"504.86499996623024","","image-keyboard-response","591","3058533","0.0-15.0-2.34","l","22","Images/cat_3.png","65","2","1582300811184","non-match","cat","cow","sound","test","true"
"null","","audio-keyboard-response","592","3060548","0.0-15.0-3.34","l","22","Sounds/correct.wav","null","2","","","","","","",""
"null","","audio-keyboard-response","593","3061627","0.0-15.0-0.35","l","22","Sounds/car_label.wav","null","2","","","","","","",""
"null","","html-keyboard-response","594","3062627","0.0-15.0-1.35","l","22","<p style=""font-size: 48px;"">+</p>","null","2","","","","","","",""
"480.8149999589659","","image-keyboard-response","595","3063109","0.0-15.0-2.35","l","22","Images/car_cartoon.png","65","2","1582300815784","match","car","car","label","test","false"
"null","","audio-keyboard-response","596","3065118","0.0-15.0-3.35","l","22","Sounds/incorrect.wav","null","2","","","","","","",""
"null","","audio-keyboard-response","597","3065947","0.0-15.0-0.36","l","22","Sounds/cat_sound.wav","null","2","","","","","","",""
"null","","html-keyboard-response","598","3066944","0.0-15.0-1.36","l","22","<p style=""font-size: 48px;"">+</p>","null","2","","","","","","",""
"467.8900000290014","","image-keyboard-response","599","3067413","0.0-15.0-2.36","l","22","Images/cat_cartoon.png","76","2","1582300820101","match","cat","cat","sound","test","true"
"null","","audio-keyboard-response","600","3069416","0.0-15.0-3.36","l","22","Sounds/correct.wav","null","2","","","","","","",""
"null","","audio-keyboard-response","601","3070127","0.0-15.0-0.37","l","22","Sounds/dog_sound.wav","null","2","","","","","","",""
"null","","html-keyboard-response","602","3071127","0.0-15.0-1.37","l","22","<p style=""font-size: 48px;"">+</p>","null","2","","","","","","",""
"508.73000000137836","","image-keyboard-response","603","3071637","0.0-15.0-2.37","l","22","Images/motorcycle_1.png","65","2","1582300824284","non-match","motorcycle","dog","sound","test","true"
"null","","audio-keyboard-response","604","3073647","0.0-15.0-3.37","l","22","Sounds/correct.wav","null","2","","","","","","",""
"null","","audio-keyboard-response","605","3074927","0.0-15.0-0.38","l","22","Sounds/train_label.wav","null","2","","","","","","",""
"null","","html-keyboard-response","606","3075927","0.0-15.0-1.38","l","22","<p style=""font-size: 48px;"">+</p>","null","2","","","","","","",""
"412.7149999840185","","image-keyboard-response","607","3076341","0.0-15.0-2.38","l","22","Images/train_1.png","76","2","1582300829084","match","train","train","label","test","true"
"null","","audio-keyboard-response","608","3078349","0.0-15.0-3.38","l","22","Sounds/correct.wav","null","2","","","","","","",""
"null","","audio-keyboard-response","609","3079427","0.0-15.0-0.39","l","22","Sounds/car_sound.wav","null","2","","","","","","",""
"null","","html-keyboard-response","610","3080427","0.0-15.0-1.39","l","22","<p style=""font-size: 48px;"">+</p>","null","2","","","","","","",""
"536.4650000119582","","image-keyboard-response","611","3080965","0.0-15.0-2.39","l","22","Images/car_orig.png","76","2","1582300833584","match","car","car","sound","test","true"
"null","","audio-keyboard-response","612","3082982","0.0-15.0-3.39","l","22","Sounds/correct.wav","null","2","","","","","","",""
"null","","audio-keyboard-response","613","3084067","0.0-15.0-0.40","l","22","Sounds/car_label.wav","null","2","","","","","","",""
"null","","html-keyboard-response","614","3085061","0.0-15.0-1.40","l","22","<p style=""font-size: 48px;"">+</p>","null","2","","","","","","",""
"590.9300000057556","","image-keyboard-response","615","3085653","0.0-15.0-2.40","l","22","Images/train_1.png","65","2","1582300838218","non-match","train","car","label","test","true"
"null","","audio-keyboard-response","616","3087666","0.0-15.0-3.40","l","22","Sounds/correct.wav","null","2","","","","","","",""
"null","","audio-keyboard-response","617","3088327","0.0-15.0-0.41","l","22","Sounds/dog_label.wav","null","2","","","","","","",""
"null","","html-keyboard-response","618","3089328","0.0-15.0-1.41","l","22","<p style=""font-size: 48px;"">+</p>","null","2","","","","","","",""
"611.9199999957345","","image-keyboard-response","619","3089941","0.0-15.0-2.41","l","22","Images/cow_orig.png","65","2","1582300842484","non-match","cow","dog","label","test","true"
"null","","audio-keyboard-response","620","3091949","0.0-15.0-3.41","l","22","Sounds/correct.wav","null","2","","","","","","",""
"null","","audio-keyboard-response","621","3092867","0.0-15.0-0.42","l","22","Sounds/frog_sound.wav","null","2","","","","","","",""
"null","","html-keyboard-response","622","3093861","0.0-15.0-1.42","l","22","<p style=""font-size: 48px;"">+</p>","null","2","","","","","","",""
"415.29000003356487","","image-keyboard-response","623","3094277","0.0-15.0-2.42","l","22","Images/rooster_cartoon.png","65","2","1582300847018","non-match","rooster","frog","sound","test","true"
"null","","audio-keyboard-response","624","3096283","0.0-15.0-3.42","l","22","Sounds/correct.wav","null","2","","","","","","",""
"null","","audio-keyboard-response","625","3096987","0.0-15.0-0.43","l","22","Sounds/rooster_label.wav","null","2","","","","","","",""
"null","","html-keyboard-response","626","3097978","0.0-15.0-1.43","l","22","<p style=""font-size: 48px;"">+</p>","null","2","","","","","","",""
"426.06999998679385","","image-keyboard-response","627","3098405","0.0-15.0-2.43","l","22","Images/rooster_cartoon.png","76","2","1582300851135","match","rooster","rooster","label","test","true"
"null","","audio-keyboard-response","628","3100415","0.0-15.0-3.43","l","22","Sounds/correct.wav","null","2","","","","","","",""
"null","","audio-keyboard-response","629","3100987","0.0-15.0-0.44","l","22","Sounds/gun_label.wav","null","2","","","","","","",""
"null","","html-keyboard-response","630","3101978","0.0-15.0-1.44","l","22","<p style=""font-size: 48px;"">+</p>","null","2","","","","","","",""
"538.3750000037253","","image-keyboard-response","631","3102517","0.0-15.0-2.44","l","22","Images/whistle_orig.png","65","2","1582300855135","non-match","whistle","gun","label","test","true"
"null","","audio-keyboard-response","632","3104530","0.0-15.0-3.44","l","22","Sounds/correct.wav","null","2","","","","","","",""
"null","","audio-keyboard-response","633","3105645","0.0-15.0-0.45","l","22","Sounds/motorcycle_sound.wav","null","2","","","","","","",""
"null","","html-keyboard-response","634","3106643","0.0-15.0-1.45","l","22","<p style=""font-size: 48px;"">+</p>","null","2","","","","","","",""
"591.4049999555573","","image-keyboard-response","635","3107236","0.0-15.0-2.45","l","22","Images/motorcycle_orig.png","76","2","1582300859800","match","motorcycle","motorcycle","sound","test","true"
"null","","audio-keyboard-response","636","3109246","0.0-15.0-3.45","l","22","Sounds/correct.wav","null","2","","","","","","",""
"null","","audio-keyboard-response","637","3110325","0.0-15.0-0.46","l","22","Sounds/car_sound.wav","null","2","","","","","","",""
"null","","html-keyboard-response","638","3111326","0.0-15.0-1.46","l","22","<p style=""font-size: 48px;"">+</p>","null","2","","","","","","",""
"436.08000001404434","","image-keyboard-response","639","3111763","0.0-15.0-2.46","l","22","Images/car_1.png","76","2","1582300864483","match","car","car","sound","test","true"
"null","","audio-keyboard-response","640","3113780","0.0-15.0-3.46","l","22","Sounds/correct.wav","null","2","","","","","","",""
"null","","audio-keyboard-response","641","3114325","0.0-15.0-0.47","l","22","Sounds/gun_label.wav","null","2","","","","","","",""
"null","","html-keyboard-response","642","3115343","0.0-15.0-1.47","l","22","<p style=""font-size: 48px;"">+</p>","null","2","","","","","","",""
"355.5099999648519","","image-keyboard-response","643","3115700","0.0-15.0-2.47","l","22","Images/gun_1.png","76","2","1582300868500","match","gun","gun","label","test","true"
"null","","audio-keyboard-response","644","3117715","0.0-15.0-3.47","l","22","Sounds/correct.wav","null","2","","","","","","",""
"null","","audio-keyboard-response","645","3118625","0.0-15.0-0.48","l","22","Sounds/frog_sound.wav","null","2","","","","","","",""
"null","","html-keyboard-response","646","3119643","0.0-15.0-1.48","l","22","<p style=""font-size: 48px;"">+</p>","null","2","","","","","","",""
"391.52000000467524","","image-keyboard-response","647","3120036","0.0-15.0-2.48","l","22","Images/frog_2.png","76","2","1582300872800","match","frog","frog","sound","test","true"
"null","","audio-keyboard-response","648","3122046","0.0-15.0-3.48","l","22","Sounds/correct.wav","null","2","","","","","","",""
"null","","audio-keyboard-response","649","3123345","0.0-15.0-0.49","l","22","Sounds/train_sound.wav","null","2","","","","","","",""
"null","","html-keyboard-response","650","3124343","0.0-15.0-1.49","l","22","<p style=""font-size: 48px;"">+</p>","null","2","","","","","","",""
"457.78499997686595","","image-keyboard-response","651","3124804","0.0-15.0-2.49","l","22","Images/train_orig.png","76","2","1582300877500","match","train","train","sound","test","true"
"null","","audio-keyboard-response","652","3126814","0.0-15.0-3.49","l","22","Sounds/correct.wav","null","2","","","","","","",""
"null","","audio-keyboard-response","653","3127505","0.0-15.0-0.50","l","22","Sounds/whistle_label.wav","null","2","","","","","","",""
"null","","html-keyboard-response","654","3128510","0.0-15.0-1.50","l","22","<p style=""font-size: 48px;"">+</p>","null","2","","","","","","",""
"532.5399999856018","","image-keyboard-response","655","3129044","0.0-15.0-2.50","l","22","Images/whistle_3.png","76","2","1582300881667","match","whistle","whistle","label","test","true"
"null","","audio-keyboard-response","656","3131048","0.0-15.0-3.50","l","22","Sounds/correct.wav","null","2","","","","","","",""
"null","","audio-keyboard-response","657","3131705","0.0-15.0-0.51","l","22","Sounds/dog_label.wav","null","2","","","","","","",""
