"rt","responses","trial_type","trial_index","time_elapsed","internal_node_id","match_key","participant_id","stimulus","key_press","block","stim_onset","match_type","image_category","sound_category","audio_type","phase","correct"
"10809.40000000001","{""Q0"":""COGS219_2020_37""}","survey-text","0","10846","0.0-0.0","l","COGS219_2020_37","","","","","","","","","",""
"16827.069999999992","","html-keyboard-response","1","27685","0.0-1.0","l","COGS219_2020_37","<p>Use KEYBOARD 1 (match RIGHT)</p><p>Press MATCH to continue.</p>","76","","","","","","","",""
"1580260.4300000002","","html-keyboard-response","2","1608660","0.0-2.0","l","COGS219_2020_37","<p>Welcome to the experiment.</p>","39","","","","","","","",""
"15075.824999999953","","html-keyboard-response","3","1623743","0.0-3.0","l","COGS219_2020_37","<p>Thank you for agreeing to participate in this study.</p><p>If during any part of the procedure you must stop for any reason, please inform the researcher that you do not wish to continue.</p>","39","","","","","","","",""
"17518.534999999916","","html-keyboard-response","4","1641263","0.0-4.0","l","COGS219_2020_37","<p>In this experiment, you will hear various words or sounds and see pictures of various animals and objects.</p><p>Most of the images will be of common everyday objects, such as cars, cats, cows, firearms, frogs, chickens, whistles, trains, motorcycles, and dogs.</p><p>Some of the images will be real-life stills, while others will be cartoons.</p>","39","","","","","","","",""
"12767.065000000177","","html-keyboard-response","5","1654032","0.0-5.0","l","COGS219_2020_37","<p>Sometimes, the word/sound will match the picture, for example you'll hear a meowing sound and see a cat.</p><p>Other times, the picture will not match the sound or word.</p><p>Your task is to decide as quickly as possible if the word/sound matches the picture or not. </p>","39","","","","","","","",""
"10238.605000000214","","html-keyboard-response","6","1664271","0.0-6.0","l","COGS219_2020_37","<p>For example, if you hear the word ""cat"" or hear a meowing sound, and then see a picture of a cat, you should press the MATCH key.</p><p> If the sound and image do not match, press the NOT-MATCH key to indicate that there is not a match.</p>","39","","","","","","","",""
"11872.069999999832","","html-keyboard-response","7","1676145","0.0-7.0","l","COGS219_2020_37","<p>If you make a mistake, you will hear a buzzing sound instead of a more pleasant sound.</p><p> Try to respond as quickly as possible, while making as few errors as possible. If you are making mistakes, you are probably rushing.</p>","39","","","","","","","",""
"62685.19999999995","","html-keyboard-response","8","1738831","0.0-8.0","l","COGS219_2020_37","<p>Please try to not move or blink your eyes during the presentation of the images. You can move and blink between images.</p><p>During the experiment there will be some breaks during which you can rest your eyes.</p>","76","","","","","","","",""
"5054.494999999879","","html-keyboard-response","9","1743887","0.0-9.0","l","COGS219_2020_37","<p>We will begin with 10 practice trials. Please let the experimenter know if you have any questions.</p>","76","","","","","","","",""
"null","","audio-keyboard-response","10","1745033","0.0-10.0-0.0","l","COGS219_2020_37","Sounds/cow_label.wav","null","0","","","","","","",""
"null","","html-keyboard-response","11","1746036","0.0-10.0-1.0","l","COGS219_2020_37","<p style=""font-size: 48px;"">+</p>","null","0","","","","","","",""
"905.1449999997858","","image-keyboard-response","12","1746943","0.0-10.0-2.0","l","COGS219_2020_37","Images/rooster_orig.png","65","0","1583109801059","non-match","rooster","cow","label","practice","true"
"null","","audio-keyboard-response","13","1748946","0.0-10.0-3.0","l","COGS219_2020_37","Sounds/correct.wav","null","0","","","","","","",""
"null","","audio-keyboard-response","14","1750033","0.0-10.0-0.1","l","COGS219_2020_37","Sounds/car_sound.wav","null","0","","","","","","",""
"null","","html-keyboard-response","15","1751036","0.0-10.0-1.1","l","COGS219_2020_37","<p style=""font-size: 48px;"">+</p>","null","0","","","","","","",""
"786.2849999999162","","image-keyboard-response","16","1751824","0.0-10.0-2.1","l","COGS219_2020_37","Images/car_2.png","76","0","1583109806059","match","car","car","sound","practice","true"
"null","","audio-keyboard-response","17","1753829","0.0-10.0-3.1","l","COGS219_2020_37","Sounds/correct.wav","null","0","","","","","","",""
"null","","audio-keyboard-response","18","1754533","0.0-10.0-0.2","l","COGS219_2020_37","Sounds/dog_sound.wav","null","0","","","","","","",""
"null","","html-keyboard-response","19","1755536","0.0-10.0-1.2","l","COGS219_2020_37","<p style=""font-size: 48px;"">+</p>","null","0","","","","","","",""
"733.5299999997951","","image-keyboard-response","20","1756271","0.0-10.0-2.2","l","COGS219_2020_37","Images/dog_orig.png","76","0","1583109810560","match","dog","dog","sound","practice","true"
"null","","audio-keyboard-response","21","1758274","0.0-10.0-3.2","l","COGS219_2020_37","Sounds/correct.wav","null","0","","","","","","",""
"null","","audio-keyboard-response","22","1759273","0.0-10.0-0.3","l","COGS219_2020_37","Sounds/cow_label.wav","null","0","","","","","","",""
"null","","html-keyboard-response","23","1760270","0.0-10.0-1.3","l","COGS219_2020_37","<p style=""font-size: 48px;"">+</p>","null","0","","","","","","",""
"592.0649999999441","","image-keyboard-response","24","1760863","0.0-10.0-2.3","l","COGS219_2020_37","Images/cow_2.png","76","0","1583109815293","match","cow","cow","label","practice","true"
"null","","audio-keyboard-response","25","1762866","0.0-10.0-3.3","l","COGS219_2020_37","Sounds/correct.wav","null","0","","","","","","",""
"null","","audio-keyboard-response","26","1764013","0.0-10.0-0.4","l","COGS219_2020_37","Sounds/motorcycle_label.wav","null","0","","","","","","",""
"null","","html-keyboard-response","27","1765003","0.0-10.0-1.4","l","COGS219_2020_37","<p style=""font-size: 48px;"">+</p>","null","0","","","","","","",""
"723.0500000000466","","image-keyboard-response","28","1765727","0.0-10.0-2.4","l","COGS219_2020_37","Images/car_orig.png","65","0","1583109820026","non-match","car","motorcycle","label","practice","true"
"null","","audio-keyboard-response","29","1767730","0.0-10.0-3.4","l","COGS219_2020_37","Sounds/correct.wav","null","0","","","","","","",""
"null","","audio-keyboard-response","30","1769032","0.0-10.0-0.5","l","COGS219_2020_37","Sounds/train_sound.wav","null","0","","","","","","",""
"null","","html-keyboard-response","31","1770036","0.0-10.0-1.5","l","COGS219_2020_37","<p style=""font-size: 48px;"">+</p>","null","0","","","","","","",""
"568.2650000001304","","image-keyboard-response","32","1770607","0.0-10.0-2.5","l","COGS219_2020_37","Images/cat_1.png","65","0","1583109825060","non-match","cat","train","sound","practice","true"
"null","","audio-keyboard-response","33","1772609","0.0-10.0-3.5","l","COGS219_2020_37","Sounds/correct.wav","null","0","","","","","","",""
"null","","audio-keyboard-response","34","1773453","0.0-10.0-0.6","l","COGS219_2020_37","Sounds/cat_sound.wav","null","0","","","","","","",""
"null","","html-keyboard-response","35","1774470","0.0-10.0-1.6","l","COGS219_2020_37","<p style=""font-size: 48px;"">+</p>","null","0","","","","","","",""
"615.9550000000745","","image-keyboard-response","36","1775087","0.0-10.0-2.6","l","COGS219_2020_37","Images/dog_cartoon.png","65","0","1583109829493","non-match","dog","cat","sound","practice","true"
"null","","audio-keyboard-response","37","1777090","0.0-10.0-3.6","l","COGS219_2020_37","Sounds/correct.wav","null","0","","","","","","",""
"null","","audio-keyboard-response","38","1778213","0.0-10.0-0.7","l","COGS219_2020_37","Sounds/motorcycle_sound.wav","null","0","","","","","","",""
"null","","html-keyboard-response","39","1779203","0.0-10.0-1.7","l","COGS219_2020_37","<p style=""font-size: 48px;"">+</p>","null","0","","","","","","",""
"394.9550000000745","","image-keyboard-response","40","1779599","0.0-10.0-2.7","l","COGS219_2020_37","Images/motorcycle_orig.png","76","0","1583109834226","match","motorcycle","motorcycle","sound","practice","true"
"null","","audio-keyboard-response","41","1781603","0.0-10.0-3.7","l","COGS219_2020_37","Sounds/correct.wav","null","0","","","","","","",""
"null","","audio-keyboard-response","42","1782613","0.0-10.0-0.8","l","COGS219_2020_37","Sounds/cow_sound.wav","null","0","","","","","","",""
"null","","html-keyboard-response","43","1783603","0.0-10.0-1.8","l","COGS219_2020_37","<p style=""font-size: 48px;"">+</p>","null","0","","","","","","",""
"554.7000000001863","","image-keyboard-response","44","1784159","0.0-10.0-2.8","l","COGS219_2020_37","Images/cow_1.png","76","0","1583109838627","match","cow","cow","sound","practice","true"
"null","","audio-keyboard-response","45","1786162","0.0-10.0-3.8","l","COGS219_2020_37","Sounds/correct.wav","null","0","","","","","","",""
"null","","audio-keyboard-response","46","1786853","0.0-10.0-0.9","l","COGS219_2020_37","Sounds/whistle_sound.wav","null","0","","","","","","",""
"null","","html-keyboard-response","47","1787870","0.0-10.0-1.9","l","COGS219_2020_37","<p style=""font-size: 48px;"">+</p>","null","0","","","","","","",""
"655.9450000000652","","image-keyboard-response","48","1788527","0.0-10.0-2.9","l","COGS219_2020_37","Images/whistle_1.png","76","0","1583109842893","match","whistle","whistle","sound","practice","true"
"null","","audio-keyboard-response","49","1790530","0.0-10.0-3.9","l","COGS219_2020_37","Sounds/correct.wav","null","0","","","","","","",""
"43212.67500000005","","html-keyboard-response","50","1833743","0.0-11.0","l","COGS219_2020_37","<p>The rest of the experiment is divided into five blocks with 100 trials in each block. It will take about 45 minutes to complete.</p><p>The experimenter will be in the outer room and you can communicate with them through the monitor if you have any questions or wish to stop the experiment.</p>","76","","","","","","","",""
"7358.969999999972","","html-keyboard-response","51","1841103","0.0-12.0","l","COGS219_2020_37","<p>Remember, please try not to move or blink your eyes during the presentation of the images. </p><p>At the end of the experiment, we will show you your scores on the task so you can see how you did.</p><p>The experiment will start on the next screen.</p>","76","","","","","","","",""
"null","","audio-keyboard-response","52","1843965","0.0-13.0-0.0","l","COGS219_2020_37","Sounds/cat_sound.wav","null","1","","","","","","",""
"null","","html-keyboard-response","53","1844954","0.0-13.0-1.0","l","COGS219_2020_37","<p style=""font-size: 48px;"">+</p>","null","1","","","","","","",""
"516.065000000177","","image-keyboard-response","54","1845471","0.0-13.0-2.0","l","COGS219_2020_37","Images/motorcycle_2.png","65","1","1583109899977","non-match","motorcycle","cat","sound","test","true"
"null","","audio-keyboard-response","55","1847475","0.0-13.0-3.0","l","COGS219_2020_37","Sounds/correct.wav","null","1","","","","","","",""
"null","","audio-keyboard-response","56","1848366","0.0-13.0-0.1","l","COGS219_2020_37","Sounds/frog_label.wav","null","1","","","","","","",""
"null","","html-keyboard-response","57","1849371","0.0-13.0-1.1","l","COGS219_2020_37","<p style=""font-size: 48px;"">+</p>","null","1","","","","","","",""
"483.19999999995343","","image-keyboard-response","58","1849855","0.0-13.0-2.1","l","COGS219_2020_37","Images/car_2.png","65","1","1583109904394","non-match","car","frog","label","test","true"
"null","","audio-keyboard-response","59","1851858","0.0-13.0-3.1","l","COGS219_2020_37","Sounds/correct.wav","null","1","","","","","","",""
"null","","audio-keyboard-response","60","1852985","0.0-13.0-0.2","l","COGS219_2020_37","Sounds/motorcycle_label.wav","null","1","","","","","","",""
"null","","html-keyboard-response","61","1853987","0.0-13.0-1.2","l","COGS219_2020_37","<p style=""font-size: 48px;"">+</p>","null","1","","","","","","",""
"618.6599999996834","","image-keyboard-response","62","1854607","0.0-13.0-2.2","l","COGS219_2020_37","Images/train_2.png","65","1","1583109909011","non-match","train","motorcycle","label","test","true"
"null","","audio-keyboard-response","63","1856610","0.0-13.0-3.2","l","COGS219_2020_37","Sounds/correct.wav","null","1","","","","","","",""
"null","","audio-keyboard-response","64","1857305","0.0-13.0-0.3","l","COGS219_2020_37","Sounds/whistle_label.wav","null","1","","","","","","",""
"null","","html-keyboard-response","65","1858304","0.0-13.0-1.3","l","COGS219_2020_37","<p style=""font-size: 48px;"">+</p>","null","1","","","","","","",""
"558.0600000002887","","image-keyboard-response","66","1858863","0.0-13.0-2.3","l","COGS219_2020_37","Images/cow_2.png","65","1","1583109913327","non-match","cow","whistle","label","test","true"
"null","","audio-keyboard-response","67","1860866","0.0-13.0-3.3","l","COGS219_2020_37","Sounds/correct.wav","null","1","","","","","","",""
"null","","audio-keyboard-response","68","1861884","0.0-13.0-0.4","l","COGS219_2020_37","Sounds/cow_label.wav","null","1","","","","","","",""
"null","","html-keyboard-response","69","1862887","0.0-13.0-1.4","l","COGS219_2020_37","<p style=""font-size: 48px;"">+</p>","null","1","","","","","","",""
"582.5150000001304","","image-keyboard-response","70","1863471","0.0-13.0-2.4","l","COGS219_2020_37","Images/cow_1.png","76","1","1583109917911","match","cow","cow","label","test","true"
"null","","audio-keyboard-response","71","1865475","0.0-13.0-3.4","l","COGS219_2020_37","Sounds/correct.wav","null","1","","","","","","",""
"null","","audio-keyboard-response","72","1866305","0.0-13.0-0.5","l","COGS219_2020_37","Sounds/cat_sound.wav","null","1","","","","","","",""
"null","","html-keyboard-response","73","1867304","0.0-13.0-1.5","l","COGS219_2020_37","<p style=""font-size: 48px;"">+</p>","null","1","","","","","","",""
"406.09499999997206","","image-keyboard-response","74","1867711","0.0-13.0-2.5","l","COGS219_2020_37","Images/car_3.png","65","1","1583109922327","non-match","car","cat","sound","test","true"
"null","","audio-keyboard-response","75","1869714","0.0-13.0-3.5","l","COGS219_2020_37","Sounds/correct.wav","null","1","","","","","","",""
"null","","audio-keyboard-response","76","1870425","0.0-13.0-0.6","l","COGS219_2020_37","Sounds/dog_sound.wav","null","1","","","","","","",""
"null","","html-keyboard-response","77","1871421","0.0-13.0-1.6","l","COGS219_2020_37","<p style=""font-size: 48px;"">+</p>","null","1","","","","","","",""
"465.4700000002049","","image-keyboard-response","78","1871888","0.0-13.0-2.6","l","COGS219_2020_37","Images/dog_2.png","76","1","1583109926444","match","dog","dog","sound","test","true"
"null","","audio-keyboard-response","79","1873890","0.0-13.0-3.6","l","COGS219_2020_37","Sounds/correct.wav","null","1","","","","","","",""
"null","","audio-keyboard-response","80","1874585","0.0-13.0-0.7","l","COGS219_2020_37","Sounds/dog_sound.wav","null","1","","","","","","",""
"null","","html-keyboard-response","81","1875588","0.0-13.0-1.7","l","COGS219_2020_37","<p style=""font-size: 48px;"">+</p>","null","1","","","","","","",""
"506.21999999997206","","image-keyboard-response","82","1876096","0.0-13.0-2.7","l","COGS219_2020_37","Images/cow_orig.png","65","1","1583109930612","non-match","cow","dog","sound","test","true"
"null","","audio-keyboard-response","83","1878098","0.0-13.0-3.7","l","COGS219_2020_37","Sounds/correct.wav","null","1","","","","","","",""
"null","","audio-keyboard-response","84","1879405","0.0-13.0-0.8","l","COGS219_2020_37","Sounds/train_sound.wav","null","1","","","","","","",""
"null","","html-keyboard-response","85","1880405","0.0-13.0-1.8","l","COGS219_2020_37","<p style=""font-size: 48px;"">+</p>","null","1","","","","","","",""
"777.6399999998976","","image-keyboard-response","86","1881184","0.0-13.0-2.8","l","COGS219_2020_37","Images/frog_orig.png","65","1","1583109935428","non-match","frog","train","sound","test","true"
"null","","audio-keyboard-response","87","1883186","0.0-13.0-3.8","l","COGS219_2020_37","Sounds/correct.wav","null","1","","","","","","",""
"null","","audio-keyboard-response","88","1883885","0.0-13.0-0.9","l","COGS219_2020_37","Sounds/rooster_sound.wav","null","1","","","","","","",""
"null","","html-keyboard-response","89","1884888","0.0-13.0-1.9","l","COGS219_2020_37","<p style=""font-size: 48px;"">+</p>","null","1","","","","","","",""
"582.5600000000559","","image-keyboard-response","90","1885472","0.0-13.0-2.9","l","COGS219_2020_37","Images/cat_1.png","65","1","1583109939912","non-match","cat","rooster","sound","test","true"
"null","","audio-keyboard-response","91","1887475","0.0-13.0-3.9","l","COGS219_2020_37","Sounds/correct.wav","null","1","","","","","","",""
"null","","audio-keyboard-response","92","1888165","0.0-13.0-0.10","l","COGS219_2020_37","Sounds/dog_sound.wav","null","1","","","","","","",""
"null","","html-keyboard-response","93","1889155","0.0-13.0-1.10","l","COGS219_2020_37","<p style=""font-size: 48px;"">+</p>","null","1","","","","","","",""
"619.5700000000652","","image-keyboard-response","94","1889776","0.0-13.0-2.10","l","COGS219_2020_37","Images/cat_cartoon.png","65","1","1583109944178","non-match","cat","dog","sound","test","true"
"null","","audio-keyboard-response","95","1891779","0.0-13.0-3.10","l","COGS219_2020_37","Sounds/correct.wav","null","1","","","","","","",""
"null","","audio-keyboard-response","96","1893045","0.0-13.0-0.11","l","COGS219_2020_37","Sounds/train_label.wav","null","1","","","","","","",""
"null","","html-keyboard-response","97","1894038","0.0-13.0-1.11","l","COGS219_2020_37","<p style=""font-size: 48px;"">+</p>","null","1","","","","","","",""
"728.2449999998789","","image-keyboard-response","98","1894768","0.0-13.0-2.11","l","COGS219_2020_37","Images/train_cartoon.png","76","1","1583109949062","match","train","train","label","test","true"
"null","","audio-keyboard-response","99","1896770","0.0-13.0-3.11","l","COGS219_2020_37","Sounds/correct.wav","null","1","","","","","","",""
"null","","audio-keyboard-response","100","1897885","0.0-13.0-0.12","l","COGS219_2020_37","Sounds/motorcycle_sound.wav","null","1","","","","","","",""
"null","","html-keyboard-response","101","1898889","0.0-13.0-1.12","l","COGS219_2020_37","<p style=""font-size: 48px;"">+</p>","null","1","","","","","","",""
"822.5049999998882","","image-keyboard-response","102","1899712","0.0-13.0-2.12","l","COGS219_2020_37","Images/motorcycle_cartoon.png","65","1","1583109953912","match","motorcycle","motorcycle","sound","test","false"
"null","","audio-keyboard-response","103","1901714","0.0-13.0-3.12","l","COGS219_2020_37","Sounds/incorrect.wav","null","1","","","","","","",""
"null","","audio-keyboard-response","104","1902405","0.0-13.0-0.13","l","COGS219_2020_37","Sounds/whistle_label.wav","null","1","","","","","","",""
"null","","html-keyboard-response","105","1903405","0.0-13.0-1.13","l","COGS219_2020_37","<p style=""font-size: 48px;"">+</p>","null","1","","","","","","",""
"449.4700000002049","","image-keyboard-response","106","1903856","0.0-13.0-2.13","l","COGS219_2020_37","Images/whistle_1.png","76","1","1583109958429","match","whistle","whistle","label","test","true"
"null","","audio-keyboard-response","107","1905858","0.0-13.0-3.13","l","COGS219_2020_37","Sounds/correct.wav","null","1","","","","","","",""
"null","","audio-keyboard-response","108","1906885","0.0-13.0-0.14","l","COGS219_2020_37","Sounds/cow_label.wav","null","1","","","","","","",""
"null","","html-keyboard-response","109","1907889","0.0-13.0-1.14","l","COGS219_2020_37","<p style=""font-size: 48px;"">+</p>","null","1","","","","","","",""
"510.0450000001583","","image-keyboard-response","110","1908400","0.0-13.0-2.14","l","COGS219_2020_37","Images/cow_2.png","76","1","1583109962912","match","cow","cow","label","test","true"
"null","","audio-keyboard-response","111","1910402","0.0-13.0-3.14","l","COGS219_2020_37","Sounds/correct.wav","null","1","","","","","","",""
"null","","audio-keyboard-response","112","1911105","0.0-13.0-0.15","l","COGS219_2020_37","Sounds/rooster_label.wav","null","1","","","","","","",""
"null","","html-keyboard-response","113","1912105","0.0-13.0-1.15","l","COGS219_2020_37","<p style=""font-size: 48px;"">+</p>","null","1","","","","","","",""
"597.6199999998789","","image-keyboard-response","114","1912704","0.0-13.0-2.15","l","COGS219_2020_37","Images/motorcycle_3.png","65","1","1583109967129","non-match","motorcycle","rooster","label","test","true"
"null","","audio-keyboard-response","115","1914707","0.0-13.0-3.15","l","COGS219_2020_37","Sounds/correct.wav","null","1","","","","","","",""
"null","","audio-keyboard-response","116","1915605","0.0-13.0-0.16","l","COGS219_2020_37","Sounds/frog_sound.wav","null","1","","","","","","",""
"null","","html-keyboard-response","117","1916605","0.0-13.0-1.16","l","COGS219_2020_37","<p style=""font-size: 48px;"">+</p>","null","1","","","","","","",""
"529.4650000000838","","image-keyboard-response","118","1917136","0.0-13.0-2.16","l","COGS219_2020_37","Images/frog_3.png","76","1","1583109971629","match","frog","frog","sound","test","true"
"null","","audio-keyboard-response","119","1919138","0.0-13.0-3.16","l","COGS219_2020_37","Sounds/correct.wav","null","1","","","","","","",""
"null","","audio-keyboard-response","120","1920165","0.0-13.0-0.17","l","COGS219_2020_37","Sounds/cow_sound.wav","null","1","","","","","","",""
"null","","html-keyboard-response","121","1921156","0.0-13.0-1.17","l","COGS219_2020_37","<p style=""font-size: 48px;"">+</p>","null","1","","","","","","",""
"555.0849999999627","","image-keyboard-response","122","1921712","0.0-13.0-2.17","l","COGS219_2020_37","Images/whistle_1.png","65","1","1583109976179","non-match","whistle","cow","sound","test","true"
"null","","audio-keyboard-response","123","1923715","0.0-13.0-3.17","l","COGS219_2020_37","Sounds/correct.wav","null","1","","","","","","",""
"null","","audio-keyboard-response","124","1924405","0.0-13.0-0.18","l","COGS219_2020_37","Sounds/whistle_label.wav","null","1","","","","","","",""
"null","","html-keyboard-response","125","1925406","0.0-13.0-1.18","l","COGS219_2020_37","<p style=""font-size: 48px;"">+</p>","null","1","","","","","","",""
"449.4049999997951","","image-keyboard-response","126","1925856","0.0-13.0-2.18","l","COGS219_2020_37","Images/car_1.png","65","1","1583109980429","non-match","car","whistle","label","test","true"
"null","","audio-keyboard-response","127","1927859","0.0-13.0-3.18","l","COGS219_2020_37","Sounds/correct.wav","null","1","","","","","","",""
"null","","audio-keyboard-response","128","1929005","0.0-13.0-0.19","l","COGS219_2020_37","Sounds/motorcycle_label.wav","null","1","","","","","","",""
"null","","html-keyboard-response","129","1930006","0.0-13.0-1.19","l","COGS219_2020_37","<p style=""font-size: 48px;"">+</p>","null","1","","","","","","",""
"441.17500000004657","","image-keyboard-response","130","1930448","0.0-13.0-2.19","l","COGS219_2020_37","Images/motorcycle_1.png","76","1","1583109985029","match","motorcycle","motorcycle","label","test","true"
"null","","audio-keyboard-response","131","1932450","0.0-13.0-3.19","l","COGS219_2020_37","Sounds/correct.wav","null","1","","","","","","",""
"null","","audio-keyboard-response","132","1933145","0.0-13.0-0.20","l","COGS219_2020_37","Sounds/whistle_sound.wav","null","1","","","","","","",""
"null","","html-keyboard-response","133","1934139","0.0-13.0-1.20","l","COGS219_2020_37","<p style=""font-size: 48px;"">+</p>","null","1","","","","","","",""
"627.5400000002701","","image-keyboard-response","134","1934768","0.0-13.0-2.20","l","COGS219_2020_37","Images/whistle_3.png","76","1","1583109989163","match","whistle","whistle","sound","test","true"
"null","","audio-keyboard-response","135","1936772","0.0-13.0-3.20","l","COGS219_2020_37","Sounds/correct.wav","null","1","","","","","","",""
"null","","audio-keyboard-response","136","1937486","0.0-13.0-0.21","l","COGS219_2020_37","Sounds/dog_sound.wav","null","1","","","","","","",""
"null","","html-keyboard-response","137","1938490","0.0-13.0-1.21","l","COGS219_2020_37","<p style=""font-size: 48px;"">+</p>","null","1","","","","","","",""
"469.8900000003632","","image-keyboard-response","138","1938960","0.0-13.0-2.21","l","COGS219_2020_37","Images/dog_cartoon.png","76","1","1583109993513","match","dog","dog","sound","test","true"
"null","","audio-keyboard-response","139","1940963","0.0-13.0-3.21","l","COGS219_2020_37","Sounds/correct.wav","null","1","","","","","","",""
"null","","audio-keyboard-response","140","1942046","0.0-13.0-0.22","l","COGS219_2020_37","Sounds/motorcycle_label.wav","null","1","","","","","","",""
"null","","html-keyboard-response","141","1943039","0.0-13.0-1.22","l","COGS219_2020_37","<p style=""font-size: 48px;"">+</p>","null","1","","","","","","",""
"479.6599999999162","","image-keyboard-response","142","1943520","0.0-13.0-2.22","l","COGS219_2020_37","Images/motorcycle_3.png","76","1","1583109998063","match","motorcycle","motorcycle","label","test","true"
"null","","audio-keyboard-response","143","1945523","0.0-13.0-3.22","l","COGS219_2020_37","Sounds/correct.wav","null","1","","","","","","",""
"null","","audio-keyboard-response","144","1946366","0.0-13.0-0.23","l","COGS219_2020_37","Sounds/cat_label.wav","null","1","","","","","","",""
"null","","html-keyboard-response","145","1947356","0.0-13.0-1.23","l","COGS219_2020_37","<p style=""font-size: 48px;"">+</p>","null","1","","","","","","",""
"450.82499999995343","","image-keyboard-response","146","1947808","0.0-13.0-2.23","l","COGS219_2020_37","Images/cat_3.png","76","1","1583110002379","match","cat","cat","label","test","true"
"null","","audio-keyboard-response","147","1949812","0.0-13.0-3.23","l","COGS219_2020_37","Sounds/correct.wav","null","1","","","","","","",""
"null","","audio-keyboard-response","148","1950506","0.0-13.0-0.24","l","COGS219_2020_37","Sounds/rooster_sound.wav","null","1","","","","","","",""
"null","","html-keyboard-response","149","1951506","0.0-13.0-1.24","l","COGS219_2020_37","<p style=""font-size: 48px;"">+</p>","null","1","","","","","","",""
"429.07499999995343","","image-keyboard-response","150","1951936","0.0-13.0-2.24","l","COGS219_2020_37","Images/rooster_orig.png","76","1","1583110006529","match","rooster","rooster","sound","test","true"
"null","","audio-keyboard-response","151","1953939","0.0-13.0-3.24","l","COGS219_2020_37","Sounds/correct.wav","null","1","","","","","","",""
"null","","audio-keyboard-response","152","1955246","0.0-13.0-0.25","l","COGS219_2020_37","Sounds/train_sound.wav","null","1","","","","","","",""
"null","","html-keyboard-response","153","1956240","0.0-13.0-1.25","l","COGS219_2020_37","<p style=""font-size: 48px;"">+</p>","null","1","","","","","","",""
"735.5049999996554","","image-keyboard-response","154","1956976","0.0-13.0-2.25","l","COGS219_2020_37","Images/train_2.png","76","1","1583110011263","match","train","train","sound","test","true"
"null","","audio-keyboard-response","155","1958979","0.0-13.0-3.25","l","COGS219_2020_37","Sounds/correct.wav","null","1","","","","","","",""
"null","","audio-keyboard-response","156","1960006","0.0-13.0-0.26","l","COGS219_2020_37","Sounds/cow_sound.wav","null","1","","","","","","",""
"null","","html-keyboard-response","157","1961007","0.0-13.0-1.26","l","COGS219_2020_37","<p style=""font-size: 48px;"">+</p>","null","1","","","","","","",""
"640.2900000002701","","image-keyboard-response","158","1961648","0.0-13.0-2.26","l","COGS219_2020_37","Images/train_1.png","65","1","1583110016030","non-match","train","cow","sound","test","true"
"null","","audio-keyboard-response","159","1963651","0.0-13.0-3.26","l","COGS219_2020_37","Sounds/correct.wav","null","1","","","","","","",""
"null","","audio-keyboard-response","160","1964726","0.0-13.0-0.27","l","COGS219_2020_37","Sounds/car_label.wav","null","1","","","","","","",""
"null","","html-keyboard-response","161","1965723","0.0-13.0-1.27","l","COGS219_2020_37","<p style=""font-size: 48px;"">+</p>","null","1","","","","","","",""
"612.2600000000093","","image-keyboard-response","162","1966336","0.0-13.0-2.27","l","COGS219_2020_37","Images/car_cartoon.png","76","1","1583110020746","match","car","car","label","test","true"
"null","","audio-keyboard-response","163","1968339","0.0-13.0-3.27","l","COGS219_2020_37","Sounds/correct.wav","null","1","","","","","","",""
"null","","audio-keyboard-response","164","1969326","0.0-13.0-0.28","l","COGS219_2020_37","Sounds/cow_sound.wav","null","1","","","","","","",""
"null","","html-keyboard-response","165","1970323","0.0-13.0-1.28","l","COGS219_2020_37","<p style=""font-size: 48px;"">+</p>","null","1","","","","","","",""
"1340.1149999997579","","image-keyboard-response","166","1971664","0.0-13.0-2.28","l","COGS219_2020_37","Images/gun_orig.png","65","1","1583110025346","non-match","gun","cow","sound","test","true"
"null","","audio-keyboard-response","167","1973667","0.0-13.0-3.28","l","COGS219_2020_37","Sounds/correct.wav","null","1","","","","","","",""
"null","","audio-keyboard-response","168","1974726","0.0-13.0-0.29","l","COGS219_2020_37","Sounds/car_label.wav","null","1","","","","","","",""
"null","","html-keyboard-response","169","1975723","0.0-13.0-1.29","l","COGS219_2020_37","<p style=""font-size: 48px;"">+</p>","null","1","","","","","","",""
"531.8499999998603","","image-keyboard-response","170","1976256","0.0-13.0-2.29","l","COGS219_2020_37","Images/dog_2.png","65","1","1583110030747","non-match","dog","car","label","test","true"
"null","","audio-keyboard-response","171","1978258","0.0-13.0-3.29","l","COGS219_2020_37","Sounds/correct.wav","null","1","","","","","","",""
"null","","audio-keyboard-response","172","1979386","0.0-13.0-0.30","l","COGS219_2020_37","Sounds/motorcycle_sound.wav","null","1","","","","","","",""
"null","","html-keyboard-response","173","1980390","0.0-13.0-1.30","l","COGS219_2020_37","<p style=""font-size: 48px;"">+</p>","null","1","","","","","","",""
"489.57499999995343","","image-keyboard-response","174","1980880","0.0-13.0-2.30","l","COGS219_2020_37","Images/motorcycle_2.png","76","1","1583110035413","match","motorcycle","motorcycle","sound","test","true"
"null","","audio-keyboard-response","175","1982883","0.0-13.0-3.30","l","COGS219_2020_37","Sounds/correct.wav","null","1","","","","","","",""
"null","","audio-keyboard-response","176","1983966","0.0-13.0-0.31","l","COGS219_2020_37","Sounds/car_sound.wav","null","1","","","","","","",""
"null","","html-keyboard-response","177","1984957","0.0-13.0-1.31","l","COGS219_2020_37","<p style=""font-size: 48px;"">+</p>","null","1","","","","","","",""
"402.23999999975786","","image-keyboard-response","178","1985360","0.0-13.0-2.31","l","COGS219_2020_37","Images/car_3.png","76","1","1583110039980","match","car","car","sound","test","true"
"null","","audio-keyboard-response","179","1987362","0.0-13.0-3.31","l","COGS219_2020_37","Sounds/correct.wav","null","1","","","","","","",""
"null","","audio-keyboard-response","180","1988026","0.0-13.0-0.32","l","COGS219_2020_37","Sounds/dog_label.wav","null","1","","","","","","",""
"null","","html-keyboard-response","181","1989023","0.0-13.0-1.32","l","COGS219_2020_37","<p style=""font-size: 48px;"">+</p>","null","1","","","","","","",""
"575.9499999999534","","image-keyboard-response","182","1989600","0.0-13.0-2.32","l","COGS219_2020_37","Images/dog_orig.png","76","1","1583110044046","match","dog","dog","label","test","true"
"null","","audio-keyboard-response","183","1991603","0.0-13.0-3.32","l","COGS219_2020_37","Sounds/correct.wav","null","1","","","","","","",""
"null","","audio-keyboard-response","184","1992306","0.0-13.0-0.33","l","COGS219_2020_37","Sounds/rooster_sound.wav","null","1","","","","","","",""
"null","","html-keyboard-response","185","1993307","0.0-13.0-1.33","l","COGS219_2020_37","<p style=""font-size: 48px;"">+</p>","null","1","","","","","","",""
"484.57499999995343","","image-keyboard-response","186","1993793","0.0-13.0-2.33","l","COGS219_2020_37","Images/rooster_2.png","76","1","1583110048330","match","rooster","rooster","sound","test","true"
"null","","audio-keyboard-response","187","1995796","0.0-13.0-3.33","l","COGS219_2020_37","Sounds/correct.wav","null","1","","","","","","",""
"null","","audio-keyboard-response","188","1996426","0.0-13.0-0.34","l","COGS219_2020_37","Sounds/dog_label.wav","null","1","","","","","","",""
"null","","html-keyboard-response","189","1997424","0.0-13.0-1.34","l","COGS219_2020_37","<p style=""font-size: 48px;"">+</p>","null","1","","","","","","",""
"671.7600000002421","","image-keyboard-response","190","1998097","0.0-13.0-2.34","l","COGS219_2020_37","Images/whistle_2.png","76","1","1583110052447","non-match","whistle","dog","label","test","false"
"null","","audio-keyboard-response","191","2000099","0.0-13.0-3.34","l","COGS219_2020_37","Sounds/incorrect.wav","null","1","","","","","","",""
"null","","audio-keyboard-response","192","2000766","0.0-13.0-0.35","l","COGS219_2020_37","Sounds/rooster_sound.wav","null","1","","","","","","",""
"null","","html-keyboard-response","193","2001757","0.0-13.0-1.35","l","COGS219_2020_37","<p style=""font-size: 48px;"">+</p>","null","1","","","","","","",""
"706.190000000177","","image-keyboard-response","194","2002465","0.0-13.0-2.35","l","COGS219_2020_37","Images/whistle_cartoon.png","65","1","1583110056781","non-match","whistle","rooster","sound","test","true"
"null","","audio-keyboard-response","195","2004467","0.0-13.0-3.35","l","COGS219_2020_37","Sounds/correct.wav","null","1","","","","","","",""
"null","","audio-keyboard-response","196","2005306","0.0-13.0-0.36","l","COGS219_2020_37","Sounds/cat_sound.wav","null","1","","","","","","",""
"null","","html-keyboard-response","197","2006307","0.0-13.0-1.36","l","COGS219_2020_37","<p style=""font-size: 48px;"">+</p>","null","1","","","","","","",""
"652.4699999999721","","image-keyboard-response","198","2006961","0.0-13.0-2.36","l","COGS219_2020_37","Images/cat_2.png","76","1","1583110061331","match","cat","cat","sound","test","true"
"null","","audio-keyboard-response","199","2008964","0.0-13.0-3.36","l","COGS219_2020_37","Sounds/correct.wav","null","1","","","","","","",""
"null","","audio-keyboard-response","200","2010086","0.0-13.0-0.37","l","COGS219_2020_37","Sounds/motorcycle_sound.wav","null","1","","","","","","",""
"null","","html-keyboard-response","201","2011091","0.0-13.0-1.37","l","COGS219_2020_37","<p style=""font-size: 48px;"">+</p>","null","1","","","","","","",""
"557.3100000000559","","image-keyboard-response","202","2011649","0.0-13.0-2.37","l","COGS219_2020_37","Images/gun_1.png","65","1","1583110066114","non-match","gun","motorcycle","sound","test","true"
"null","","audio-keyboard-response","203","2013652","0.0-13.0-3.37","l","COGS219_2020_37","Sounds/correct.wav","null","1","","","","","","",""
"null","","audio-keyboard-response","204","2014726","0.0-13.0-0.38","l","COGS219_2020_37","Sounds/car_sound.wav","null","1","","","","","","",""
"null","","html-keyboard-response","205","2015724","0.0-13.0-1.38","l","COGS219_2020_37","<p style=""font-size: 48px;"">+</p>","null","1","","","","","","",""
"1363.5250000001397","","image-keyboard-response","206","2017089","0.0-13.0-2.38","l","COGS219_2020_37","Images/train_orig.png","65","1","1583110070747","non-match","train","car","sound","test","true"
"null","","audio-keyboard-response","207","2019091","0.0-13.0-3.38","l","COGS219_2020_37","Sounds/correct.wav","null","1","","","","","","",""
"null","","audio-keyboard-response","208","2020006","0.0-13.0-0.39","l","COGS219_2020_37","Sounds/frog_sound.wav","null","1","","","","","","",""
"null","","html-keyboard-response","209","2021024","0.0-13.0-1.39","l","COGS219_2020_37","<p style=""font-size: 48px;"">+</p>","null","1","","","","","","",""
"527.0100000002421","","image-keyboard-response","210","2021553","0.0-13.0-2.39","l","COGS219_2020_37","Images/train_cartoon.png","65","1","1583110076048","non-match","train","frog","sound","test","true"
"null","","audio-keyboard-response","211","2023556","0.0-13.0-3.39","l","COGS219_2020_37","Sounds/correct.wav","null","1","","","","","","",""
"null","","audio-keyboard-response","212","2024386","0.0-13.0-0.40","l","COGS219_2020_37","Sounds/cat_sound.wav","null","1","","","","","","",""
"null","","html-keyboard-response","213","2025391","0.0-13.0-1.40","l","COGS219_2020_37","<p style=""font-size: 48px;"">+</p>","null","1","","","","","","",""
"384.74999999976717","","image-keyboard-response","214","2025777","0.0-13.0-2.40","l","COGS219_2020_37","Images/gun_2.png","65","1","1583110080414","non-match","gun","cat","sound","test","true"
"null","","audio-keyboard-response","215","2027779","0.0-13.0-3.40","l","COGS219_2020_37","Sounds/correct.wav","null","1","","","","","","",""
"null","","audio-keyboard-response","216","2028366","0.0-13.0-0.41","l","COGS219_2020_37","Sounds/gun_label.wav","null","1","","","","","","",""
"null","","html-keyboard-response","217","2029358","0.0-13.0-1.41","l","COGS219_2020_37","<p style=""font-size: 48px;"">+</p>","null","1","","","","","","",""
"594.2800000002608","","image-keyboard-response","218","2029953","0.0-13.0-2.41","l","COGS219_2020_37","Images/gun_3.png","76","1","1583110084381","match","gun","gun","label","test","true"
"null","","audio-keyboard-response","219","2031956","0.0-13.0-3.41","l","COGS219_2020_37","Sounds/correct.wav","null","1","","","","","","",""
"null","","audio-keyboard-response","220","2032866","0.0-13.0-0.42","l","COGS219_2020_37","Sounds/frog_label.wav","null","1","","","","","","",""
"null","","html-keyboard-response","221","2033858","0.0-13.0-1.42","l","COGS219_2020_37","<p style=""font-size: 48px;"">+</p>","null","1","","","","","","",""
"445.8850000000093","","image-keyboard-response","222","2034305","0.0-13.0-2.42","l","COGS219_2020_37","Images/frog_orig.png","76","1","1583110088881","match","frog","frog","label","test","true"
"null","","audio-keyboard-response","223","2036307","0.0-13.0-3.42","l","COGS219_2020_37","Sounds/correct.wav","null","1","","","","","","",""
"null","","audio-keyboard-response","224","2036946","0.0-13.0-0.43","l","COGS219_2020_37","Sounds/dog_label.wav","null","1","","","","","","",""
"null","","html-keyboard-response","225","2037941","0.0-13.0-1.43","l","COGS219_2020_37","<p style=""font-size: 48px;"">+</p>","null","1","","","","","","",""
"426.48999999975786","","image-keyboard-response","226","2038369","0.0-13.0-2.43","l","COGS219_2020_37","Images/motorcycle_orig.png","65","1","1583110092964","non-match","motorcycle","dog","label","test","true"
"null","","audio-keyboard-response","227","2040371","0.0-13.0-3.43","l","COGS219_2020_37","Sounds/correct.wav","null","1","","","","","","",""
"null","","audio-keyboard-response","228","2041666","0.0-13.0-0.44","l","COGS219_2020_37","Sounds/train_sound.wav","null","1","","","","","","",""
"null","","html-keyboard-response","229","2042658","0.0-13.0-1.44","l","COGS219_2020_37","<p style=""font-size: 48px;"">+</p>","null","1","","","","","","",""
"493.410000000149","","image-keyboard-response","230","2043153","0.0-13.0-2.44","l","COGS219_2020_37","Images/rooster_2.png","65","1","1583110097681","non-match","rooster","train","sound","test","true"
"null","","audio-keyboard-response","231","2045155","0.0-13.0-3.44","l","COGS219_2020_37","Sounds/correct.wav","null","1","","","","","","",""
"null","","audio-keyboard-response","232","2045986","0.0-13.0-0.45","l","COGS219_2020_37","Sounds/cat_sound.wav","null","1","","","","","","",""
"null","","html-keyboard-response","233","2046991","0.0-13.0-1.45","l","COGS219_2020_37","<p style=""font-size: 48px;"">+</p>","null","1","","","","","","",""
"560.6350000000093","","image-keyboard-response","234","2047553","0.0-13.0-2.45","l","COGS219_2020_37","Images/cat_orig.png","76","1","1583110102015","match","cat","cat","sound","test","true"
"null","","audio-keyboard-response","235","2049556","0.0-13.0-3.45","l","COGS219_2020_37","Sounds/correct.wav","null","1","","","","","","",""
"null","","audio-keyboard-response","236","2050186","0.0-13.0-0.46","l","COGS219_2020_37","Sounds/dog_label.wav","null","1","","","","","","",""
"null","","html-keyboard-response","237","2051191","0.0-13.0-1.46","l","COGS219_2020_37","<p style=""font-size: 48px;"">+</p>","null","1","","","","","","",""
"456.6799999999348","","image-keyboard-response","238","2051649","0.0-13.0-2.46","l","COGS219_2020_37","Images/dog_3.png","76","1","1583110106214","match","dog","dog","label","test","true"
"null","","audio-keyboard-response","239","2053654","0.0-13.0-3.46","l","COGS219_2020_37","Sounds/correct.wav","null","1","","","","","","",""
"null","","audio-keyboard-response","240","2054367","0.0-13.0-0.47","l","COGS219_2020_37","Sounds/whistle_label.wav","null","1","","","","","","",""
"null","","html-keyboard-response","241","2055358","0.0-13.0-1.47","l","COGS219_2020_37","<p style=""font-size: 48px;"">+</p>","null","1","","","","","","",""
"369.7299999999814","","image-keyboard-response","242","2055729","0.0-13.0-2.47","l","COGS219_2020_37","Images/rooster_orig.png","65","1","1583110110382","non-match","rooster","whistle","label","test","true"
"null","","audio-keyboard-response","243","2057732","0.0-13.0-3.47","l","COGS219_2020_37","Sounds/correct.wav","null","1","","","","","","",""
"null","","audio-keyboard-response","244","2059007","0.0-13.0-0.48","l","COGS219_2020_37","Sounds/train_label.wav","null","1","","","","","","",""
"null","","html-keyboard-response","245","2060008","0.0-13.0-1.48","l","COGS219_2020_37","<p style=""font-size: 48px;"">+</p>","null","1","","","","","","",""
"567.7900000002701","","image-keyboard-response","246","2060577","0.0-13.0-2.48","l","COGS219_2020_37","Images/train_1.png","76","1","1583110115032","match","train","train","label","test","true"
"null","","audio-keyboard-response","247","2062580","0.0-13.0-3.48","l","COGS219_2020_37","Sounds/correct.wav","null","1","","","","","","",""
"null","","audio-keyboard-response","248","2063147","0.0-13.0-0.49","l","COGS219_2020_37","Sounds/gun_label.wav","null","1","","","","","","",""
"null","","html-keyboard-response","249","2064142","0.0-13.0-1.49","l","COGS219_2020_37","<p style=""font-size: 48px;"">+</p>","null","1","","","","","","",""
"610.2249999998603","","image-keyboard-response","250","2064753","0.0-13.0-2.49","l","COGS219_2020_37","Images/rooster_3.png","65","1","1583110119165","non-match","rooster","gun","label","test","true"
"null","","audio-keyboard-response","251","2066756","0.0-13.0-3.49","l","COGS219_2020_37","Sounds/correct.wav","null","1","","","","","","",""
"null","","audio-keyboard-response","252","2067887","0.0-13.0-0.50","l","COGS219_2020_37","Sounds/motorcycle_label.wav","null","1","","","","","","",""
"null","","html-keyboard-response","253","2068892","0.0-13.0-1.50","l","COGS219_2020_37","<p style=""font-size: 48px;"">+</p>","null","1","","","","","","",""
"548.4050000000279","","image-keyboard-response","254","2069441","0.0-13.0-2.50","l","COGS219_2020_37","Images/whistle_3.png","65","1","1583110123915","non-match","whistle","motorcycle","label","test","true"
"null","","audio-keyboard-response","255","2071445","0.0-13.0-3.50","l","COGS219_2020_37","Sounds/correct.wav","null","1","","","","","","",""
"null","","audio-keyboard-response","256","2072147","0.0-13.0-0.51","l","COGS219_2020_37","Sounds/rooster_label.wav","null","1","","","","","","",""
"null","","html-keyboard-response","257","2073142","0.0-13.0-1.51","l","COGS219_2020_37","<p style=""font-size: 48px;"">+</p>","null","1","","","","","","",""
"602.1799999999348","","image-keyboard-response","258","2073745","0.0-13.0-2.51","l","COGS219_2020_37","Images/rooster_cartoon.png","76","1","1583110128165","match","rooster","rooster","label","test","true"
"null","","audio-keyboard-response","259","2075748","0.0-13.0-3.51","l","COGS219_2020_37","Sounds/correct.wav","null","1","","","","","","",""
"null","","audio-keyboard-response","260","2076427","0.0-13.0-0.52","l","COGS219_2020_37","Sounds/rooster_label.wav","null","1","","","","","","",""
"null","","html-keyboard-response","261","2077425","0.0-13.0-1.52","l","COGS219_2020_37","<p style=""font-size: 48px;"">+</p>","null","1","","","","","","",""
"398.4399999999441","","image-keyboard-response","262","2077825","0.0-13.0-2.52","l","COGS219_2020_37","Images/dog_cartoon.png","65","1","1583110132448","non-match","dog","rooster","label","test","true"
"null","","audio-keyboard-response","263","2079828","0.0-13.0-3.52","l","COGS219_2020_37","Sounds/correct.wav","null","1","","","","","","",""
"null","","audio-keyboard-response","264","2080547","0.0-13.0-0.53","l","COGS219_2020_37","Sounds/dog_sound.wav","null","1","","","","","","",""
"null","","html-keyboard-response","265","2081542","0.0-13.0-1.53","l","COGS219_2020_37","<p style=""font-size: 48px;"">+</p>","null","1","","","","","","",""
"505.99500000011176","","image-keyboard-response","266","2082049","0.0-13.0-2.53","l","COGS219_2020_37","Images/frog_cartoon.png","65","1","1583110136565","non-match","frog","dog","sound","test","true"
"null","","audio-keyboard-response","267","2084053","0.0-13.0-3.53","l","COGS219_2020_37","Sounds/correct.wav","null","1","","","","","","",""
"null","","audio-keyboard-response","268","2084887","0.0-13.0-0.54","l","COGS219_2020_37","Sounds/cat_label.wav","null","1","","","","","","",""
"null","","html-keyboard-response","269","2085892","0.0-13.0-1.54","l","COGS219_2020_37","<p style=""font-size: 48px;"">+</p>","null","1","","","","","","",""
"412.0049999996554","","image-keyboard-response","270","2086305","0.0-13.0-2.54","l","COGS219_2020_37","Images/cat_1.png","76","1","1583110140915","match","cat","cat","label","test","true"
"null","","audio-keyboard-response","271","2088308","0.0-13.0-3.54","l","COGS219_2020_37","Sounds/correct.wav","null","1","","","","","","",""
"null","","audio-keyboard-response","272","2088887","0.0-13.0-0.55","l","COGS219_2020_37","Sounds/gun_sound.wav","null","1","","","","","","",""
"null","","html-keyboard-response","273","2089875","0.0-13.0-1.55","l","COGS219_2020_37","<p style=""font-size: 48px;"">+</p>","null","1","","","","","","",""
"460.6450000000186","","image-keyboard-response","274","2090337","0.0-13.0-2.55","l","COGS219_2020_37","Images/car_cartoon.png","65","1","1583110144899","non-match","car","gun","sound","test","true"
"null","","audio-keyboard-response","275","2092340","0.0-13.0-3.55","l","COGS219_2020_37","Sounds/correct.wav","null","1","","","","","","",""
"null","","audio-keyboard-response","276","2093046","0.0-13.0-0.56","l","COGS219_2020_37","Sounds/whistle_label.wav","null","1","","","","","","",""
"null","","html-keyboard-response","277","2094042","0.0-13.0-1.56","l","COGS219_2020_37","<p style=""font-size: 48px;"">+</p>","null","1","","","","","","",""
"534.1950000000652","","image-keyboard-response","278","2094577","0.0-13.0-2.56","l","COGS219_2020_37","Images/frog_1.png","65","1","1583110149065","non-match","frog","whistle","label","test","true"
"null","","audio-keyboard-response","279","2096580","0.0-13.0-3.56","l","COGS219_2020_37","Sounds/correct.wav","null","1","","","","","","",""
"null","","audio-keyboard-response","280","2097707","0.0-13.0-0.57","l","COGS219_2020_37","Sounds/motorcycle_sound.wav","null","1","","","","","","",""
"null","","html-keyboard-response","281","2098709","0.0-13.0-1.57","l","COGS219_2020_37","<p style=""font-size: 48px;"">+</p>","null","1","","","","","","",""
"539.0749999997206","","image-keyboard-response","282","2099249","0.0-13.0-2.57","l","COGS219_2020_37","Images/dog_orig.png","65","1","1583110153732","non-match","dog","motorcycle","sound","test","true"
"null","","audio-keyboard-response","283","2101252","0.0-13.0-3.57","l","COGS219_2020_37","Sounds/correct.wav","null","1","","","","","","",""
"null","","audio-keyboard-response","284","2101927","0.0-13.0-0.58","l","COGS219_2020_37","Sounds/whistle_label.wav","null","1","","","","","","",""
"null","","html-keyboard-response","285","2102926","0.0-13.0-1.58","l","COGS219_2020_37","<p style=""font-size: 48px;"">+</p>","null","1","","","","","","",""
"562.1200000001118","","image-keyboard-response","286","2103489","0.0-13.0-2.58","l","COGS219_2020_37","Images/whistle_orig.png","76","1","1583110157949","match","whistle","whistle","label","test","true"
"null","","audio-keyboard-response","287","2105493","0.0-13.0-3.58","l","COGS219_2020_37","Sounds/correct.wav","null","1","","","","","","",""
"null","","audio-keyboard-response","288","2106507","0.0-13.0-0.59","l","COGS219_2020_37","Sounds/cow_label.wav","null","1","","","","","","",""
"null","","html-keyboard-response","289","2107509","0.0-13.0-1.59","l","COGS219_2020_37","<p style=""font-size: 48px;"">+</p>","null","1","","","","","","",""
"475.1049999999814","","image-keyboard-response","290","2107985","0.0-13.0-2.59","l","COGS219_2020_37","Images/cow_orig.png","76","1","1583110162532","match","cow","cow","label","test","true"
"null","","audio-keyboard-response","291","2109988","0.0-13.0-3.59","l","COGS219_2020_37","Sounds/correct.wav","null","1","","","","","","",""
"null","","audio-keyboard-response","292","2110687","0.0-13.0-0.60","l","COGS219_2020_37","Sounds/rooster_sound.wav","null","1","","","","","","",""
"null","","html-keyboard-response","293","2111692","0.0-13.0-1.60","l","COGS219_2020_37","<p style=""font-size: 48px;"">+</p>","null","1","","","","","","",""
"723.6800000001676","","image-keyboard-response","294","2112417","0.0-13.0-2.60","l","COGS219_2020_37","Images/rooster_3.png","76","1","1583110166716","match","rooster","rooster","sound","test","true"
"null","","audio-keyboard-response","295","2114420","0.0-13.0-3.60","l","COGS219_2020_37","Sounds/correct.wav","null","1","","","","","","",""
"null","","audio-keyboard-response","296","2115507","0.0-13.0-0.61","l","COGS219_2020_37","Sounds/car_sound.wav","null","1","","","","","","",""
"null","","html-keyboard-response","297","2116509","0.0-13.0-1.61","l","COGS219_2020_37","<p style=""font-size: 48px;"">+</p>","null","1","","","","","","",""
"450.8500000005588","","image-keyboard-response","298","2116961","0.0-13.0-2.61","l","COGS219_2020_37","Images/car_orig.png","76","1","1583110171533","match","car","car","sound","test","true"
"null","","audio-keyboard-response","299","2118964","0.0-13.0-3.61","l","COGS219_2020_37","Sounds/correct.wav","null","1","","","","","","",""
"null","","audio-keyboard-response","300","2120047","0.0-13.0-0.62","l","COGS219_2020_37","Sounds/car_label.wav","null","1","","","","","","",""
"null","","html-keyboard-response","301","2121043","0.0-13.0-1.62","l","COGS219_2020_37","<p style=""font-size: 48px;"">+</p>","null","1","","","","","","",""
"525.7900000000373","","image-keyboard-response","302","2121570","0.0-13.0-2.62","l","COGS219_2020_37","Images/gun_cartoon.png","65","1","1583110176066","non-match","gun","car","label","test","true"
"null","","audio-keyboard-response","303","2123573","0.0-13.0-3.62","l","COGS219_2020_37","Sounds/correct.wav","null","1","","","","","","",""
"null","","audio-keyboard-response","304","2124147","0.0-13.0-0.63","l","COGS219_2020_37","Sounds/gun_sound.wav","null","1","","","","","","",""
"null","","html-keyboard-response","305","2125143","0.0-13.0-1.63","l","COGS219_2020_37","<p style=""font-size: 48px;"">+</p>","null","1","","","","","","",""
"553.2599999997765","","image-keyboard-response","306","2125697","0.0-13.0-2.63","l","COGS219_2020_37","Images/gun_2.png","65","1","1583110180166","match","gun","gun","sound","test","false"
"null","","audio-keyboard-response","307","2127700","0.0-13.0-3.63","l","COGS219_2020_37","Sounds/incorrect.wav","null","1","","","","","","",""
"null","","audio-keyboard-response","308","2128747","0.0-13.0-0.64","l","COGS219_2020_37","Sounds/car_sound.wav","null","1","","","","","","",""
"null","","html-keyboard-response","309","2129743","0.0-13.0-1.64","l","COGS219_2020_37","<p style=""font-size: 48px;"">+</p>","null","1","","","","","","",""
"449.4799999999814","","image-keyboard-response","310","2130194","0.0-13.0-2.64","l","COGS219_2020_37","Images/car_2.png","76","1","1583110184766","match","car","car","sound","test","true"
"null","","audio-keyboard-response","311","2132196","0.0-13.0-3.64","l","COGS219_2020_37","Sounds/correct.wav","null","1","","","","","","",""
"null","","audio-keyboard-response","312","2133227","0.0-13.0-0.65","l","COGS219_2020_37","Sounds/cow_label.wav","null","1","","","","","","",""
"null","","html-keyboard-response","313","2134227","0.0-13.0-1.65","l","COGS219_2020_37","<p style=""font-size: 48px;"">+</p>","null","1","","","","","","",""
"845.5099999993108","","image-keyboard-response","314","2135074","0.0-13.0-2.65","l","COGS219_2020_37","Images/cow_3.png","76","1","1583110189250","match","cow","cow","label","test","true"
"null","","audio-keyboard-response","315","2137076","0.0-13.0-3.65","l","COGS219_2020_37","Sounds/correct.wav","null","1","","","","","","",""
"null","","audio-keyboard-response","316","2138347","0.0-13.0-0.66","l","COGS219_2020_37","Sounds/train_label.wav","null","1","","","","","","",""
"null","","html-keyboard-response","317","2139343","0.0-13.0-1.66","l","COGS219_2020_37","<p style=""font-size: 48px;"">+</p>","null","1","","","","","","",""
"512.6650000000373","","image-keyboard-response","318","2139858","0.0-13.0-2.66","l","COGS219_2020_37","Images/cat_2.png","65","1","1583110194366","non-match","cat","train","label","test","true"
"null","","audio-keyboard-response","319","2141862","0.0-13.0-3.66","l","COGS219_2020_37","Sounds/correct.wav","null","1","","","","","","",""
"null","","audio-keyboard-response","320","2142767","0.0-13.0-0.67","l","COGS219_2020_37","Sounds/frog_label.wav","null","1","","","","","","",""
"null","","html-keyboard-response","321","2143760","0.0-13.0-1.67","l","COGS219_2020_37","<p style=""font-size: 48px;"">+</p>","null","1","","","","","","",""
"528.7200000002049","","image-keyboard-response","322","2144290","0.0-13.0-2.67","l","COGS219_2020_37","Images/frog_1.png","76","1","1583110198783","match","frog","frog","label","test","true"
"null","","audio-keyboard-response","323","2146292","0.0-13.0-3.67","l","COGS219_2020_37","Sounds/correct.wav","null","1","","","","","","",""
"null","","audio-keyboard-response","324","2147167","0.0-13.0-0.68","l","COGS219_2020_37","Sounds/frog_label.wav","null","1","","","","","","",""
"null","","html-keyboard-response","325","2148160","0.0-13.0-1.68","l","COGS219_2020_37","<p style=""font-size: 48px;"">+</p>","null","1","","","","","","",""
"545.0600000000559","","image-keyboard-response","326","2148706","0.0-13.0-2.68","l","COGS219_2020_37","Images/gun_3.png","65","1","1583110203183","non-match","gun","frog","label","test","true"
"null","","audio-keyboard-response","327","2150709","0.0-13.0-3.68","l","COGS219_2020_37","Sounds/correct.wav","null","1","","","","","","",""
"null","","audio-keyboard-response","328","2151967","0.0-13.0-0.69","l","COGS219_2020_37","Sounds/train_label.wav","null","1","","","","","","",""
"null","","html-keyboard-response","329","2152960","0.0-13.0-1.69","l","COGS219_2020_37","<p style=""font-size: 48px;"">+</p>","null","1","","","","","","",""
"656.6049999999814","","image-keyboard-response","330","2153618","0.0-13.0-2.69","l","COGS219_2020_37","Images/motorcycle_1.png","76","1","1583110207983","non-match","motorcycle","train","label","test","false"
"null","","audio-keyboard-response","331","2155620","0.0-13.0-3.69","l","COGS219_2020_37","Sounds/incorrect.wav","null","1","","","","","","",""
"null","","audio-keyboard-response","332","2156207","0.0-13.0-0.70","l","COGS219_2020_37","Sounds/gun_label.wav","null","1","","","","","","",""
"null","","html-keyboard-response","333","2157210","0.0-13.0-1.70","l","COGS219_2020_37","<p style=""font-size: 48px;"">+</p>","null","1","","","","","","",""
"662.339999999851","","image-keyboard-response","334","2157874","0.0-13.0-2.70","l","COGS219_2020_37","Images/gun_cartoon.png","76","1","1583110212233","match","gun","gun","label","test","true"
"null","","audio-keyboard-response","335","2159877","0.0-13.0-3.70","l","COGS219_2020_37","Sounds/correct.wav","null","1","","","","","","",""
"null","","audio-keyboard-response","336","2161027","0.0-13.0-0.71","l","COGS219_2020_37","Sounds/motorcycle_label.wav","null","1","","","","","","",""
"null","","html-keyboard-response","337","2162027","0.0-13.0-1.71","l","COGS219_2020_37","<p style=""font-size: 48px;"">+</p>","null","1","","","","","","",""
"438.09999999962747","","image-keyboard-response","338","2162466","0.0-13.0-2.71","l","COGS219_2020_37","Images/motorcycle_orig.png","76","1","1583110217050","match","motorcycle","motorcycle","label","test","true"
"null","","audio-keyboard-response","339","2164469","0.0-13.0-3.71","l","COGS219_2020_37","Sounds/correct.wav","null","1","","","","","","",""
"null","","audio-keyboard-response","340","2165487","0.0-13.0-0.72","l","COGS219_2020_37","Sounds/cow_label.wav","null","1","","","","","","",""
"null","","html-keyboard-response","341","2166493","0.0-13.0-1.72","l","COGS219_2020_37","<p style=""font-size: 48px;"">+</p>","null","1","","","","","","",""
"595.089999999851","","image-keyboard-response","342","2167090","0.0-13.0-2.72","l","COGS219_2020_37","Images/cow_cartoon.png","76","1","1583110221517","match","cow","cow","label","test","true"
"null","","audio-keyboard-response","343","2169092","0.0-13.0-3.72","l","COGS219_2020_37","Sounds/correct.wav","null","1","","","","","","",""
"null","","audio-keyboard-response","344","2170167","0.0-13.0-0.73","l","COGS219_2020_37","Sounds/car_sound.wav","null","1","","","","","","",""
"null","","html-keyboard-response","345","2171160","0.0-13.0-1.73","l","COGS219_2020_37","<p style=""font-size: 48px;"">+</p>","null","1","","","","","","",""
"760.410000000149","","image-keyboard-response","346","2171922","0.0-13.0-2.73","l","COGS219_2020_37","Images/cat_3.png","65","1","1583110226183","non-match","cat","car","sound","test","true"
"null","","audio-keyboard-response","347","2173925","0.0-13.0-3.73","l","COGS219_2020_37","Sounds/correct.wav","null","1","","","","","","",""
"null","","audio-keyboard-response","348","2174628","0.0-13.0-0.74","l","COGS219_2020_37","Sounds/rooster_label.wav","null","1","","","","","","",""
"null","","html-keyboard-response","349","2175627","0.0-13.0-1.74","l","COGS219_2020_37","<p style=""font-size: 48px;"">+</p>","null","1","","","","","","",""
"549.8100000000559","","image-keyboard-response","350","2176178","0.0-13.0-2.74","l","COGS219_2020_37","Images/frog_3.png","65","1","1583110230651","non-match","frog","rooster","label","test","true"
"null","","audio-keyboard-response","351","2178181","0.0-13.0-3.74","l","COGS219_2020_37","Sounds/correct.wav","null","1","","","","","","",""
"null","","audio-keyboard-response","352","2179087","0.0-13.0-0.75","l","COGS219_2020_37","Sounds/frog_sound.wav","null","1","","","","","","",""
"null","","html-keyboard-response","353","2180094","0.0-13.0-1.75","l","COGS219_2020_37","<p style=""font-size: 48px;"">+</p>","null","1","","","","","","",""
"514.7750000003725","","image-keyboard-response","354","2180610","0.0-13.0-2.75","l","COGS219_2020_37","Images/whistle_orig.png","65","1","1583110235117","non-match","whistle","frog","sound","test","true"
"null","","audio-keyboard-response","355","2182613","0.0-13.0-3.75","l","COGS219_2020_37","Sounds/correct.wav","null","1","","","","","","",""
"null","","audio-keyboard-response","356","2183447","0.0-13.0-0.76","l","COGS219_2020_37","Sounds/cat_sound.wav","null","1","","","","","","",""
"null","","html-keyboard-response","357","2184444","0.0-13.0-1.76","l","COGS219_2020_37","<p style=""font-size: 48px;"">+</p>","null","1","","","","","","",""
"484.9349999995902","","image-keyboard-response","358","2184930","0.0-13.0-2.76","l","COGS219_2020_37","Images/cat_cartoon.png","76","1","1583110239467","match","cat","cat","sound","test","true"
"null","","audio-keyboard-response","359","2186933","0.0-13.0-3.76","l","COGS219_2020_37","Sounds/correct.wav","null","1","","","","","","",""
"null","","audio-keyboard-response","360","2187648","0.0-13.0-0.77","l","COGS219_2020_37","Sounds/dog_sound.wav","null","1","","","","","","",""
"null","","html-keyboard-response","361","2188644","0.0-13.0-1.77","l","COGS219_2020_37","<p style=""font-size: 48px;"">+</p>","null","1","","","","","","",""
"509.0200000004843","","image-keyboard-response","362","2189154","0.0-13.0-2.77","l","COGS219_2020_37","Images/dog_1.png","76","1","1583110243667","match","dog","dog","sound","test","true"
"null","","audio-keyboard-response","363","2191157","0.0-13.0-3.77","l","COGS219_2020_37","Sounds/correct.wav","null","1","","","","","","",""
"null","","audio-keyboard-response","364","2191748","0.0-13.0-0.78","l","COGS219_2020_37","Sounds/gun_label.wav","null","1","","","","","","",""
"null","","html-keyboard-response","365","2192744","0.0-13.0-1.78","l","COGS219_2020_37","<p style=""font-size: 48px;"">+</p>","null","1","","","","","","",""
"552.7399999992922","","image-keyboard-response","366","2193298","0.0-13.0-2.78","l","COGS219_2020_37","Images/dog_3.png","65","1","1583110247767","non-match","dog","gun","label","test","true"
"null","","audio-keyboard-response","367","2195301","0.0-13.0-3.78","l","COGS219_2020_37","Sounds/correct.wav","null","1","","","","","","",""
"null","","audio-keyboard-response","368","2196588","0.0-13.0-0.79","l","COGS219_2020_37","Sounds/train_label.wav","null","1","","","","","","",""
"null","","html-keyboard-response","369","2197595","0.0-13.0-1.79","l","COGS219_2020_37","<p style=""font-size: 48px;"">+</p>","null","1","","","","","","",""
"453.51999999955297","","image-keyboard-response","370","2198050","0.0-13.0-2.79","l","COGS219_2020_37","Images/cow_3.png","65","1","1583110252618","non-match","cow","train","label","test","true"
"null","","audio-keyboard-response","371","2200053","0.0-13.0-3.79","l","COGS219_2020_37","Sounds/correct.wav","null","1","","","","","","",""
"null","","audio-keyboard-response","372","2201347","0.0-13.0-0.80","l","COGS219_2020_37","Sounds/train_sound.wav","null","1","","","","","","",""
"null","","html-keyboard-response","373","2202344","0.0-13.0-1.80","l","COGS219_2020_37","<p style=""font-size: 48px;"">+</p>","null","1","","","","","","",""
"520.9650000003166","","image-keyboard-response","374","2202866","0.0-13.0-2.80","l","COGS219_2020_37","Images/train_3.png","76","1","1583110257367","match","train","train","sound","test","true"
"null","","audio-keyboard-response","375","2204869","0.0-13.0-3.80","l","COGS219_2020_37","Sounds/correct.wav","null","1","","","","","","",""
"null","","audio-keyboard-response","376","2205448","0.0-13.0-0.81","l","COGS219_2020_37","Sounds/gun_sound.wav","null","1","","","","","","",""
"null","","html-keyboard-response","377","2206444","0.0-13.0-1.81","l","COGS219_2020_37","<p style=""font-size: 48px;"">+</p>","null","1","","","","","","",""
"628.445000000298","","image-keyboard-response","378","2207074","0.0-13.0-2.81","l","COGS219_2020_37","Images/frog_2.png","65","1","1583110261468","non-match","frog","gun","sound","test","true"
"null","","audio-keyboard-response","379","2209076","0.0-13.0-3.81","l","COGS219_2020_37","Sounds/correct.wav","null","1","","","","","","",""
"null","","audio-keyboard-response","380","2209907","0.0-13.0-0.82","l","COGS219_2020_37","Sounds/cat_sound.wav","null","1","","","","","","",""
"null","","html-keyboard-response","381","2210911","0.0-13.0-1.82","l","COGS219_2020_37","<p style=""font-size: 48px;"">+</p>","null","1","","","","","","",""
"481.93500000052154","","image-keyboard-response","382","2211394","0.0-13.0-2.82","l","COGS219_2020_37","Images/cow_cartoon.png","65","1","1583110265934","non-match","cow","cat","sound","test","true"
"null","","audio-keyboard-response","383","2213398","0.0-13.0-3.82","l","COGS219_2020_37","Sounds/correct.wav","null","1","","","","","","",""
"null","","audio-keyboard-response","384","2214408","0.0-13.0-0.83","l","COGS219_2020_37","Sounds/cow_label.wav","null","1","","","","","","",""
"null","","html-keyboard-response","385","2215411","0.0-13.0-1.83","l","COGS219_2020_37","<p style=""font-size: 48px;"">+</p>","null","1","","","","","","",""
"558.3000000002794","","image-keyboard-response","386","2215970","0.0-13.0-2.83","l","COGS219_2020_37","Images/cat_orig.png","65","1","1583110270435","non-match","cat","cow","label","test","true"
"null","","audio-keyboard-response","387","2217975","0.0-13.0-3.83","l","COGS219_2020_37","Sounds/correct.wav","null","1","","","","","","",""
"null","","audio-keyboard-response","388","2218668","0.0-13.0-0.84","l","COGS219_2020_37","Sounds/whistle_sound.wav","null","1","","","","","","",""
"null","","html-keyboard-response","389","2219661","0.0-13.0-1.84","l","COGS219_2020_37","<p style=""font-size: 48px;"">+</p>","null","1","","","","","","",""
"515.9350000000559","","image-keyboard-response","390","2220178","0.0-13.0-2.84","l","COGS219_2020_37","Images/whistle_cartoon.png","76","1","1583110274684","match","whistle","whistle","sound","test","true"
"null","","audio-keyboard-response","391","2222181","0.0-13.0-3.84","l","COGS219_2020_37","Sounds/correct.wav","null","1","","","","","","",""
"null","","audio-keyboard-response","392","2222768","0.0-13.0-0.85","l","COGS219_2020_37","Sounds/gun_label.wav","null","1","","","","","","",""
"null","","html-keyboard-response","393","2223761","0.0-13.0-1.85","l","COGS219_2020_37","<p style=""font-size: 48px;"">+</p>","null","1","","","","","","",""
"525.7550000003539","","image-keyboard-response","394","2224290","0.0-13.0-2.85","l","COGS219_2020_37","Images/gun_orig.png","76","1","1583110278785","match","gun","gun","label","test","true"
"null","","audio-keyboard-response","395","2226293","0.0-13.0-3.85","l","COGS219_2020_37","Sounds/correct.wav","null","1","","","","","","",""
"null","","audio-keyboard-response","396","2226987","0.0-13.0-0.86","l","COGS219_2020_37","Sounds/whistle_label.wav","null","1","","","","","","",""
"null","","html-keyboard-response","397","2227978","0.0-13.0-1.86","l","COGS219_2020_37","<p style=""font-size: 48px;"">+</p>","null","1","","","","","","",""
"455.2599999993108","","image-keyboard-response","398","2228434","0.0-13.0-2.86","l","COGS219_2020_37","Images/whistle_2.png","76","1","1583110283001","match","whistle","whistle","label","test","true"
"null","","audio-keyboard-response","399","2230437","0.0-13.0-3.86","l","COGS219_2020_37","Sounds/correct.wav","null","1","","","","","","",""
"null","","audio-keyboard-response","400","2231328","0.0-13.0-0.87","l","COGS219_2020_37","Sounds/frog_label.wav","null","1","","","","","","",""
"null","","html-keyboard-response","401","2232328","0.0-13.0-1.87","l","COGS219_2020_37","<p style=""font-size: 48px;"">+</p>","null","1","","","","","","",""
"376.9399999999441","","image-keyboard-response","402","2232706","0.0-13.0-2.87","l","COGS219_2020_37","Images/frog_cartoon.png","76","1","1583110287351","match","frog","frog","label","test","true"
"null","","audio-keyboard-response","403","2234709","0.0-13.0-3.87","l","COGS219_2020_37","Sounds/correct.wav","null","1","","","","","","",""
"null","","audio-keyboard-response","404","2235388","0.0-13.0-0.88","l","COGS219_2020_37","Sounds/whistle_sound.wav","null","1","","","","","","",""
"null","","html-keyboard-response","405","2236378","0.0-13.0-1.88","l","COGS219_2020_37","<p style=""font-size: 48px;"">+</p>","null","1","","","","","","",""
"470.8099999995902","","image-keyboard-response","406","2236850","0.0-13.0-2.88","l","COGS219_2020_37","Images/motorcycle_cartoon.png","65","1","1583110291402","non-match","motorcycle","whistle","sound","test","true"
"null","","audio-keyboard-response","407","2238853","0.0-13.0-3.88","l","COGS219_2020_37","Sounds/correct.wav","null","1","","","","","","",""
"null","","audio-keyboard-response","408","2239548","0.0-13.0-0.89","l","COGS219_2020_37","Sounds/rooster_sound.wav","null","1","","","","","","",""
"null","","html-keyboard-response","409","2240545","0.0-13.0-1.89","l","COGS219_2020_37","<p style=""font-size: 48px;"">+</p>","null","1","","","","","","",""
"384.339999999851","","image-keyboard-response","410","2240930","0.0-13.0-2.89","l","COGS219_2020_37","Images/rooster_1.png","76","1","1583110295568","match","rooster","rooster","sound","test","true"
"null","","audio-keyboard-response","411","2242933","0.0-13.0-3.89","l","COGS219_2020_37","Sounds/correct.wav","null","1","","","","","","",""
"null","","audio-keyboard-response","412","2243508","0.0-13.0-0.90","l","COGS219_2020_37","Sounds/gun_sound.wav","null","1","","","","","","",""
"null","","html-keyboard-response","413","2244512","0.0-13.0-1.90","l","COGS219_2020_37","<p style=""font-size: 48px;"">+</p>","null","1","","","","","","",""
"385.3099999995902","","image-keyboard-response","414","2244898","0.0-13.0-2.90","l","COGS219_2020_37","Images/gun_1.png","76","1","1583110299535","match","gun","gun","sound","test","true"
"null","","audio-keyboard-response","415","2246901","0.0-13.0-3.90","l","COGS219_2020_37","Sounds/correct.wav","null","1","","","","","","",""
"null","","audio-keyboard-response","416","2247928","0.0-13.0-0.91","l","COGS219_2020_37","Sounds/cow_label.wav","null","1","","","","","","",""
"null","","html-keyboard-response","417","2248929","0.0-13.0-1.91","l","COGS219_2020_37","<p style=""font-size: 48px;"">+</p>","null","1","","","","","","",""
"720.8500000000931","","image-keyboard-response","418","2249650","0.0-13.0-2.91","l","COGS219_2020_37","Images/dog_1.png","65","1","1583110303952","non-match","dog","cow","label","test","true"
"null","","audio-keyboard-response","419","2251653","0.0-13.0-3.91","l","COGS219_2020_37","Sounds/correct.wav","null","1","","","","","","",""
"null","","audio-keyboard-response","420","2252488","0.0-13.0-0.92","l","COGS219_2020_37","Sounds/cat_label.wav","null","1","","","","","","",""
"null","","html-keyboard-response","421","2253479","0.0-13.0-1.92","l","COGS219_2020_37","<p style=""font-size: 48px;"">+</p>","null","1","","","","","","",""
"715.1650000000373","","image-keyboard-response","422","2254195","0.0-13.0-2.92","l","COGS219_2020_37","Images/rooster_cartoon.png","65","1","1583110308502","non-match","rooster","cat","label","test","true"
"null","","audio-keyboard-response","423","2256197","0.0-13.0-3.92","l","COGS219_2020_37","Sounds/correct.wav","null","1","","","","","","",""
"null","","audio-keyboard-response","424","2257488","0.0-13.0-0.93","l","COGS219_2020_37","Sounds/train_sound.wav","null","1","","","","","","",""
"null","","html-keyboard-response","425","2258495","0.0-13.0-1.93","l","COGS219_2020_37","<p style=""font-size: 48px;"">+</p>","null","1","","","","","","",""
"449.9399999999441","","image-keyboard-response","426","2258946","0.0-13.0-2.93","l","COGS219_2020_37","Images/train_orig.png","76","1","1583110313519","match","train","train","sound","test","true"
"null","","audio-keyboard-response","427","2260949","0.0-13.0-3.93","l","COGS219_2020_37","Sounds/correct.wav","null","1","","","","","","",""
"null","","audio-keyboard-response","428","2262028","0.0-13.0-0.94","l","COGS219_2020_37","Sounds/car_sound.wav","null","1","","","","","","",""
"null","","html-keyboard-response","429","2263045","0.0-13.0-1.94","l","COGS219_2020_37","<p style=""font-size: 48px;"">+</p>","null","1","","","","","","",""
"683.9550000000745","","image-keyboard-response","430","2263730","0.0-13.0-2.94","l","COGS219_2020_37","Images/rooster_1.png","65","1","1583110318069","non-match","rooster","car","sound","test","true"
"null","","audio-keyboard-response","431","2265733","0.0-13.0-3.94","l","COGS219_2020_37","Sounds/correct.wav","null","1","","","","","","",""
"null","","audio-keyboard-response","432","2266648","0.0-13.0-0.95","l","COGS219_2020_37","Sounds/frog_sound.wav","null","1","","","","","","",""
"null","","html-keyboard-response","433","2267646","0.0-13.0-1.95","l","COGS219_2020_37","<p style=""font-size: 48px;"">+</p>","null","1","","","","","","",""
"450.8100000000559","","image-keyboard-response","434","2268099","0.0-13.0-2.95","l","COGS219_2020_37","Images/frog_2.png","76","1","1583110322669","match","frog","frog","sound","test","true"
"null","","audio-keyboard-response","435","2270102","0.0-13.0-3.95","l","COGS219_2020_37","Sounds/correct.wav","null","1","","","","","","",""
"null","","audio-keyboard-response","436","2271248","0.0-13.0-0.96","l","COGS219_2020_37","Sounds/motorcycle_label.wav","null","1","","","","","","",""
"null","","html-keyboard-response","437","2272246","0.0-13.0-1.96","l","COGS219_2020_37","<p style=""font-size: 48px;"">+</p>","null","1","","","","","","",""
"537.285000000149","","image-keyboard-response","438","2272787","0.0-13.0-2.96","l","COGS219_2020_37","Images/car_orig.png","65","1","1583110327269","non-match","car","motorcycle","label","test","true"
"null","","audio-keyboard-response","439","2274789","0.0-13.0-3.96","l","COGS219_2020_37","Sounds/correct.wav","null","1","","","","","","",""
"null","","audio-keyboard-response","440","2275848","0.0-13.0-0.97","l","COGS219_2020_37","Sounds/car_sound.wav","null","1","","","","","","",""
"null","","html-keyboard-response","441","2276846","0.0-13.0-1.97","l","COGS219_2020_37","<p style=""font-size: 48px;"">+</p>","null","1","","","","","","",""
"467.6400000001304","","image-keyboard-response","442","2277314","0.0-13.0-2.97","l","COGS219_2020_37","Images/car_1.png","76","1","1583110331869","match","car","car","sound","test","true"
"null","","audio-keyboard-response","443","2279318","0.0-13.0-3.97","l","COGS219_2020_37","Sounds/correct.wav","null","1","","","","","","",""
"null","","audio-keyboard-response","444","2279908","0.0-13.0-0.98","l","COGS219_2020_37","Sounds/gun_label.wav","null","1","","","","","","",""
"null","","html-keyboard-response","445","2280912","0.0-13.0-1.98","l","COGS219_2020_37","<p style=""font-size: 48px;"">+</p>","null","1","","","","","","",""
"432.32500000018626","","image-keyboard-response","446","2281347","0.0-13.0-2.98","l","COGS219_2020_37","Images/train_3.png","65","1","1583110335936","non-match","train","gun","label","test","true"
"null","","audio-keyboard-response","447","2283350","0.0-13.0-3.98","l","COGS219_2020_37","Sounds/correct.wav","null","1","","","","","","",""
"null","","audio-keyboard-response","448","2284248","0.0-13.0-0.99","l","COGS219_2020_37","Sounds/frog_sound.wav","null","1","","","","","","",""
"null","","html-keyboard-response","449","2285246","0.0-13.0-1.99","l","COGS219_2020_37","<p style=""font-size: 48px;"">+</p>","null","1","","","","","","",""
"483.35000000009313","","image-keyboard-response","450","2285731","0.0-13.0-2.99","l","COGS219_2020_37","Images/cow_1.png","65","1","1583110340269","non-match","cow","frog","sound","test","true"
"null","","audio-keyboard-response","451","2287738","0.0-13.0-3.99","l","COGS219_2020_37","Sounds/correct.wav","null","1","","","","","","",""
"21335.830000000075","","html-keyboard-response","452","2309075","0.0-14.0","l","COGS219_2020_37","<p>Please take this opportunity to rest your eyes before proceeding.</p><p>When ready, press the enter key to continue to the next set of trials.</p>","13","","","","","","","",""
"null","","audio-keyboard-response","453","2311929","0.0-15.0-0.0","l","COGS219_2020_37","Sounds/cat_label.wav","null","2","","","","","","",""
"null","","html-keyboard-response","454","2312946","0.0-15.0-1.0","l","COGS219_2020_37","<p style=""font-size: 48px;"">+</p>","null","2","","","","","","",""
"415.3500000005588","","image-keyboard-response","455","2313363","0.0-15.0-2.0","l","COGS219_2020_37","Images/rooster_cartoon.png","65","2","1583110367969","non-match","rooster","cat","label","test","true"
"null","","audio-keyboard-response","456","2315365","0.0-15.0-3.0","l","COGS219_2020_37","Sounds/correct.wav","null","2","","","","","","",""
"null","","audio-keyboard-response","457","2316069","0.0-15.0-0.1","l","COGS219_2020_37","Sounds/whistle_label.wav","null","2","","","","","","",""
"null","","html-keyboard-response","458","2317063","0.0-15.0-1.1","l","COGS219_2020_37","<p style=""font-size: 48px;"">+</p>","null","2","","","","","","",""
"394.59499999973923","","image-keyboard-response","459","2317458","0.0-15.0-2.1","l","COGS219_2020_37","Images/whistle_orig.png","76","2","1583110372086","match","whistle","whistle","label","test","true"
"null","","audio-keyboard-response","460","2319462","0.0-15.0-3.1","l","COGS219_2020_37","Sounds/correct.wav","null","2","","","","","","",""
"null","","audio-keyboard-response","461","2320049","0.0-15.0-0.2","l","COGS219_2020_37","Sounds/gun_sound.wav","null","2","","","","","","",""
"null","","html-keyboard-response","462","2321046","0.0-15.0-1.2","l","COGS219_2020_37","<p style=""font-size: 48px;"">+</p>","null","2","","","","","","",""
"523.6150000002235","","image-keyboard-response","463","2321571","0.0-15.0-2.2","l","COGS219_2020_37","Images/gun_cartoon.png","76","2","1583110376069","match","gun","gun","sound","test","true"
"null","","audio-keyboard-response","464","2323574","0.0-15.0-3.2","l","COGS219_2020_37","Sounds/correct.wav","null","2","","","","","","",""
"null","","audio-keyboard-response","465","2324409","0.0-15.0-0.3","l","COGS219_2020_37","Sounds/cat_sound.wav","null","2","","","","","","",""
"null","","html-keyboard-response","466","2325413","0.0-15.0-1.3","l","COGS219_2020_37","<p style=""font-size: 48px;"">+</p>","null","2","","","","","","",""
"444.60000000009313","","image-keyboard-response","467","2325859","0.0-15.0-2.3","l","COGS219_2020_37","Images/cow_2.png","65","2","1583110380436","non-match","cow","cat","sound","test","true"
"null","","audio-keyboard-response","468","2327861","0.0-15.0-3.3","l","COGS219_2020_37","Sounds/correct.wav","null","2","","","","","","",""
"null","","audio-keyboard-response","469","2329009","0.0-15.0-0.4","l","COGS219_2020_37","Sounds/motorcycle_label.wav","null","2","","","","","","",""
"null","","html-keyboard-response","470","2330013","0.0-15.0-1.4","l","COGS219_2020_37","<p style=""font-size: 48px;"">+</p>","null","2","","","","","","",""
"436.5649999999441","","image-keyboard-response","471","2330451","0.0-15.0-2.4","l","COGS219_2020_37","Images/cow_orig.png","65","2","1583110385036","non-match","cow","motorcycle","label","test","true"
"null","","audio-keyboard-response","472","2332453","0.0-15.0-3.4","l","COGS219_2020_37","Sounds/correct.wav","null","2","","","","","","",""
"null","","audio-keyboard-response","473","2333469","0.0-15.0-0.5","l","COGS219_2020_37","Sounds/cow_sound.wav","null","2","","","","","","",""
"null","","html-keyboard-response","474","2334463","0.0-15.0-1.5","l","COGS219_2020_37","<p style=""font-size: 48px;"">+</p>","null","2","","","","","","",""
"467.14999999990687","","image-keyboard-response","475","2334931","0.0-15.0-2.5","l","COGS219_2020_37","Images/cow_2.png","76","2","1583110389486","match","cow","cow","sound","test","true"
"null","","audio-keyboard-response","476","2336934","0.0-15.0-3.5","l","COGS219_2020_37","Sounds/correct.wav","null","2","","","","","","",""
"null","","audio-keyboard-response","477","2337769","0.0-15.0-0.6","l","COGS219_2020_37","Sounds/cat_label.wav","null","2","","","","","","",""
"null","","html-keyboard-response","478","2338763","0.0-15.0-1.6","l","COGS219_2020_37","<p style=""font-size: 48px;"">+</p>","null","2","","","","","","",""
"486.33499999996275","","image-keyboard-response","479","2339250","0.0-15.0-2.6","l","COGS219_2020_37","Images/cat_1.png","76","2","1583110393786","match","cat","cat","label","test","true"
"null","","audio-keyboard-response","480","2341253","0.0-15.0-3.6","l","COGS219_2020_37","Sounds/correct.wav","null","2","","","","","","",""
"null","","audio-keyboard-response","481","2341949","0.0-15.0-0.7","l","COGS219_2020_37","Sounds/rooster_label.wav","null","2","","","","","","",""
"null","","html-keyboard-response","482","2342946","0.0-15.0-1.7","l","COGS219_2020_37","<p style=""font-size: 48px;"">+</p>","null","2","","","","","","",""
"431.160000000149","","image-keyboard-response","483","2343379","0.0-15.0-2.7","l","COGS219_2020_37","Images/rooster_orig.png","76","2","1583110397970","match","rooster","rooster","label","test","true"
"null","","audio-keyboard-response","484","2345382","0.0-15.0-3.7","l","COGS219_2020_37","Sounds/correct.wav","null","2","","","","","","",""
"null","","audio-keyboard-response","485","2346089","0.0-15.0-0.8","l","COGS219_2020_37","Sounds/rooster_sound.wav","null","2","","","","","","",""
"null","","html-keyboard-response","486","2347080","0.0-15.0-1.8","l","COGS219_2020_37","<p style=""font-size: 48px;"">+</p>","null","2","","","","","","",""
"393.78000000026077","","image-keyboard-response","487","2347475","0.0-15.0-2.8","l","COGS219_2020_37","Images/motorcycle_2.png","65","2","1583110402103","non-match","motorcycle","rooster","sound","test","true"
"null","","audio-keyboard-response","488","2349477","0.0-15.0-3.8","l","COGS219_2020_37","Sounds/correct.wav","null","2","","","","","","",""
"null","","audio-keyboard-response","489","2350389","0.0-15.0-0.9","l","COGS219_2020_37","Sounds/frog_sound.wav","null","2","","","","","","",""
"null","","html-keyboard-response","490","2351380","0.0-15.0-1.9","l","COGS219_2020_37","<p style=""font-size: 48px;"">+</p>","null","2","","","","","","",""
"381.59500000067055","","image-keyboard-response","491","2351763","0.0-15.0-2.9","l","COGS219_2020_37","Images/gun_cartoon.png","65","2","1583110406403","non-match","gun","frog","sound","test","true"
"null","","audio-keyboard-response","492","2353765","0.0-15.0-3.9","l","COGS219_2020_37","Sounds/correct.wav","null","2","","","","","","",""
"null","","audio-keyboard-response","493","2354849","0.0-15.0-0.10","l","COGS219_2020_37","Sounds/car_label.wav","null","2","","","","","","",""
"null","","html-keyboard-response","494","2355847","0.0-15.0-1.10","l","COGS219_2020_37","<p style=""font-size: 48px;"">+</p>","null","2","","","","","","",""
"474.8950000004843","","image-keyboard-response","495","2356323","0.0-15.0-2.10","l","COGS219_2020_37","Images/frog_cartoon.png","65","2","1583110410870","non-match","frog","car","label","test","true"
"null","","audio-keyboard-response","496","2358325","0.0-15.0-3.10","l","COGS219_2020_37","Sounds/correct.wav","null","2","","","","","","",""
"null","","audio-keyboard-response","497","2359349","0.0-15.0-0.11","l","COGS219_2020_37","Sounds/cow_sound.wav","null","2","","","","","","",""
"null","","html-keyboard-response","498","2360347","0.0-15.0-1.11","l","COGS219_2020_37","<p style=""font-size: 48px;"">+</p>","null","2","","","","","","",""
"470.9799999999814","","image-keyboard-response","499","2360819","0.0-15.0-2.11","l","COGS219_2020_37","Images/dog_1.png","65","2","1583110415370","non-match","dog","cow","sound","test","true"
"null","","audio-keyboard-response","500","2362822","0.0-15.0-3.11","l","COGS219_2020_37","Sounds/correct.wav","null","2","","","","","","",""
"null","","audio-keyboard-response","501","2363529","0.0-15.0-0.12","l","COGS219_2020_37","Sounds/rooster_label.wav","null","2","","","","","","",""
"null","","html-keyboard-response","502","2364547","0.0-15.0-1.12","l","COGS219_2020_37","<p style=""font-size: 48px;"">+</p>","null","2","","","","","","",""
"462.839999999851","","image-keyboard-response","503","2365011","0.0-15.0-2.12","l","COGS219_2020_37","Images/rooster_cartoon.png","76","2","1583110419570","match","rooster","rooster","label","test","true"
"null","","audio-keyboard-response","504","2367013","0.0-15.0-3.12","l","COGS219_2020_37","Sounds/correct.wav","null","2","","","","","","",""
"null","","audio-keyboard-response","505","2367709","0.0-15.0-0.13","l","COGS219_2020_37","Sounds/rooster_sound.wav","null","2","","","","","","",""
"null","","html-keyboard-response","506","2368714","0.0-15.0-1.13","l","COGS219_2020_37","<p style=""font-size: 48px;"">+</p>","null","2","","","","","","",""
"455.8349999994971","","image-keyboard-response","507","2369171","0.0-15.0-2.13","l","COGS219_2020_37","Images/rooster_2.png","76","2","1583110423737","match","rooster","rooster","sound","test","true"
"null","","audio-keyboard-response","508","2371173","0.0-15.0-3.13","l","COGS219_2020_37","Sounds/correct.wav","null","2","","","","","","",""
"null","","audio-keyboard-response","509","2372069","0.0-15.0-0.14","l","COGS219_2020_37","Sounds/frog_label.wav","null","2","","","","","","",""
"null","","html-keyboard-response","510","2373063","0.0-15.0-1.14","l","COGS219_2020_37","<p style=""font-size: 48px;"">+</p>","null","2","","","","","","",""
"442.7799999997951","","image-keyboard-response","511","2373507","0.0-15.0-2.14","l","COGS219_2020_37","Images/frog_1.png","76","2","1583110428087","match","frog","frog","label","test","true"
"null","","audio-keyboard-response","512","2375509","0.0-15.0-3.14","l","COGS219_2020_37","Sounds/correct.wav","null","2","","","","","","",""
"null","","audio-keyboard-response","513","2376629","0.0-15.0-0.15","l","COGS219_2020_37","Sounds/motorcycle_sound.wav","null","2","","","","","","",""
"null","","html-keyboard-response","514","2377647","0.0-15.0-1.15","l","COGS219_2020_37","<p style=""font-size: 48px;"">+</p>","null","2","","","","","","",""
"370.5600000000559","","image-keyboard-response","515","2378019","0.0-15.0-2.15","l","COGS219_2020_37","Images/car_1.png","65","2","1583110432670","non-match","car","motorcycle","sound","test","true"
"null","","audio-keyboard-response","516","2380021","0.0-15.0-3.15","l","COGS219_2020_37","Sounds/correct.wav","null","2","","","","","","",""
"null","","audio-keyboard-response","517","2381109","0.0-15.0-0.16","l","COGS219_2020_37","Sounds/car_sound.wav","null","2","","","","","","",""
"null","","html-keyboard-response","518","2382114","0.0-15.0-1.16","l","COGS219_2020_37","<p style=""font-size: 48px;"">+</p>","null","2","","","","","","",""
"624.1599999996834","","image-keyboard-response","519","2382739","0.0-15.0-2.16","l","COGS219_2020_37","Images/motorcycle_1.png","65","2","1583110437137","non-match","motorcycle","car","sound","test","true"
"null","","audio-keyboard-response","520","2384741","0.0-15.0-3.16","l","COGS219_2020_37","Sounds/correct.wav","null","2","","","","","","",""
"null","","audio-keyboard-response","521","2385449","0.0-15.0-0.17","l","COGS219_2020_37","Sounds/whistle_label.wav","null","2","","","","","","",""
"null","","html-keyboard-response","522","2386447","0.0-15.0-1.17","l","COGS219_2020_37","<p style=""font-size: 48px;"">+</p>","null","2","","","","","","",""
"386.7299999999814","","image-keyboard-response","523","2386835","0.0-15.0-2.17","l","COGS219_2020_37","Images/gun_orig.png","76","2","1583110441470","non-match","gun","whistle","label","test","false"
"null","","audio-keyboard-response","524","2388838","0.0-15.0-3.17","l","COGS219_2020_37","Sounds/incorrect.wav","null","2","","","","","","",""
"null","","audio-keyboard-response","525","2389669","0.0-15.0-0.18","l","COGS219_2020_37","Sounds/cat_label.wav","null","2","","","","","","",""
"null","","html-keyboard-response","526","2390664","0.0-15.0-1.18","l","COGS219_2020_37","<p style=""font-size: 48px;"">+</p>","null","2","","","","","","",""
"473.87000000011176","","image-keyboard-response","527","2391139","0.0-15.0-2.18","l","COGS219_2020_37","Images/cat_cartoon.png","76","2","1583110445687","match","cat","cat","label","test","true"
"null","","audio-keyboard-response","528","2393142","0.0-15.0-3.18","l","COGS219_2020_37","Sounds/correct.wav","null","2","","","","","","",""
"null","","audio-keyboard-response","529","2393729","0.0-15.0-0.19","l","COGS219_2020_37","Sounds/gun_label.wav","null","2","","","","","","",""
"null","","html-keyboard-response","530","2394731","0.0-15.0-1.19","l","COGS219_2020_37","<p style=""font-size: 48px;"">+</p>","null","2","","","","","","",""
"775.0550000001676","","image-keyboard-response","531","2395507","0.0-15.0-2.19","l","COGS219_2020_37","Images/gun_3.png","76","2","1583110449754","match","gun","gun","label","test","true"
"null","","audio-keyboard-response","532","2397511","0.0-15.0-3.19","l","COGS219_2020_37","Sounds/correct.wav","null","2","","","","","","",""
"null","","audio-keyboard-response","533","2398169","0.0-15.0-0.20","l","COGS219_2020_37","Sounds/dog_label.wav","null","2","","","","","","",""
"null","","html-keyboard-response","534","2399164","0.0-15.0-1.20","l","COGS219_2020_37","<p style=""font-size: 48px;"">+</p>","null","2","","","","","","",""
"453.8850000007078","","image-keyboard-response","535","2399619","0.0-15.0-2.20","l","COGS219_2020_37","Images/dog_3.png","76","2","1583110454187","match","dog","dog","label","test","true"
"null","","audio-keyboard-response","536","2401622","0.0-15.0-3.20","l","COGS219_2020_37","Sounds/correct.wav","null","2","","","","","","",""
"null","","audio-keyboard-response","537","2402649","0.0-15.0-0.21","l","COGS219_2020_37","Sounds/cow_label.wav","null","2","","","","","","",""
"null","","html-keyboard-response","538","2403647","0.0-15.0-1.21","l","COGS219_2020_37","<p style=""font-size: 48px;"">+</p>","null","2","","","","","","",""
"578.785000000149","","image-keyboard-response","539","2404227","0.0-15.0-2.21","l","COGS219_2020_37","Images/train_2.png","65","2","1583110458670","non-match","train","cow","label","test","true"
"null","","audio-keyboard-response","540","2406230","0.0-15.0-3.21","l","COGS219_2020_37","Sounds/correct.wav","null","2","","","","","","",""
"null","","audio-keyboard-response","541","2406929","0.0-15.0-0.22","l","COGS219_2020_37","Sounds/rooster_label.wav","null","2","","","","","","",""
"null","","html-keyboard-response","542","2407931","0.0-15.0-1.22","l","COGS219_2020_37","<p style=""font-size: 48px;"">+</p>","null","2","","","","","","",""
"727","","image-keyboard-response","543","2408659","0.0-15.0-2.22","l","COGS219_2020_37","Images/whistle_3.png","65","2","1583110462954","non-match","whistle","rooster","label","test","true"
"null","","audio-keyboard-response","544","2410661","0.0-15.0-3.22","l","COGS219_2020_37","Sounds/correct.wav","null","2","","","","","","",""
"null","","audio-keyboard-response","545","2411949","0.0-15.0-0.23","l","COGS219_2020_37","Sounds/train_label.wav","null","2","","","","","","",""
"null","","html-keyboard-response","546","2412947","0.0-15.0-1.23","l","COGS219_2020_37","<p style=""font-size: 48px;"">+</p>","null","2","","","","","","",""
"798.4399999999441","","image-keyboard-response","547","2413747","0.0-15.0-2.23","l","COGS219_2020_37","Images/train_orig.png","76","2","1583110467971","match","train","train","label","test","true"
"null","","audio-keyboard-response","548","2415750","0.0-15.0-3.23","l","COGS219_2020_37","Sounds/correct.wav","null","2","","","","","","",""
"null","","audio-keyboard-response","549","2417009","0.0-15.0-0.24","l","COGS219_2020_37","Sounds/train_label.wav","null","2","","","","","","",""
"null","","html-keyboard-response","550","2418014","0.0-15.0-1.24","l","COGS219_2020_37","<p style=""font-size: 48px;"">+</p>","null","2","","","","","","",""
"515.4300000001676","","image-keyboard-response","551","2418531","0.0-15.0-2.24","l","COGS219_2020_37","Images/car_orig.png","65","2","1583110473038","non-match","car","train","label","test","true"
"null","","audio-keyboard-response","552","2420534","0.0-15.0-3.24","l","COGS219_2020_37","Sounds/correct.wav","null","2","","","","","","",""
"null","","audio-keyboard-response","553","2421109","0.0-15.0-0.25","l","COGS219_2020_37","Sounds/gun_label.wav","null","2","","","","","","",""
"null","","html-keyboard-response","554","2422114","0.0-15.0-1.25","l","COGS219_2020_37","<p style=""font-size: 48px;"">+</p>","null","2","","","","","","",""
"543.3100000000559","","image-keyboard-response","555","2422659","0.0-15.0-2.25","l","COGS219_2020_37","Images/gun_1.png","76","2","1583110477137","match","gun","gun","label","test","true"
"null","","audio-keyboard-response","556","2424662","0.0-15.0-3.25","l","COGS219_2020_37","Sounds/correct.wav","null","2","","","","","","",""
"null","","audio-keyboard-response","557","2425489","0.0-15.0-0.26","l","COGS219_2020_37","Sounds/cat_sound.wav","null","2","","","","","","",""
"null","","html-keyboard-response","558","2426481","0.0-15.0-1.26","l","COGS219_2020_37","<p style=""font-size: 48px;"">+</p>","null","2","","","","","","",""
"513.2399999997579","","image-keyboard-response","559","2426995","0.0-15.0-2.26","l","COGS219_2020_37","Images/car_3.png","65","2","1583110481504","non-match","car","cat","sound","test","true"
"null","","audio-keyboard-response","560","2428998","0.0-15.0-3.26","l","COGS219_2020_37","Sounds/correct.wav","null","2","","","","","","",""
"null","","audio-keyboard-response","561","2429829","0.0-15.0-0.27","l","COGS219_2020_37","Sounds/cat_label.wav","null","2","","","","","","",""
"null","","html-keyboard-response","562","2430831","0.0-15.0-1.27","l","COGS219_2020_37","<p style=""font-size: 48px;"">+</p>","null","2","","","","","","",""
"562.6850000000559","","image-keyboard-response","563","2431395","0.0-15.0-2.27","l","COGS219_2020_37","Images/motorcycle_cartoon.png","65","2","1583110485854","non-match","motorcycle","cat","label","test","true"
"null","","audio-keyboard-response","564","2433397","0.0-15.0-3.27","l","COGS219_2020_37","Sounds/correct.wav","null","2","","","","","","",""
"null","","audio-keyboard-response","565","2434689","0.0-15.0-0.28","l","COGS219_2020_37","Sounds/train_sound.wav","null","2","","","","","","",""
"null","","html-keyboard-response","566","2435698","0.0-15.0-1.28","l","COGS219_2020_37","<p style=""font-size: 48px;"">+</p>","null","2","","","","","","",""
"463.839999999851","","image-keyboard-response","567","2436163","0.0-15.0-2.28","l","COGS219_2020_37","Images/gun_1.png","65","2","1583110490721","non-match","gun","train","sound","test","true"
"null","","audio-keyboard-response","568","2438166","0.0-15.0-3.28","l","COGS219_2020_37","Sounds/correct.wav","null","2","","","","","","",""
"null","","audio-keyboard-response","569","2438869","0.0-15.0-0.29","l","COGS219_2020_37","Sounds/whistle_sound.wav","null","2","","","","","","",""
"null","","html-keyboard-response","570","2439865","0.0-15.0-1.29","l","COGS219_2020_37","<p style=""font-size: 48px;"">+</p>","null","2","","","","","","",""
"600.6850000000559","","image-keyboard-response","571","2440467","0.0-15.0-2.29","l","COGS219_2020_37","Images/whistle_cartoon.png","76","2","1583110494888","match","whistle","whistle","sound","test","true"
"null","","audio-keyboard-response","572","2442470","0.0-15.0-3.29","l","COGS219_2020_37","Sounds/correct.wav","null","2","","","","","","",""
"null","","audio-keyboard-response","573","2443169","0.0-15.0-0.30","l","COGS219_2020_37","Sounds/rooster_sound.wav","null","2","","","","","","",""
"null","","html-keyboard-response","574","2444165","0.0-15.0-1.30","l","COGS219_2020_37","<p style=""font-size: 48px;"">+</p>","null","2","","","","","","",""
"396.48999999975786","","image-keyboard-response","575","2444563","0.0-15.0-2.30","l","COGS219_2020_37","Images/cat_3.png","65","2","1583110499188","non-match","cat","rooster","sound","test","true"
"null","","audio-keyboard-response","576","2446566","0.0-15.0-3.30","l","COGS219_2020_37","Sounds/correct.wav","null","2","","","","","","",""
"null","","audio-keyboard-response","577","2447689","0.0-15.0-0.31","l","COGS219_2020_37","Sounds/motorcycle_label.wav","null","2","","","","","","",""
"null","","html-keyboard-response","578","2448681","0.0-15.0-1.31","l","COGS219_2020_37","<p style=""font-size: 48px;"">+</p>","null","2","","","","","","",""
"520.4750000005588","","image-keyboard-response","579","2449203","0.0-15.0-2.31","l","COGS219_2020_37","Images/motorcycle_1.png","76","2","1583110503705","match","motorcycle","motorcycle","label","test","true"
"null","","audio-keyboard-response","580","2451206","0.0-15.0-3.31","l","COGS219_2020_37","Sounds/correct.wav","null","2","","","","","","",""
"null","","audio-keyboard-response","581","2452309","0.0-15.0-0.32","l","COGS219_2020_37","Sounds/motorcycle_label.wav","null","2","","","","","","",""
"null","","html-keyboard-response","582","2453315","0.0-15.0-1.32","l","COGS219_2020_37","<p style=""font-size: 48px;"">+</p>","null","2","","","","","","",""
"463.34499999973923","","image-keyboard-response","583","2453779","0.0-15.0-2.32","l","COGS219_2020_37","Images/train_1.png","65","2","1583110508338","non-match","train","motorcycle","label","test","true"
"null","","audio-keyboard-response","584","2455784","0.0-15.0-3.32","l","COGS219_2020_37","Sounds/correct.wav","null","2","","","","","","",""
"null","","audio-keyboard-response","585","2456369","0.0-15.0-0.33","l","COGS219_2020_37","Sounds/gun_label.wav","null","2","","","","","","",""
"null","","html-keyboard-response","586","2457365","0.0-15.0-1.33","l","COGS219_2020_37","<p style=""font-size: 48px;"">+</p>","null","2","","","","","","",""
"413.22499999962747","","image-keyboard-response","587","2457779","0.0-15.0-2.33","l","COGS219_2020_37","Images/cow_cartoon.png","65","2","1583110512388","non-match","cow","gun","label","test","true"
"null","","audio-keyboard-response","588","2459782","0.0-15.0-3.33","l","COGS219_2020_37","Sounds/correct.wav","null","2","","","","","","",""
"null","","audio-keyboard-response","589","2460629","0.0-15.0-0.34","l","COGS219_2020_37","Sounds/cat_sound.wav","null","2","","","","","","",""
"null","","html-keyboard-response","590","2461632","0.0-15.0-1.34","l","COGS219_2020_37","<p style=""font-size: 48px;"">+</p>","null","2","","","","","","",""
"434.21500000031665","","image-keyboard-response","591","2462067","0.0-15.0-2.34","l","COGS219_2020_37","Images/cat_orig.png","76","2","1583110516655","match","cat","cat","sound","test","true"
"null","","audio-keyboard-response","592","2464069","0.0-15.0-3.34","l","COGS219_2020_37","Sounds/correct.wav","null","2","","","","","","",""
"null","","audio-keyboard-response","593","2464989","0.0-15.0-0.35","l","COGS219_2020_37","Sounds/frog_sound.wav","null","2","","","","","","",""
"null","","html-keyboard-response","594","2465982","0.0-15.0-1.35","l","COGS219_2020_37","<p style=""font-size: 48px;"">+</p>","null","2","","","","","","",""
"339.4199999999255","","image-keyboard-response","595","2466323","0.0-15.0-2.35","l","COGS219_2020_37","Images/car_2.png","65","2","1583110521005","non-match","car","frog","sound","test","true"
"null","","audio-keyboard-response","596","2468327","0.0-15.0-3.35","l","COGS219_2020_37","Sounds/correct.wav","null","2","","","","","","",""
"null","","audio-keyboard-response","597","2469209","0.0-15.0-0.36","l","COGS219_2020_37","Sounds/frog_sound.wav","null","2","","","","","","",""
"null","","html-keyboard-response","598","2470215","0.0-15.0-1.36","l","COGS219_2020_37","<p style=""font-size: 48px;"">+</p>","null","2","","","","","","",""
"426.9199999999255","","image-keyboard-response","599","2470643","0.0-15.0-2.36","l","COGS219_2020_37","Images/dog_cartoon.png","65","2","1583110525238","non-match","dog","frog","sound","test","true"
"null","","audio-keyboard-response","600","2472646","0.0-15.0-3.36","l","COGS219_2020_37","Sounds/correct.wav","null","2","","","","","","",""
"null","","audio-keyboard-response","601","2473729","0.0-15.0-0.37","l","COGS219_2020_37","Sounds/car_label.wav","null","2","","","","","","",""
"null","","html-keyboard-response","602","2474732","0.0-15.0-1.37","l","COGS219_2020_37","<p style=""font-size: 48px;"">+</p>","null","2","","","","","","",""
"438","","image-keyboard-response","603","2475171","0.0-15.0-2.37","l","COGS219_2020_37","Images/dog_orig.png","65","2","1583110529755","non-match","dog","car","label","test","true"
"null","","audio-keyboard-response","604","2477173","0.0-15.0-3.37","l","COGS219_2020_37","Sounds/correct.wav","null","2","","","","","","",""
