[{"rt":10992.299999983516,"responses":"{\"Q0\":\"22\"}","trial_type":"survey-text","trial_index":0,"time_elapsed":11030,"internal_node_id":"0.0-0.0","match_key":"l","participant_id":"22"},{"rt":26687.045000027865,"stimulus":"<p>Use KEYBOARD 1 (match RIGHT)</p><p>Press MATCH to continue.</p>","key_press":76,"trial_type":"html-keyboard-response","trial_index":1,"time_elapsed":37730,"internal_node_id":"0.0-1.0","match_key":"l","participant_id":"22"},{"rt":2153645.65999998,"stimulus":"<p>Welcome to the experiment.</p>","key_press":32,"trial_type":"html-keyboard-response","trial_index":2,"time_elapsed":2190600,"internal_node_id":"0.0-2.0","match_key":"l","participant_id":"22"},{"rt":25737.244999967515,"stimulus":"<p>Thank you for agreeing to participate in this study.</p><p>If during any part of the procedure you must stop for any reason, please inform the researcher that you do not wish to continue.</p>","key_press":32,"trial_type":"html-keyboard-response","trial_index":3,"time_elapsed":2216343,"internal_node_id":"0.0-3.0","match_key":"l","participant_id":"22"},{"rt":24494.96000004001,"stimulus":"<p>In this experiment, you will hear various words or sounds and see pictures of various animals and objects.</p><p>Most of the images will be of common everyday objects, such as cars, cats, cows, firearms, frogs, chickens, whistles, trains, motorcycles, and dogs.</p><p>Some of the images will be real-life stills, while others will be cartoons.</p>","key_press":32,"trial_type":"html-keyboard-response","trial_index":4,"time_elapsed":2240839,"internal_node_id":"0.0-4.0","match_key":"l","participant_id":"22"},{"rt":19023.350000032224,"stimulus":"<p>Sometimes, the word/sound will match the picture, for example you'll hear a meowing sound and see a cat.</p><p>Other times, the picture will not match the sound or word.</p><p>Your task is to decide as quickly as possible if the word/sound matches the picture or not. </p>","key_press":32,"trial_type":"html-keyboard-response","trial_index":5,"time_elapsed":2259864,"internal_node_id":"0.0-5.0","match_key":"l","participant_id":"22"},{"rt":14334.224999998696,"stimulus":"<p>For example, if you hear the word \"cat\" or hear a meowing sound, and then see a picture of a cat, you should press the MATCH key.</p><p> If the sound and image do not match, press the NOT-MATCH key to indicate that there is not a match.</p>","key_press":32,"trial_type":"html-keyboard-response","trial_index":6,"time_elapsed":2274199,"internal_node_id":"0.0-6.0","match_key":"l","participant_id":"22"},{"rt":14702.864999999292,"stimulus":"<p>If you make a mistake, you will hear a buzzing sound instead of a more pleasant sound.</p><p> Try to respond as quickly as possible, while making as few errors as possible. If you are making mistakes, you are probably rushing.</p>","key_press":32,"trial_type":"html-keyboard-response","trial_index":7,"time_elapsed":2288903,"internal_node_id":"0.0-7.0","match_key":"l","participant_id":"22"},{"rt":14783.220000041183,"stimulus":"<p>Please try to not move or blink your eyes during the presentation of the images. You can move and blink between images.</p><p>During the experiment there will be some breaks during which you can rest your eyes.</p>","key_press":32,"trial_type":"html-keyboard-response","trial_index":8,"time_elapsed":2303676,"internal_node_id":"0.0-8.0","match_key":"l","participant_id":"22"},{"rt":6446.215000003576,"stimulus":"<p>We will begin with 10 practice trials. Please let the experimenter know if you have any questions.</p>","key_press":32,"trial_type":"html-keyboard-response","trial_index":9,"time_elapsed":2310123,"internal_node_id":"0.0-9.0","match_key":"l","participant_id":"22"},{"rt":null,"stimulus":"Sounds/train_label.wav","key_press":null,"block":0,"trial_type":"audio-keyboard-response","trial_index":10,"time_elapsed":2311485,"internal_node_id":"0.0-10.0-0.0","match_key":"l","participant_id":"22"},{"rt":null,"stimulus":"<p style=\"font-size: 48px;\">+</p>","key_press":null,"block":0,"trial_type":"html-keyboard-response","trial_index":11,"time_elapsed":2312476,"internal_node_id":"0.0-10.0-1.0","match_key":"l","participant_id":"22"},{"rt":1293.2250000303611,"stimulus":"Images/train_1.png","key_press":76,"stim_onset":1582300065633,"block":0,"match_type":"match","image_category":"train","sound_category":"train","audio_type":"label","phase":"practice","trial_type":"image-keyboard-response","trial_index":12,"time_elapsed":2313771,"internal_node_id":"0.0-10.0-2.0","match_key":"l","participant_id":"22","correct":true},{"rt":null,"stimulus":"Sounds/correct.wav","key_press":null,"block":0,"trial_type":"audio-keyboard-response","trial_index":13,"time_elapsed":2315788,"internal_node_id":"0.0-10.0-3.0","match_key":"l","participant_id":"22"},{"rt":null,"stimulus":"Sounds/gun_sound.wav","key_press":null,"block":0,"trial_type":"audio-keyboard-response","trial_index":14,"time_elapsed":2316365,"internal_node_id":"0.0-10.0-0.1","match_key":"l","participant_id":"22"},{"rt":null,"stimulus":"<p style=\"font-size: 48px;\">+</p>","key_press":null,"block":0,"trial_type":"html-keyboard-response","trial_index":15,"time_elapsed":2317359,"internal_node_id":"0.0-10.0-1.1","match_key":"l","participant_id":"22"},{"rt":19114.6749999607,"stimulus":"Images/motorcycle_1.png","key_press":76,"stim_onset":1582300070516,"block":0,"match_type":"non-match","image_category":"motorcycle","sound_category":"gun","audio_type":"sound","phase":"practice","trial_type":"image-keyboard-response","trial_index":16,"time_elapsed":2336475,"internal_node_id":"0.0-10.0-2.1","match_key":"l","participant_id":"22","correct":false},{"rt":null,"stimulus":"Sounds/incorrect.wav","key_press":null,"block":0,"trial_type":"audio-keyboard-response","trial_index":17,"time_elapsed":2338487,"internal_node_id":"0.0-10.0-3.1","match_key":"l","participant_id":"22"},{"rt":null,"stimulus":"Sounds/cat_sound.wav","key_press":null,"block":0,"trial_type":"audio-keyboard-response","trial_index":18,"time_elapsed":2339318,"internal_node_id":"0.0-10.0-0.2","match_key":"l","participant_id":"22"},{"rt":null,"stimulus":"<p style=\"font-size: 48px;\">+</p>","key_press":null,"block":0,"trial_type":"html-keyboard-response","trial_index":19,"time_elapsed":2340309,"internal_node_id":"0.0-10.0-1.2","match_key":"l","participant_id":"22"},{"rt":1140.4050000128336,"stimulus":"Images/frog_orig.png","key_press":65,"stim_onset":1582300093467,"block":0,"match_type":"non-match","image_category":"frog","sound_category":"cat","audio_type":"sound","phase":"practice","trial_type":"image-keyboard-response","trial_index":20,"time_elapsed":2341451,"internal_node_id":"0.0-10.0-2.2","match_key":"l","participant_id":"22","correct":true},{"rt":null,"stimulus":"Sounds/correct.wav","key_press":null,"block":0,"trial_type":"audio-keyboard-response","trial_index":21,"time_elapsed":2343463,"internal_node_id":"0.0-10.0-3.2","match_key":"l","participant_id":"22"},{"rt":null,"stimulus":"Sounds/cow_label.wav","key_press":null,"block":0,"trial_type":"audio-keyboard-response","trial_index":22,"time_elapsed":2344478,"internal_node_id":"0.0-10.0-0.3","match_key":"l","participant_id":"22"},{"rt":null,"stimulus":"<p style=\"font-size: 48px;\">+</p>","key_press":null,"block":0,"trial_type":"html-keyboard-response","trial_index":23,"time_elapsed":2345476,"internal_node_id":"0.0-10.0-1.3","match_key":"l","participant_id":"22"},{"rt":757.4350000359118,"stimulus":"Images/train_cartoon.png","key_press":65,"stim_onset":1582300098633,"block":0,"match_type":"non-match","image_category":"train","sound_category":"cow","audio_type":"label","phase":"practice","trial_type":"image-keyboard-response","trial_index":24,"time_elapsed":2346235,"internal_node_id":"0.0-10.0-2.3","match_key":"l","participant_id":"22","correct":true},{"rt":null,"stimulus":"Sounds/correct.wav","key_press":null,"block":0,"trial_type":"audio-keyboard-response","trial_index":25,"time_elapsed":2348247,"internal_node_id":"0.0-10.0-3.3","match_key":"l","participant_id":"22"},{"rt":null,"stimulus":"Sounds/rooster_label.wav","key_press":null,"block":0,"trial_type":"audio-keyboard-response","trial_index":26,"time_elapsed":2348938,"internal_node_id":"0.0-10.0-0.4","match_key":"l","participant_id":"22"},{"rt":null,"stimulus":"<p style=\"font-size: 48px;\">+</p>","key_press":null,"block":0,"trial_type":"html-keyboard-response","trial_index":27,"time_elapsed":2349943,"internal_node_id":"0.0-10.0-1.4","match_key":"l","participant_id":"22"},{"rt":498.77499998547137,"stimulus":"Images/car_3.png","key_press":65,"stim_onset":1582300103100,"block":0,"match_type":"non-match","image_category":"car","sound_category":"rooster","audio_type":"label","phase":"practice","trial_type":"image-keyboard-response","trial_index":28,"time_elapsed":2350443,"internal_node_id":"0.0-10.0-2.4","match_key":"l","participant_id":"22","correct":true},{"rt":null,"stimulus":"Sounds/correct.wav","key_press":null,"block":0,"trial_type":"audio-keyboard-response","trial_index":29,"time_elapsed":2352448,"internal_node_id":"0.0-10.0-3.4","match_key":"l","participant_id":"22"},{"rt":null,"stimulus":"Sounds/car_sound.wav","key_press":null,"block":0,"trial_type":"audio-keyboard-response","trial_index":30,"time_elapsed":2353518,"internal_node_id":"0.0-10.0-0.5","match_key":"l","participant_id":"22"},{"rt":null,"stimulus":"<p style=\"font-size: 48px;\">+</p>","key_press":null,"block":0,"trial_type":"html-keyboard-response","trial_index":31,"time_elapsed":2354510,"internal_node_id":"0.0-10.0-1.5","match_key":"l","participant_id":"22"},{"rt":635.9299999894574,"stimulus":"Images/car_1.png","key_press":76,"stim_onset":1582300107667,"block":0,"match_type":"match","image_category":"car","sound_category":"car","audio_type":"sound","phase":"practice","trial_type":"image-keyboard-response","trial_index":32,"time_elapsed":2355147,"internal_node_id":"0.0-10.0-2.5","match_key":"l","participant_id":"22","correct":true},{"rt":null,"stimulus":"Sounds/correct.wav","key_press":null,"block":0,"trial_type":"audio-keyboard-response","trial_index":33,"time_elapsed":2357150,"internal_node_id":"0.0-10.0-3.5","match_key":"l","participant_id":"22"},{"rt":null,"stimulus":"Sounds/whistle_sound.wav","key_press":null,"block":0,"trial_type":"audio-keyboard-response","trial_index":34,"time_elapsed":2357838,"internal_node_id":"0.0-10.0-0.6","match_key":"l","participant_id":"22"},{"rt":null,"stimulus":"<p style=\"font-size: 48px;\">+</p>","key_press":null,"block":0,"trial_type":"html-keyboard-response","trial_index":35,"time_elapsed":2358843,"internal_node_id":"0.0-10.0-1.6","match_key":"l","participant_id":"22"},{"rt":878.4899999736808,"stimulus":"Images/cat_2.png","key_press":65,"stim_onset":1582300112000,"block":0,"match_type":"non-match","image_category":"cat","sound_category":"whistle","audio_type":"sound","phase":"practice","trial_type":"image-keyboard-response","trial_index":36,"time_elapsed":2359723,"internal_node_id":"0.0-10.0-2.6","match_key":"l","participant_id":"22","correct":true},{"rt":null,"stimulus":"Sounds/correct.wav","key_press":null,"block":0,"trial_type":"audio-keyboard-response","trial_index":37,"time_elapsed":2361733,"internal_node_id":"0.0-10.0-3.6","match_key":"l","participant_id":"22"},{"rt":null,"stimulus":"Sounds/cow_sound.wav","key_press":null,"block":0,"trial_type":"audio-keyboard-response","trial_index":38,"time_elapsed":2362758,"internal_node_id":"0.0-10.0-0.7","match_key":"l","participant_id":"22"},{"rt":null,"stimulus":"<p style=\"font-size: 48px;\">+</p>","key_press":null,"block":0,"trial_type":"html-keyboard-response","trial_index":39,"time_elapsed":2363788,"internal_node_id":"0.0-10.0-1.7","match_key":"l","participant_id":"22"},{"rt":729.7450000187382,"stimulus":"Images/cow_cartoon.png","key_press":76,"stim_onset":1582300116946,"block":0,"match_type":"match","image_category":"cow","sound_category":"cow","audio_type":"sound","phase":"practice","trial_type":"image-keyboard-response","trial_index":40,"time_elapsed":2364519,"internal_node_id":"0.0-10.0-2.7","match_key":"l","participant_id":"22","correct":true},{"rt":null,"stimulus":"Sounds/correct.wav","key_press":null,"block":0,"trial_type":"audio-keyboard-response","trial_index":41,"time_elapsed":2366527,"internal_node_id":"0.0-10.0-3.7","match_key":"l","participant_id":"22"},{"rt":null,"stimulus":"Sounds/dog_sound.wav","key_press":null,"block":0,"trial_type":"audio-keyboard-response","trial_index":42,"time_elapsed":2367230,"internal_node_id":"0.0-10.0-0.8","match_key":"l","participant_id":"22"},{"rt":null,"stimulus":"<p style=\"font-size: 48px;\">+</p>","key_press":null,"block":0,"trial_type":"html-keyboard-response","trial_index":43,"time_elapsed":2368222,"internal_node_id":"0.0-10.0-1.8","match_key":"l","participant_id":"22"},{"rt":472.01500000664964,"stimulus":"Images/dog_2.png","key_press":76,"stim_onset":1582300121379,"block":0,"match_type":"match","image_category":"dog","sound_category":"dog","audio_type":"sound","phase":"practice","trial_type":"image-keyboard-response","trial_index":44,"time_elapsed":2368695,"internal_node_id":"0.0-10.0-2.8","match_key":"l","participant_id":"22","correct":true},{"rt":null,"stimulus":"Sounds/correct.wav","key_press":null,"block":0,"trial_type":"audio-keyboard-response","trial_index":45,"time_elapsed":2370711,"internal_node_id":"0.0-10.0-3.8","match_key":"l","participant_id":"22"},{"rt":null,"stimulus":"Sounds/car_label.wav","key_press":null,"block":0,"trial_type":"audio-keyboard-response","trial_index":46,"time_elapsed":2371790,"internal_node_id":"0.0-10.0-0.9","match_key":"l","participant_id":"22"},{"rt":null,"stimulus":"<p style=\"font-size: 48px;\">+</p>","key_press":null,"block":0,"trial_type":"html-keyboard-response","trial_index":47,"time_elapsed":2372789,"internal_node_id":"0.0-10.0-1.9","match_key":"l","participant_id":"22"},{"rt":513.2449999800883,"stimulus":"Images/car_3.png","key_press":76,"stim_onset":1582300125945,"block":0,"match_type":"match","image_category":"car","sound_category":"car","audio_type":"label","phase":"practice","trial_type":"image-keyboard-response","trial_index":48,"time_elapsed":2373303,"internal_node_id":"0.0-10.0-2.9","match_key":"l","participant_id":"22","correct":true},{"rt":null,"stimulus":"Sounds/correct.wav","key_press":null,"block":0,"trial_type":"audio-keyboard-response","trial_index":49,"time_elapsed":2375311,"internal_node_id":"0.0-10.0-3.9","match_key":"l","participant_id":"22"},{"rt":64888.09999998193,"stimulus":"<p>The rest of the experiment is divided into five blocks with 100 trials in each block. It will take about 45 minutes to complete.</p><p>The experimenter will be in the outer room and you can communicate with them through the monitor if you have any questions or wish to stop the experiment.</p>","key_press":32,"trial_type":"html-keyboard-response","trial_index":50,"time_elapsed":2440199,"internal_node_id":"0.0-11.0","match_key":"l","participant_id":"22"},{"rt":5165.960000013001,"stimulus":"<p>Remember, please try not to move or blink your eyes during the presentation of the images. </p><p>At the end of the experiment, we will show you your scores on the task so you can see how you did.</p><p>The experiment will start on the next screen.</p>","key_press":32,"trial_type":"html-keyboard-response","trial_index":51,"time_elapsed":2445366,"internal_node_id":"0.0-12.0","match_key":"l","participant_id":"22"},{"rt":null,"stimulus":"Sounds/cat_sound.wav","key_press":null,"block":1,"trial_type":"audio-keyboard-response","trial_index":52,"time_elapsed":2448238,"internal_node_id":"0.0-13.0-0.0","match_key":"l","participant_id":"22"},{"rt":null,"stimulus":"<p style=\"font-size: 48px;\">+</p>","key_press":null,"block":1,"trial_type":"html-keyboard-response","trial_index":53,"time_elapsed":2449255,"internal_node_id":"0.0-13.0-1.0","match_key":"l","participant_id":"22"},{"rt":509.8950000246987,"stimulus":"Images/cat_3.png","key_press":76,"stim_onset":1582300202412,"block":1,"match_type":"match","image_category":"cat","sound_category":"cat","audio_type":"sound","phase":"test","trial_type":"image-keyboard-response","trial_index":54,"time_elapsed":2449766,"internal_node_id":"0.0-13.0-2.0","match_key":"l","participant_id":"22","correct":true},{"rt":null,"stimulus":"Sounds/correct.wav","key_press":null,"block":1,"trial_type":"audio-keyboard-response","trial_index":55,"time_elapsed":2451776,"internal_node_id":"0.0-13.0-3.0","match_key":"l","participant_id":"22"},{"rt":null,"stimulus":"Sounds/cow_label.wav","key_press":null,"block":1,"trial_type":"audio-keyboard-response","trial_index":56,"time_elapsed":2452799,"internal_node_id":"0.0-13.0-0.1","match_key":"l","participant_id":"22"},{"rt":null,"stimulus":"<p style=\"font-size: 48px;\">+</p>","key_press":null,"block":1,"trial_type":"html-keyboard-response","trial_index":57,"time_elapsed":2453788,"internal_node_id":"0.0-13.0-1.1","match_key":"l","participant_id":"22"},{"rt":488.7350000208244,"stimulus":"Images/cow_orig.png","key_press":76,"stim_onset":1582300206946,"block":1,"match_type":"match","image_category":"cow","sound_category":"cow","audio_type":"label","phase":"test","trial_type":"image-keyboard-response","trial_index":58,"time_elapsed":2454278,"internal_node_id":"0.0-13.0-2.1","match_key":"l","participant_id":"22","correct":true},{"rt":null,"stimulus":"Sounds/correct.wav","key_press":null,"block":1,"trial_type":"audio-keyboard-response","trial_index":59,"time_elapsed":2456293,"internal_node_id":"0.0-13.0-3.1","match_key":"l","participant_id":"22"},{"rt":null,"stimulus":"Sounds/whistle_label.wav","key_press":null,"block":1,"trial_type":"audio-keyboard-response","trial_index":60,"time_elapsed":2456998,"internal_node_id":"0.0-13.0-0.2","match_key":"l","participant_id":"22"},{"rt":null,"stimulus":"<p style=\"font-size: 48px;\">+</p>","key_press":null,"block":1,"trial_type":"html-keyboard-response","trial_index":61,"time_elapsed":2457989,"internal_node_id":"0.0-13.0-1.2","match_key":"l","participant_id":"22"},{"rt":432.38000001292676,"stimulus":"Images/dog_3.png","key_press":65,"stim_onset":1582300211146,"block":1,"match_type":"non-match","image_category":"dog","sound_category":"whistle","audio_type":"label","phase":"test","trial_type":"image-keyboard-response","trial_index":62,"time_elapsed":2458422,"internal_node_id":"0.0-13.0-2.2","match_key":"l","participant_id":"22","correct":true},{"rt":null,"stimulus":"Sounds/correct.wav","key_press":null,"block":1,"trial_type":"audio-keyboard-response","trial_index":63,"time_elapsed":2460427,"internal_node_id":"0.0-13.0-3.2","match_key":"l","participant_id":"22"},{"rt":null,"stimulus":"Sounds/gun_label.wav","key_press":null,"block":1,"trial_type":"audio-keyboard-response","trial_index":64,"time_elapsed":2460998,"internal_node_id":"0.0-13.0-0.3","match_key":"l","participant_id":"22"},{"rt":null,"stimulus":"<p style=\"font-size: 48px;\">+</p>","key_press":null,"block":1,"trial_type":"html-keyboard-response","trial_index":65,"time_elapsed":2461989,"internal_node_id":"0.0-13.0-1.3","match_key":"l","participant_id":"22"},{"rt":464.2149999854155,"stimulus":"Images/cat_orig.png","key_press":65,"stim_onset":1582300215146,"block":1,"match_type":"non-match","image_category":"cat","sound_category":"gun","audio_type":"label","phase":"test","trial_type":"image-keyboard-response","trial_index":66,"time_elapsed":2462454,"internal_node_id":"0.0-13.0-2.3","match_key":"l","participant_id":"22","correct":true},{"rt":null,"stimulus":"Sounds/correct.wav","key_press":null,"block":1,"trial_type":"audio-keyboard-response","trial_index":67,"time_elapsed":2464461,"internal_node_id":"0.0-13.0-3.3","match_key":"l","participant_id":"22"},{"rt":null,"stimulus":"Sounds/train_label.wav","key_press":null,"block":1,"trial_type":"audio-keyboard-response","trial_index":68,"time_elapsed":2465738,"internal_node_id":"0.0-13.0-0.4","match_key":"l","participant_id":"22"},{"rt":null,"stimulus":"<p style=\"font-size: 48px;\">+</p>","key_press":null,"block":1,"trial_type":"html-keyboard-response","trial_index":69,"time_elapsed":2466755,"internal_node_id":"0.0-13.0-1.4","match_key":"l","participant_id":"22"},{"rt":401.8050000304356,"stimulus":"Images/train_1.png","key_press":76,"stim_onset":1582300219912,"block":1,"match_type":"match","image_category":"train","sound_category":"train","audio_type":"label","phase":"test","trial_type":"image-keyboard-response","trial_index":70,"time_elapsed":2467158,"internal_node_id":"0.0-13.0-2.4","match_key":"l","participant_id":"22","correct":true},{"rt":null,"stimulus":"Sounds/correct.wav","key_press":null,"block":1,"trial_type":"audio-keyboard-response","trial_index":71,"time_elapsed":2469161,"internal_node_id":"0.0-13.0-3.4","match_key":"l","participant_id":"22"},{"rt":null,"stimulus":"Sounds/gun_label.wav","key_press":null,"block":1,"trial_type":"audio-keyboard-response","trial_index":72,"time_elapsed":2469718,"internal_node_id":"0.0-13.0-0.5","match_key":"l","participant_id":"22"},{"rt":null,"stimulus":"<p style=\"font-size: 48px;\">+</p>","key_press":null,"block":1,"trial_type":"html-keyboard-response","trial_index":73,"time_elapsed":2470722,"internal_node_id":"0.0-13.0-1.5","match_key":"l","participant_id":"22"},{"rt":626.8700000364333,"stimulus":"Images/gun_2.png","key_press":76,"stim_onset":1582300223879,"block":1,"match_type":"match","image_category":"gun","sound_category":"gun","audio_type":"label","phase":"test","trial_type":"image-keyboard-response","trial_index":74,"time_elapsed":2471350,"internal_node_id":"0.0-13.0-2.5","match_key":"l","participant_id":"22","correct":true},{"rt":null,"stimulus":"Sounds/correct.wav","key_press":null,"block":1,"trial_type":"audio-keyboard-response","trial_index":75,"time_elapsed":2473359,"internal_node_id":"0.0-13.0-3.5","match_key":"l","participant_id":"22"},{"rt":null,"stimulus":"Sounds/dog_label.wav","key_press":null,"block":1,"trial_type":"audio-keyboard-response","trial_index":76,"time_elapsed":2474018,"internal_node_id":"0.0-13.0-0.6","match_key":"l","participant_id":"22"},{"rt":null,"stimulus":"<p style=\"font-size: 48px;\">+</p>","key_press":null,"block":1,"trial_type":"html-keyboard-response","trial_index":77,"time_elapsed":2475022,"internal_node_id":"0.0-13.0-1.6","match_key":"l","participant_id":"22"},{"rt":406.5650000120513,"stimulus":"Images/dog_3.png","key_press":76,"stim_onset":1582300228179,"block":1,"match_type":"match","image_category":"dog","sound_category":"dog","audio_type":"label","phase":"test","trial_type":"image-keyboard-response","trial_index":78,"time_elapsed":2475430,"internal_node_id":"0.0-13.0-2.6","match_key":"l","participant_id":"22","correct":true},{"rt":null,"stimulus":"Sounds/correct.wav","key_press":null,"block":1,"trial_type":"audio-keyboard-response","trial_index":79,"time_elapsed":2477443,"internal_node_id":"0.0-13.0-3.6","match_key":"l","participant_id":"22"},{"rt":null,"stimulus":"Sounds/frog_sound.wav","key_press":null,"block":1,"trial_type":"audio-keyboard-response","trial_index":80,"time_elapsed":2478358,"internal_node_id":"0.0-13.0-0.7","match_key":"l","participant_id":"22"},{"rt":null,"stimulus":"<p style=\"font-size: 48px;\">+</p>","key_press":null,"block":1,"trial_type":"html-keyboard-response","trial_index":81,"time_elapsed":2479355,"internal_node_id":"0.0-13.0-1.7","match_key":"l","participant_id":"22"},{"rt":521.8199999653734,"stimulus":"Images/frog_3.png","key_press":76,"stim_onset":1582300232513,"block":1,"match_type":"match","image_category":"frog","sound_category":"frog","audio_type":"sound","phase":"test","trial_type":"image-keyboard-response","trial_index":82,"time_elapsed":2479878,"internal_node_id":"0.0-13.0-2.7","match_key":"l","participant_id":"22","correct":true},{"rt":null,"stimulus":"Sounds/correct.wav","key_press":null,"block":1,"trial_type":"audio-keyboard-response","trial_index":83,"time_elapsed":2481893,"internal_node_id":"0.0-13.0-3.7","match_key":"l","participant_id":"22"},{"rt":null,"stimulus":"Sounds/frog_sound.wav","key_press":null,"block":1,"trial_type":"audio-keyboard-response","trial_index":84,"time_elapsed":2482778,"internal_node_id":"0.0-13.0-0.8","match_key":"l","participant_id":"22"},{"rt":null,"stimulus":"<p style=\"font-size: 48px;\">+</p>","key_press":null,"block":1,"trial_type":"html-keyboard-response","trial_index":85,"time_elapsed":2483772,"internal_node_id":"0.0-13.0-1.8","match_key":"l","participant_id":"22"},{"rt":536.7350000306033,"stimulus":"Images/cow_2.png","key_press":65,"stim_onset":1582300236929,"block":1,"match_type":"non-match","image_category":"cow","sound_category":"frog","audio_type":"sound","phase":"test","trial_type":"image-keyboard-response","trial_index":86,"time_elapsed":2484310,"internal_node_id":"0.0-13.0-2.8","match_key":"l","participant_id":"22","correct":true},{"rt":null,"stimulus":"Sounds/correct.wav","key_press":null,"block":1,"trial_type":"audio-keyboard-response","trial_index":87,"time_elapsed":2486321,"internal_node_id":"0.0-13.0-3.8","match_key":"l","participant_id":"22"},{"rt":null,"stimulus":"Sounds/motorcycle_label.wav","key_press":null,"block":1,"trial_type":"audio-keyboard-response","trial_index":88,"time_elapsed":2487458,"internal_node_id":"0.0-13.0-0.9","match_key":"l","participant_id":"22"},{"rt":null,"stimulus":"<p style=\"font-size: 48px;\">+</p>","key_press":null,"block":1,"trial_type":"html-keyboard-response","trial_index":89,"time_elapsed":2488456,"internal_node_id":"0.0-13.0-1.9","match_key":"l","participant_id":"22"},{"rt":397.400000016205,"stimulus":"Images/motorcycle_orig.png","key_press":76,"stim_onset":1582300241613,"block":1,"match_type":"match","image_category":"motorcycle","sound_category":"motorcycle","audio_type":"label","phase":"test","trial_type":"image-keyboard-response","trial_index":90,"time_elapsed":2488854,"internal_node_id":"0.0-13.0-2.9","match_key":"l","participant_id":"22","correct":true},{"rt":null,"stimulus":"Sounds/correct.wav","key_press":null,"block":1,"trial_type":"audio-keyboard-response","trial_index":91,"time_elapsed":2490862,"internal_node_id":"0.0-13.0-3.9","match_key":"l","participant_id":"22"},{"rt":null,"stimulus":"Sounds/train_label.wav","key_press":null,"block":1,"trial_type":"audio-keyboard-response","trial_index":92,"time_elapsed":2492138,"internal_node_id":"0.0-13.0-0.10","match_key":"l","participant_id":"22"},{"rt":null,"stimulus":"<p style=\"font-size: 48px;\">+</p>","key_press":null,"block":1,"trial_type":"html-keyboard-response","trial_index":93,"time_elapsed":2493156,"internal_node_id":"0.0-13.0-1.10","match_key":"l","participant_id":"22"},{"rt":609.5599999534898,"stimulus":"Images/motorcycle_orig.png","key_press":65,"stim_onset":1582300246313,"block":1,"match_type":"non-match","image_category":"motorcycle","sound_category":"train","audio_type":"label","phase":"test","trial_type":"image-keyboard-response","trial_index":94,"time_elapsed":2493766,"internal_node_id":"0.0-13.0-2.10","match_key":"l","participant_id":"22","correct":true},{"rt":null,"stimulus":"Sounds/correct.wav","key_press":null,"block":1,"trial_type":"audio-keyboard-response","trial_index":95,"time_elapsed":2495777,"internal_node_id":"0.0-13.0-3.10","match_key":"l","participant_id":"22"},{"rt":null,"stimulus":"Sounds/car_sound.wav","key_press":null,"block":1,"trial_type":"audio-keyboard-response","trial_index":96,"time_elapsed":2496859,"internal_node_id":"0.0-13.0-0.11","match_key":"l","participant_id":"22"},{"rt":null,"stimulus":"<p style=\"font-size: 48px;\">+</p>","key_press":null,"block":1,"trial_type":"html-keyboard-response","trial_index":97,"time_elapsed":2497857,"internal_node_id":"0.0-13.0-1.11","match_key":"l","participant_id":"22"},{"rt":453.3999999985099,"stimulus":"Images/car_2.png","key_press":76,"stim_onset":1582300251014,"block":1,"match_type":"match","image_category":"car","sound_category":"car","audio_type":"sound","phase":"test","trial_type":"image-keyboard-response","trial_index":98,"time_elapsed":2498311,"internal_node_id":"0.0-13.0-2.11","match_key":"l","participant_id":"22","correct":true},{"rt":null,"stimulus":"Sounds/correct.wav","key_press":null,"block":1,"trial_type":"audio-keyboard-response","trial_index":99,"time_elapsed":2500327,"internal_node_id":"0.0-13.0-3.11","match_key":"l","participant_id":"22"},{"rt":null,"stimulus":"Sounds/cow_sound.wav","key_press":null,"block":1,"trial_type":"audio-keyboard-response","trial_index":100,"time_elapsed":2501339,"internal_node_id":"0.0-13.0-0.12","match_key":"l","participant_id":"22"},{"rt":null,"stimulus":"<p style=\"font-size: 48px;\">+</p>","key_press":null,"block":1,"trial_type":"html-keyboard-response","trial_index":101,"time_elapsed":2502357,"internal_node_id":"0.0-13.0-1.12","match_key":"l","participant_id":"22"},{"rt":480.7549999677576,"stimulus":"Images/cow_1.png","key_press":76,"stim_onset":1582300255514,"block":1,"match_type":"match","image_category":"cow","sound_category":"cow","audio_type":"sound","phase":"test","trial_type":"image-keyboard-response","trial_index":102,"time_elapsed":2502839,"internal_node_id":"0.0-13.0-2.12","match_key":"l","participant_id":"22","correct":true},{"rt":null,"stimulus":"Sounds/correct.wav","key_press":null,"block":1,"trial_type":"audio-keyboard-response","trial_index":103,"time_elapsed":2504850,"internal_node_id":"0.0-13.0-3.12","match_key":"l","participant_id":"22"},{"rt":null,"stimulus":"Sounds/frog_label.wav","key_press":null,"block":1,"trial_type":"audio-keyboard-response","trial_index":104,"time_elapsed":2505739,"internal_node_id":"0.0-13.0-0.13","match_key":"l","participant_id":"22"},{"rt":null,"stimulus":"<p style=\"font-size: 48px;\">+</p>","key_press":null,"block":1,"trial_type":"html-keyboard-response","trial_index":105,"time_elapsed":2506757,"internal_node_id":"0.0-13.0-1.13","match_key":"l","participant_id":"22"},{"rt":481.4100000075996,"stimulus":"Images/frog_cartoon.png","key_press":76,"stim_onset":1582300259914,"block":1,"match_type":"match","image_category":"frog","sound_category":"frog","audio_type":"label","phase":"test","trial_type":"image-keyboard-response","trial_index":106,"time_elapsed":2507239,"internal_node_id":"0.0-13.0-2.13","match_key":"l","participant_id":"22","correct":true},{"rt":null,"stimulus":"Sounds/correct.wav","key_press":null,"block":1,"trial_type":"audio-keyboard-response","trial_index":107,"time_elapsed":2509246,"internal_node_id":"0.0-13.0-3.13","match_key":"l","participant_id":"22"},{"rt":null,"stimulus":"Sounds/gun_sound.wav","key_press":null,"block":1,"trial_type":"audio-keyboard-response","trial_index":108,"time_elapsed":2509819,"internal_node_id":"0.0-13.0-0.14","match_key":"l","participant_id":"22"},{"rt":null,"stimulus":"<p style=\"font-size: 48px;\">+</p>","key_press":null,"block":1,"trial_type":"html-keyboard-response","trial_index":109,"time_elapsed":2510807,"internal_node_id":"0.0-13.0-1.14","match_key":"l","participant_id":"22"},{"rt":767.4950000364333,"stimulus":"Images/rooster_2.png","key_press":65,"stim_onset":1582300263964,"block":1,"match_type":"non-match","image_category":"rooster","sound_category":"gun","audio_type":"sound","phase":"test","trial_type":"image-keyboard-response","trial_index":110,"time_elapsed":2511575,"internal_node_id":"0.0-13.0-2.14","match_key":"l","participant_id":"22","correct":true},{"rt":null,"stimulus":"Sounds/correct.wav","key_press":null,"block":1,"trial_type":"audio-keyboard-response","trial_index":111,"time_elapsed":2513579,"internal_node_id":"0.0-13.0-3.14","match_key":"l","participant_id":"22"},{"rt":null,"stimulus":"Sounds/rooster_label.wav","key_press":null,"block":1,"trial_type":"audio-keyboard-response","trial_index":112,"time_elapsed":2514279,"internal_node_id":"0.0-13.0-0.15","match_key":"l","participant_id":"22"},{"rt":null,"stimulus":"<p style=\"font-size: 48px;\">+</p>","key_press":null,"block":1,"trial_type":"html-keyboard-response","trial_index":113,"time_elapsed":2515274,"internal_node_id":"0.0-13.0-1.15","match_key":"l","participant_id":"22"},{"rt":572.6049999939278,"stimulus":"Images/rooster_cartoon.png","key_press":76,"stim_onset":1582300268431,"block":1,"match_type":"match","image_category":"rooster","sound_category":"rooster","audio_type":"label","phase":"test","trial_type":"image-keyboard-response","trial_index":114,"time_elapsed":2515847,"internal_node_id":"0.0-13.0-2.15","match_key":"l","participant_id":"22","correct":true},{"rt":null,"stimulus":"Sounds/correct.wav","key_press":null,"block":1,"trial_type":"audio-keyboard-response","trial_index":115,"time_elapsed":2517862,"internal_node_id":"0.0-13.0-3.15","match_key":"l","participant_id":"22"},{"rt":null,"stimulus":"Sounds/dog_label.wav","key_press":null,"block":1,"trial_type":"audio-keyboard-response","trial_index":116,"time_elapsed":2518519,"internal_node_id":"0.0-13.0-0.16","match_key":"l","participant_id":"22"},{"rt":null,"stimulus":"<p style=\"font-size: 48px;\">+</p>","key_press":null,"block":1,"trial_type":"html-keyboard-response","trial_index":117,"time_elapsed":2519507,"internal_node_id":"0.0-13.0-1.16","match_key":"l","participant_id":"22"},{"rt":675.199999997858,"stimulus":"Images/dog_2.png","key_press":76,"stim_onset":1582300272664,"block":1,"match_type":"match","image_category":"dog","sound_category":"dog","audio_type":"label","phase":"test","trial_type":"image-keyboard-response","trial_index":118,"time_elapsed":2520183,"internal_node_id":"0.0-13.0-2.16","match_key":"l","participant_id":"22","correct":true},{"rt":null,"stimulus":"Sounds/correct.wav","key_press":null,"block":1,"trial_type":"audio-keyboard-response","trial_index":119,"time_elapsed":2522194,"internal_node_id":"0.0-13.0-3.16","match_key":"l","participant_id":"22"},{"rt":null,"stimulus":"Sounds/rooster_sound.wav","key_press":null,"block":1,"trial_type":"audio-keyboard-response","trial_index":120,"time_elapsed":2522899,"internal_node_id":"0.0-13.0-0.17","match_key":"l","participant_id":"22"},{"rt":null,"stimulus":"<p style=\"font-size: 48px;\">+</p>","key_press":null,"block":1,"trial_type":"html-keyboard-response","trial_index":121,"time_elapsed":2523890,"internal_node_id":"0.0-13.0-1.17","match_key":"l","participant_id":"22"},{"rt":547.8950000251643,"stimulus":"Images/whistle_3.png","key_press":65,"stim_onset":1582300277048,"block":1,"match_type":"non-match","image_category":"whistle","sound_category":"rooster","audio_type":"sound","phase":"test","trial_type":"image-keyboard-response","trial_index":122,"time_elapsed":2524439,"internal_node_id":"0.0-13.0-2.17","match_key":"l","participant_id":"22","correct":true},{"rt":null,"stimulus":"Sounds/correct.wav","key_press":null,"block":1,"trial_type":"audio-keyboard-response","trial_index":123,"time_elapsed":2526448,"internal_node_id":"0.0-13.0-3.17","match_key":"l","participant_id":"22"},{"rt":null,"stimulus":"Sounds/train_sound.wav","key_press":null,"block":1,"trial_type":"audio-keyboard-response","trial_index":124,"time_elapsed":2527739,"internal_node_id":"0.0-13.0-0.18","match_key":"l","participant_id":"22"},{"rt":null,"stimulus":"<p style=\"font-size: 48px;\">+</p>","key_press":null,"block":1,"trial_type":"html-keyboard-response","trial_index":125,"time_elapsed":2528757,"internal_node_id":"0.0-13.0-1.18","match_key":"l","participant_id":"22"},{"rt":496.92000000504777,"stimulus":"Images/frog_cartoon.png","key_press":65,"stim_onset":1582300281914,"block":1,"match_type":"non-match","image_category":"frog","sound_category":"train","audio_type":"sound","phase":"test","trial_type":"image-keyboard-response","trial_index":126,"time_elapsed":2529255,"internal_node_id":"0.0-13.0-2.18","match_key":"l","participant_id":"22","correct":true},{"rt":null,"stimulus":"Sounds/correct.wav","key_press":null,"block":1,"trial_type":"audio-keyboard-response","trial_index":127,"time_elapsed":2531259,"internal_node_id":"0.0-13.0-3.18","match_key":"l","participant_id":"22"},{"rt":null,"stimulus":"Sounds/rooster_sound.wav","key_press":null,"block":1,"trial_type":"audio-keyboard-response","trial_index":128,"time_elapsed":2531939,"internal_node_id":"0.0-13.0-0.19","match_key":"l","participant_id":"22"},{"rt":null,"stimulus":"<p style=\"font-size: 48px;\">+</p>","key_press":null,"block":1,"trial_type":"html-keyboard-response","trial_index":129,"time_elapsed":2532957,"internal_node_id":"0.0-13.0-1.19","match_key":"l","participant_id":"22"},{"rt":505.04499999806285,"stimulus":"Images/cat_3.png","key_press":65,"stim_onset":1582300286114,"block":1,"match_type":"non-match","image_category":"cat","sound_category":"rooster","audio_type":"sound","phase":"test","trial_type":"image-keyboard-response","trial_index":130,"time_elapsed":2533463,"internal_node_id":"0.0-13.0-2.19","match_key":"l","participant_id":"22","correct":true},{"rt":null,"stimulus":"Sounds/correct.wav","key_press":null,"block":1,"trial_type":"audio-keyboard-response","trial_index":131,"time_elapsed":2535480,"internal_node_id":"0.0-13.0-3.19","match_key":"l","participant_id":"22"},{"rt":null,"stimulus":"Sounds/gun_label.wav","key_press":null,"block":1,"trial_type":"audio-keyboard-response","trial_index":132,"time_elapsed":2536059,"internal_node_id":"0.0-13.0-0.20","match_key":"l","participant_id":"22"},{"rt":null,"stimulus":"<p style=\"font-size: 48px;\">+</p>","key_press":null,"block":1,"trial_type":"html-keyboard-response","trial_index":133,"time_elapsed":2537057,"internal_node_id":"0.0-13.0-1.20","match_key":"l","participant_id":"22"},{"rt":516.7850000434555,"stimulus":"Images/frog_2.png","key_press":65,"stim_onset":1582300290214,"block":1,"match_type":"non-match","image_category":"frog","sound_category":"gun","audio_type":"label","phase":"test","trial_type":"image-keyboard-response","trial_index":134,"time_elapsed":2537575,"internal_node_id":"0.0-13.0-2.20","match_key":"l","participant_id":"22","correct":true},{"rt":null,"stimulus":"Sounds/correct.wav","key_press":null,"block":1,"trial_type":"audio-keyboard-response","trial_index":135,"time_elapsed":2539579,"internal_node_id":"0.0-13.0-3.20","match_key":"l","participant_id":"22"},{"rt":null,"stimulus":"Sounds/car_sound.wav","key_press":null,"block":1,"trial_type":"audio-keyboard-response","trial_index":136,"time_elapsed":2540659,"internal_node_id":"0.0-13.0-0.21","match_key":"l","participant_id":"22"},{"rt":null,"stimulus":"<p style=\"font-size: 48px;\">+</p>","key_press":null,"block":1,"trial_type":"html-keyboard-response","trial_index":137,"time_elapsed":2541657,"internal_node_id":"0.0-13.0-1.21","match_key":"l","participant_id":"22"},{"rt":492.89000005228445,"stimulus":"Images/frog_3.png","key_press":65,"stim_onset":1582300294814,"block":1,"match_type":"non-match","image_category":"frog","sound_category":"car","audio_type":"sound","phase":"test","trial_type":"image-keyboard-response","trial_index":138,"time_elapsed":2542151,"internal_node_id":"0.0-13.0-2.21","match_key":"l","participant_id":"22","correct":true},{"rt":null,"stimulus":"Sounds/correct.wav","key_press":null,"block":1,"trial_type":"audio-keyboard-response","trial_index":139,"time_elapsed":2544161,"internal_node_id":"0.0-13.0-3.21","match_key":"l","participant_id":"22"},{"rt":null,"stimulus":"Sounds/whistle_label.wav","key_press":null,"block":1,"trial_type":"audio-keyboard-response","trial_index":140,"time_elapsed":2544859,"internal_node_id":"0.0-13.0-0.22","match_key":"l","participant_id":"22"},{"rt":null,"stimulus":"<p style=\"font-size: 48px;\">+</p>","key_press":null,"block":1,"trial_type":"html-keyboard-response","trial_index":141,"time_elapsed":2545857,"internal_node_id":"0.0-13.0-1.22","match_key":"l","participant_id":"22"},{"rt":693.1000000331551,"stimulus":"Images/whistle_2.png","key_press":76,"stim_onset":1582300299014,"block":1,"match_type":"match","image_category":"whistle","sound_category":"whistle","audio_type":"label","phase":"test","trial_type":"image-keyboard-response","trial_index":142,"time_elapsed":2546551,"internal_node_id":"0.0-13.0-2.22","match_key":"l","participant_id":"22","correct":true},{"rt":null,"stimulus":"Sounds/correct.wav","key_press":null,"block":1,"trial_type":"audio-keyboard-response","trial_index":143,"time_elapsed":2548561,"internal_node_id":"0.0-13.0-3.22","match_key":"l","participant_id":"22"},{"rt":null,"stimulus":"Sounds/whistle_sound.wav","key_press":null,"block":1,"trial_type":"audio-keyboard-response","trial_index":144,"time_elapsed":2549259,"internal_node_id":"0.0-13.0-0.23","match_key":"l","participant_id":"22"},{"rt":null,"stimulus":"<p style=\"font-size: 48px;\">+</p>","key_press":null,"block":1,"trial_type":"html-keyboard-response","trial_index":145,"time_elapsed":2550257,"internal_node_id":"0.0-13.0-1.23","match_key":"l","participant_id":"22"},{"rt":772.8800000040792,"stimulus":"Images/whistle_3.png","key_press":76,"stim_onset":1582300303414,"block":1,"match_type":"match","image_category":"whistle","sound_category":"whistle","audio_type":"sound","phase":"test","trial_type":"image-keyboard-response","trial_index":146,"time_elapsed":2551031,"internal_node_id":"0.0-13.0-2.23","match_key":"l","participant_id":"22","correct":true},{"rt":null,"stimulus":"Sounds/correct.wav","key_press":null,"block":1,"trial_type":"audio-keyboard-response","trial_index":147,"time_elapsed":2553045,"internal_node_id":"0.0-13.0-3.23","match_key":"l","participant_id":"22"},{"rt":null,"stimulus":"Sounds/cow_sound.wav","key_press":null,"block":1,"trial_type":"audio-keyboard-response","trial_index":148,"time_elapsed":2554059,"internal_node_id":"0.0-13.0-0.24","match_key":"l","participant_id":"22"},{"rt":null,"stimulus":"<p style=\"font-size: 48px;\">+</p>","key_press":null,"block":1,"trial_type":"html-keyboard-response","trial_index":149,"time_elapsed":2555057,"internal_node_id":"0.0-13.0-1.24","match_key":"l","participant_id":"22"},{"rt":500.934999960009,"stimulus":"Images/gun_orig.png","key_press":65,"stim_onset":1582300308215,"block":1,"match_type":"non-match","image_category":"gun","sound_category":"cow","audio_type":"sound","phase":"test","trial_type":"image-keyboard-response","trial_index":150,"time_elapsed":2555559,"internal_node_id":"0.0-13.0-2.24","match_key":"l","participant_id":"22","correct":true},{"rt":null,"stimulus":"Sounds/correct.wav","key_press":null,"block":1,"trial_type":"audio-keyboard-response","trial_index":151,"time_elapsed":2557563,"internal_node_id":"0.0-13.0-3.24","match_key":"l","participant_id":"22"},{"rt":null,"stimulus":"Sounds/gun_sound.wav","key_press":null,"block":1,"trial_type":"audio-keyboard-response","trial_index":152,"time_elapsed":2558139,"internal_node_id":"0.0-13.0-0.25","match_key":"l","participant_id":"22"},{"rt":null,"stimulus":"<p style=\"font-size: 48px;\">+</p>","key_press":null,"block":1,"trial_type":"html-keyboard-response","trial_index":153,"time_elapsed":2559141,"internal_node_id":"0.0-13.0-1.25","match_key":"l","participant_id":"22"},{"rt":833.53999996325,"stimulus":"Images/motorcycle_1.png","key_press":65,"stim_onset":1582300312298,"block":1,"match_type":"non-match","image_category":"motorcycle","sound_category":"gun","audio_type":"sound","phase":"test","trial_type":"image-keyboard-response","trial_index":154,"time_elapsed":2559975,"internal_node_id":"0.0-13.0-2.25","match_key":"l","participant_id":"22","correct":true},{"rt":null,"stimulus":"Sounds/correct.wav","key_press":null,"block":1,"trial_type":"audio-keyboard-response","trial_index":155,"time_elapsed":2561981,"internal_node_id":"0.0-13.0-3.25","match_key":"l","participant_id":"22"},{"rt":null,"stimulus":"Sounds/frog_label.wav","key_press":null,"block":1,"trial_type":"audio-keyboard-response","trial_index":156,"time_elapsed":2562879,"internal_node_id":"0.0-13.0-0.26","match_key":"l","participant_id":"22"},{"rt":null,"stimulus":"<p style=\"font-size: 48px;\">+</p>","key_press":null,"block":1,"trial_type":"html-keyboard-response","trial_index":157,"time_elapsed":2563874,"internal_node_id":"0.0-13.0-1.26","match_key":"l","participant_id":"22"},{"rt":548.1349999899976,"stimulus":"Images/gun_cartoon.png","key_press":65,"stim_onset":1582300317031,"block":1,"match_type":"non-match","image_category":"gun","sound_category":"frog","audio_type":"label","phase":"test","trial_type":"image-keyboard-response","trial_index":158,"time_elapsed":2564423,"internal_node_id":"0.0-13.0-2.26","match_key":"l","participant_id":"22","correct":true},{"rt":null,"stimulus":"Sounds/correct.wav","key_press":null,"block":1,"trial_type":"audio-keyboard-response","trial_index":159,"time_elapsed":2566431,"internal_node_id":"0.0-13.0-3.26","match_key":"l","participant_id":"22"},{"rt":null,"stimulus":"Sounds/cat_sound.wav","key_press":null,"block":1,"trial_type":"audio-keyboard-response","trial_index":160,"time_elapsed":2567279,"internal_node_id":"0.0-13.0-0.27","match_key":"l","participant_id":"22"},{"rt":null,"stimulus":"<p style=\"font-size: 48px;\">+</p>","key_press":null,"block":1,"trial_type":"html-keyboard-response","trial_index":161,"time_elapsed":2568274,"internal_node_id":"0.0-13.0-1.27","match_key":"l","participant_id":"22"},{"rt":419.98500004410744,"stimulus":"Images/cat_1.png","key_press":76,"stim_onset":1582300321431,"block":1,"match_type":"match","image_category":"cat","sound_category":"cat","audio_type":"sound","phase":"test","trial_type":"image-keyboard-response","trial_index":162,"time_elapsed":2568695,"internal_node_id":"0.0-13.0-2.27","match_key":"l","participant_id":"22","correct":true},{"rt":null,"stimulus":"Sounds/correct.wav","key_press":null,"block":1,"trial_type":"audio-keyboard-response","trial_index":163,"time_elapsed":2570712,"internal_node_id":"0.0-13.0-3.27","match_key":"l","participant_id":"22"},{"rt":null,"stimulus":"Sounds/motorcycle_label.wav","key_press":null,"block":1,"trial_type":"audio-keyboard-response","trial_index":164,"time_elapsed":2571839,"internal_node_id":"0.0-13.0-0.28","match_key":"l","participant_id":"22"},{"rt":null,"stimulus":"<p style=\"font-size: 48px;\">+</p>","key_press":null,"block":1,"trial_type":"html-keyboard-response","trial_index":165,"time_elapsed":2572841,"internal_node_id":"0.0-13.0-1.28","match_key":"l","participant_id":"22"},{"rt":365.3899999917485,"stimulus":"Images/motorcycle_3.png","key_press":76,"stim_onset":1582300325998,"block":1,"match_type":"match","image_category":"motorcycle","sound_category":"motorcycle","audio_type":"label","phase":"test","trial_type":"image-keyboard-response","trial_index":166,"time_elapsed":2573207,"internal_node_id":"0.0-13.0-2.28","match_key":"l","participant_id":"22","correct":true},{"rt":null,"stimulus":"Sounds/correct.wav","key_press":null,"block":1,"trial_type":"audio-keyboard-response","trial_index":167,"time_elapsed":2575213,"internal_node_id":"0.0-13.0-3.28","match_key":"l","participant_id":"22"},{"rt":null,"stimulus":"Sounds/car_sound.wav","key_press":null,"block":1,"trial_type":"audio-keyboard-response","trial_index":168,"time_elapsed":2576299,"internal_node_id":"0.0-13.0-0.29","match_key":"l","participant_id":"22"},{"rt":null,"stimulus":"<p style=\"font-size: 48px;\">+</p>","key_press":null,"block":1,"trial_type":"html-keyboard-response","trial_index":169,"time_elapsed":2577291,"internal_node_id":"0.0-13.0-1.29","match_key":"l","participant_id":"22"},{"rt":538.9899999718182,"stimulus":"Images/car_orig.png","key_press":76,"stim_onset":1582300330448,"block":1,"match_type":"match","image_category":"car","sound_category":"car","audio_type":"sound","phase":"test","trial_type":"image-keyboard-response","trial_index":170,"time_elapsed":2577831,"internal_node_id":"0.0-13.0-2.29","match_key":"l","participant_id":"22","correct":true},{"rt":null,"stimulus":"Sounds/correct.wav","key_press":null,"block":1,"trial_type":"audio-keyboard-response","trial_index":171,"time_elapsed":2579845,"internal_node_id":"0.0-13.0-3.29","match_key":"l","participant_id":"22"},{"rt":null,"stimulus":"Sounds/frog_label.wav","key_press":null,"block":1,"trial_type":"audio-keyboard-response","trial_index":172,"time_elapsed":2580739,"internal_node_id":"0.0-13.0-0.30","match_key":"l","participant_id":"22"},{"rt":null,"stimulus":"<p style=\"font-size: 48px;\">+</p>","key_press":null,"block":1,"trial_type":"html-keyboard-response","trial_index":173,"time_elapsed":2581741,"internal_node_id":"0.0-13.0-1.30","match_key":"l","participant_id":"22"},{"rt":457.05999998608604,"stimulus":"Images/motorcycle_cartoon.png","key_press":65,"stim_onset":1582300334898,"block":1,"match_type":"non-match","image_category":"motorcycle","sound_category":"frog","audio_type":"label","phase":"test","trial_type":"image-keyboard-response","trial_index":174,"time_elapsed":2582199,"internal_node_id":"0.0-13.0-2.30","match_key":"l","participant_id":"22","correct":true},{"rt":null,"stimulus":"Sounds/correct.wav","key_press":null,"block":1,"trial_type":"audio-keyboard-response","trial_index":175,"time_elapsed":2584213,"internal_node_id":"0.0-13.0-3.30","match_key":"l","participant_id":"22"},{"rt":null,"stimulus":"Sounds/cow_label.wav","key_press":null,"block":1,"trial_type":"audio-keyboard-response","trial_index":176,"time_elapsed":2585239,"internal_node_id":"0.0-13.0-0.31","match_key":"l","participant_id":"22"},{"rt":null,"stimulus":"<p style=\"font-size: 48px;\">+</p>","key_press":null,"block":1,"trial_type":"html-keyboard-response","trial_index":177,"time_elapsed":2586241,"internal_node_id":"0.0-13.0-1.31","match_key":"l","participant_id":"22"},{"rt":389.46500001475215,"stimulus":"Images/cow_2.png","key_press":76,"stim_onset":1582300339398,"block":1,"match_type":"match","image_category":"cow","sound_category":"cow","audio_type":"label","phase":"test","trial_type":"image-keyboard-response","trial_index":178,"time_elapsed":2586632,"internal_node_id":"0.0-13.0-2.31","match_key":"l","participant_id":"22","correct":true},{"rt":null,"stimulus":"Sounds/correct.wav","key_press":null,"block":1,"trial_type":"audio-keyboard-response","trial_index":179,"time_elapsed":2588645,"internal_node_id":"0.0-13.0-3.31","match_key":"l","participant_id":"22"},{"rt":null,"stimulus":"Sounds/motorcycle_sound.wav","key_press":null,"block":1,"trial_type":"audio-keyboard-response","trial_index":180,"time_elapsed":2589759,"internal_node_id":"0.0-13.0-0.32","match_key":"l","participant_id":"22"},{"rt":null,"stimulus":"<p style=\"font-size: 48px;\">+</p>","key_press":null,"block":1,"trial_type":"html-keyboard-response","trial_index":181,"time_elapsed":2590758,"internal_node_id":"0.0-13.0-1.32","match_key":"l","participant_id":"22"},{"rt":512.3050000402145,"stimulus":"Images/whistle_1.png","key_press":65,"stim_onset":1582300343915,"block":1,"match_type":"non-match","image_category":"whistle","sound_category":"motorcycle","audio_type":"sound","phase":"test","trial_type":"image-keyboard-response","trial_index":182,"time_elapsed":2591271,"internal_node_id":"0.0-13.0-2.32","match_key":"l","participant_id":"22","correct":true},{"rt":null,"stimulus":"Sounds/correct.wav","key_press":null,"block":1,"trial_type":"audio-keyboard-response","trial_index":183,"time_elapsed":2593280,"internal_node_id":"0.0-13.0-3.32","match_key":"l","participant_id":"22"},{"rt":null,"stimulus":"Sounds/dog_sound.wav","key_press":null,"block":1,"trial_type":"audio-keyboard-response","trial_index":184,"time_elapsed":2593979,"internal_node_id":"0.0-13.0-0.33","match_key":"l","participant_id":"22"},{"rt":null,"stimulus":"<p style=\"font-size: 48px;\">+</p>","key_press":null,"block":1,"trial_type":"html-keyboard-response","trial_index":185,"time_elapsed":2594975,"internal_node_id":"0.0-13.0-1.33","match_key":"l","participant_id":"22"},{"rt":615.8149999682792,"stimulus":"Images/rooster_3.png","key_press":65,"stim_onset":1582300348132,"block":1,"match_type":"non-match","image_category":"rooster","sound_category":"dog","audio_type":"sound","phase":"test","trial_type":"image-keyboard-response","trial_index":186,"time_elapsed":2595591,"internal_node_id":"0.0-13.0-2.33","match_key":"l","participant_id":"22","correct":true},{"rt":null,"stimulus":"Sounds/correct.wav","key_press":null,"block":1,"trial_type":"audio-keyboard-response","trial_index":187,"time_elapsed":2597597,"internal_node_id":"0.0-13.0-3.33","match_key":"l","participant_id":"22"},{"rt":null,"stimulus":"Sounds/gun_sound.wav","key_press":null,"block":1,"trial_type":"audio-keyboard-response","trial_index":188,"time_elapsed":2598179,"internal_node_id":"0.0-13.0-0.34","match_key":"l","participant_id":"22"},{"rt":null,"stimulus":"<p style=\"font-size: 48px;\">+</p>","key_press":null,"block":1,"trial_type":"html-keyboard-response","trial_index":189,"time_elapsed":2599175,"internal_node_id":"0.0-13.0-1.34","match_key":"l","participant_id":"22"},{"rt":1135.6900000246242,"stimulus":"Images/gun_3.png","key_press":76,"stim_onset":1582300352332,"block":1,"match_type":"match","image_category":"gun","sound_category":"gun","audio_type":"sound","phase":"test","trial_type":"image-keyboard-response","trial_index":190,"time_elapsed":2600311,"internal_node_id":"0.0-13.0-2.34","match_key":"l","participant_id":"22","correct":true},{"rt":null,"stimulus":"Sounds/correct.wav","key_press":null,"block":1,"trial_type":"audio-keyboard-response","trial_index":191,"time_elapsed":2602328,"internal_node_id":"0.0-13.0-3.34","match_key":"l","participant_id":"22"},{"rt":null,"stimulus":"Sounds/cat_sound.wav","key_press":null,"block":1,"trial_type":"audio-keyboard-response","trial_index":192,"time_elapsed":2603159,"internal_node_id":"0.0-13.0-0.35","match_key":"l","participant_id":"22"},{"rt":null,"stimulus":"<p style=\"font-size: 48px;\">+</p>","key_press":null,"block":1,"trial_type":"html-keyboard-response","trial_index":193,"time_elapsed":2604158,"internal_node_id":"0.0-13.0-1.35","match_key":"l","participant_id":"22"},{"rt":614.8800000082701,"stimulus":"Images/cow_3.png","key_press":65,"stim_onset":1582300357315,"block":1,"match_type":"non-match","image_category":"cow","sound_category":"cat","audio_type":"sound","phase":"test","trial_type":"image-keyboard-response","trial_index":194,"time_elapsed":2604775,"internal_node_id":"0.0-13.0-2.35","match_key":"l","participant_id":"22","correct":true},{"rt":null,"stimulus":"Sounds/correct.wav","key_press":null,"block":1,"trial_type":"audio-keyboard-response","trial_index":195,"time_elapsed":2606781,"internal_node_id":"0.0-13.0-3.35","match_key":"l","participant_id":"22"},{"rt":null,"stimulus":"Sounds/gun_label.wav","key_press":null,"block":1,"trial_type":"audio-keyboard-response","trial_index":196,"time_elapsed":2607359,"internal_node_id":"0.0-13.0-0.36","match_key":"l","participant_id":"22"},{"rt":null,"stimulus":"<p style=\"font-size: 48px;\">+</p>","key_press":null,"block":1,"trial_type":"html-keyboard-response","trial_index":197,"time_elapsed":2608358,"internal_node_id":"0.0-13.0-1.36","match_key":"l","participant_id":"22"},{"rt":575.5050000152551,"stimulus":"Images/gun_orig.png","key_press":76,"stim_onset":1582300361515,"block":1,"match_type":"match","image_category":"gun","sound_category":"gun","audio_type":"label","phase":"test","trial_type":"image-keyboard-response","trial_index":198,"time_elapsed":2608935,"internal_node_id":"0.0-13.0-2.36","match_key":"l","participant_id":"22","correct":true},{"rt":null,"stimulus":"Sounds/correct.wav","key_press":null,"block":1,"trial_type":"audio-keyboard-response","trial_index":199,"time_elapsed":2610944,"internal_node_id":"0.0-13.0-3.36","match_key":"l","participant_id":"22"},{"rt":null,"stimulus":"Sounds/rooster_label.wav","key_press":null,"block":1,"trial_type":"audio-keyboard-response","trial_index":200,"time_elapsed":2611639,"internal_node_id":"0.0-13.0-0.37","match_key":"l","participant_id":"22"},{"rt":null,"stimulus":"<p style=\"font-size: 48px;\">+</p>","key_press":null,"block":1,"trial_type":"html-keyboard-response","trial_index":201,"time_elapsed":2612642,"internal_node_id":"0.0-13.0-1.37","match_key":"l","participant_id":"22"},{"rt":580.7999999960884,"stimulus":"Images/cow_cartoon.png","key_press":65,"stim_onset":1582300365799,"block":1,"match_type":"non-match","image_category":"cow","sound_category":"rooster","audio_type":"label","phase":"test","trial_type":"image-keyboard-response","trial_index":202,"time_elapsed":2613223,"internal_node_id":"0.0-13.0-2.37","match_key":"l","participant_id":"22","correct":true},{"rt":null,"stimulus":"Sounds/correct.wav","key_press":null,"block":1,"trial_type":"audio-keyboard-response","trial_index":203,"time_elapsed":2615232,"internal_node_id":"0.0-13.0-3.37","match_key":"l","participant_id":"22"},{"rt":null,"stimulus":"Sounds/motorcycle_label.wav","key_press":null,"block":1,"trial_type":"audio-keyboard-response","trial_index":204,"time_elapsed":2616379,"internal_node_id":"0.0-13.0-0.38","match_key":"l","participant_id":"22"},{"rt":null,"stimulus":"<p style=\"font-size: 48px;\">+</p>","key_press":null,"block":1,"trial_type":"html-keyboard-response","trial_index":205,"time_elapsed":2617375,"internal_node_id":"0.0-13.0-1.38","match_key":"l","participant_id":"22"},{"rt":343.4000000124797,"stimulus":"Images/dog_1.png","key_press":65,"stim_onset":1582300370532,"block":1,"match_type":"non-match","image_category":"dog","sound_category":"motorcycle","audio_type":"label","phase":"test","trial_type":"image-keyboard-response","trial_index":206,"time_elapsed":2617720,"internal_node_id":"0.0-13.0-2.38","match_key":"l","participant_id":"22","correct":true},{"rt":null,"stimulus":"Sounds/correct.wav","key_press":null,"block":1,"trial_type":"audio-keyboard-response","trial_index":207,"time_elapsed":2619728,"internal_node_id":"0.0-13.0-3.38","match_key":"l","participant_id":"22"},{"rt":null,"stimulus":"Sounds/motorcycle_sound.wav","key_press":null,"block":1,"trial_type":"audio-keyboard-response","trial_index":208,"time_elapsed":2620839,"internal_node_id":"0.0-13.0-0.39","match_key":"l","participant_id":"22"},{"rt":null,"stimulus":"<p style=\"font-size: 48px;\">+</p>","key_press":null,"block":1,"trial_type":"html-keyboard-response","trial_index":209,"time_elapsed":2621842,"internal_node_id":"0.0-13.0-1.39","match_key":"l","participant_id":"22"},{"rt":756.6600000136532,"stimulus":"Images/train_orig.png","key_press":65,"stim_onset":1582300374999,"block":1,"match_type":"non-match","image_category":"train","sound_category":"motorcycle","audio_type":"sound","phase":"test","trial_type":"image-keyboard-response","trial_index":210,"time_elapsed":2622600,"internal_node_id":"0.0-13.0-2.39","match_key":"l","participant_id":"22","correct":true},{"rt":null,"stimulus":"Sounds/correct.wav","key_press":null,"block":1,"trial_type":"audio-keyboard-response","trial_index":211,"time_elapsed":2624613,"internal_node_id":"0.0-13.0-3.39","match_key":"l","participant_id":"22"},{"rt":null,"stimulus":"Sounds/train_sound.wav","key_press":null,"block":1,"trial_type":"audio-keyboard-response","trial_index":212,"time_elapsed":2625919,"internal_node_id":"0.0-13.0-0.40","match_key":"l","participant_id":"22"},{"rt":null,"stimulus":"<p style=\"font-size: 48px;\">+</p>","key_press":null,"block":1,"trial_type":"html-keyboard-response","trial_index":213,"time_elapsed":2626926,"internal_node_id":"0.0-13.0-1.40","match_key":"l","participant_id":"22"},{"rt":601.459999976214,"stimulus":"Images/train_2.png","key_press":76,"stim_onset":1582300380082,"block":1,"match_type":"match","image_category":"train","sound_category":"train","audio_type":"sound","phase":"test","trial_type":"image-keyboard-response","trial_index":214,"time_elapsed":2627528,"internal_node_id":"0.0-13.0-2.40","match_key":"l","participant_id":"22","correct":true},{"rt":null,"stimulus":"Sounds/correct.wav","key_press":null,"block":1,"trial_type":"audio-keyboard-response","trial_index":215,"time_elapsed":2629532,"internal_node_id":"0.0-13.0-3.40","match_key":"l","participant_id":"22"},{"rt":null,"stimulus":"Sounds/rooster_sound.wav","key_press":null,"block":1,"trial_type":"audio-keyboard-response","trial_index":216,"time_elapsed":2630219,"internal_node_id":"0.0-13.0-0.41","match_key":"l","participant_id":"22"},{"rt":null,"stimulus":"<p style=\"font-size: 48px;\">+</p>","key_press":null,"block":1,"trial_type":"html-keyboard-response","trial_index":217,"time_elapsed":2631209,"internal_node_id":"0.0-13.0-1.41","match_key":"l","participant_id":"22"},{"rt":542.0499999891035,"stimulus":"Images/rooster_1.png","key_press":76,"stim_onset":1582300384366,"block":1,"match_type":"match","image_category":"rooster","sound_category":"rooster","audio_type":"sound","phase":"test","trial_type":"image-keyboard-response","trial_index":218,"time_elapsed":2631752,"internal_node_id":"0.0-13.0-2.41","match_key":"l","participant_id":"22","correct":true},{"rt":null,"stimulus":"Sounds/correct.wav","key_press":null,"block":1,"trial_type":"audio-keyboard-response","trial_index":219,"time_elapsed":2633763,"internal_node_id":"0.0-13.0-3.41","match_key":"l","participant_id":"22"},{"rt":null,"stimulus":"Sounds/cat_label.wav","key_press":null,"block":1,"trial_type":"audio-keyboard-response","trial_index":220,"time_elapsed":2634599,"internal_node_id":"0.0-13.0-0.42","match_key":"l","participant_id":"22"},{"rt":null,"stimulus":"<p style=\"font-size: 48px;\">+</p>","key_press":null,"block":1,"trial_type":"html-keyboard-response","trial_index":221,"time_elapsed":2635592,"internal_node_id":"0.0-13.0-1.42","match_key":"l","participant_id":"22"},{"rt":430.5550000281073,"stimulus":"Images/frog_orig.png","key_press":65,"stim_onset":1582300388749,"block":1,"match_type":"non-match","image_category":"frog","sound_category":"cat","audio_type":"label","phase":"test","trial_type":"image-keyboard-response","trial_index":222,"time_elapsed":2636024,"internal_node_id":"0.0-13.0-2.42","match_key":"l","participant_id":"22","correct":true},{"rt":null,"stimulus":"Sounds/correct.wav","key_press":null,"block":1,"trial_type":"audio-keyboard-response","trial_index":223,"time_elapsed":2638032,"internal_node_id":"0.0-13.0-3.42","match_key":"l","participant_id":"22"},{"rt":null,"stimulus":"Sounds/dog_label.wav","key_press":null,"block":1,"trial_type":"audio-keyboard-response","trial_index":224,"time_elapsed":2638699,"internal_node_id":"0.0-13.0-0.43","match_key":"l","participant_id":"22"},{"rt":null,"stimulus":"<p style=\"font-size: 48px;\">+</p>","key_press":null,"block":1,"trial_type":"html-keyboard-response","trial_index":225,"time_elapsed":2639692,"internal_node_id":"0.0-13.0-1.43","match_key":"l","participant_id":"22"},{"rt":586.5500000072643,"stimulus":"Images/dog_1.png","key_press":65,"stim_onset":1582300392849,"block":1,"match_type":"match","image_category":"dog","sound_category":"dog","audio_type":"label","phase":"test","trial_type":"image-keyboard-response","trial_index":226,"time_elapsed":2640280,"internal_node_id":"0.0-13.0-2.43","match_key":"l","participant_id":"22","correct":false},{"rt":null,"stimulus":"Sounds/incorrect.wav","key_press":null,"block":1,"trial_type":"audio-keyboard-response","trial_index":227,"time_elapsed":2642297,"internal_node_id":"0.0-13.0-3.43","match_key":"l","participant_id":"22"},{"rt":null,"stimulus":"Sounds/dog_label.wav","key_press":null,"block":1,"trial_type":"audio-keyboard-response","trial_index":228,"time_elapsed":2642919,"internal_node_id":"0.0-13.0-0.44","match_key":"l","participant_id":"22"},{"rt":null,"stimulus":"<p style=\"font-size: 48px;\">+</p>","key_press":null,"block":1,"trial_type":"html-keyboard-response","trial_index":229,"time_elapsed":2643909,"internal_node_id":"0.0-13.0-1.44","match_key":"l","participant_id":"22"},{"rt":673.9349999697879,"stimulus":"Images/dog_orig.png","key_press":76,"stim_onset":1582300397066,"block":1,"match_type":"match","image_category":"dog","sound_category":"dog","audio_type":"label","phase":"test","trial_type":"image-keyboard-response","trial_index":230,"time_elapsed":2644584,"internal_node_id":"0.0-13.0-2.44","match_key":"l","participant_id":"22","correct":true},{"rt":null,"stimulus":"Sounds/correct.wav","key_press":null,"block":1,"trial_type":"audio-keyboard-response","trial_index":231,"time_elapsed":2646597,"internal_node_id":"0.0-13.0-3.44","match_key":"l","participant_id":"22"},{"rt":null,"stimulus":"Sounds/whistle_label.wav","key_press":null,"block":1,"trial_type":"audio-keyboard-response","trial_index":232,"time_elapsed":2647299,"internal_node_id":"0.0-13.0-0.45","match_key":"l","participant_id":"22"},{"rt":null,"stimulus":"<p style=\"font-size: 48px;\">+</p>","key_press":null,"block":1,"trial_type":"html-keyboard-response","trial_index":233,"time_elapsed":2648292,"internal_node_id":"0.0-13.0-1.45","match_key":"l","participant_id":"22"},{"rt":594.5300000021234,"stimulus":"Images/gun_3.png","key_press":65,"stim_onset":1582300401449,"block":1,"match_type":"non-match","image_category":"gun","sound_category":"whistle","audio_type":"label","phase":"test","trial_type":"image-keyboard-response","trial_index":234,"time_elapsed":2648888,"internal_node_id":"0.0-13.0-2.45","match_key":"l","participant_id":"22","correct":true},{"rt":null,"stimulus":"Sounds/correct.wav","key_press":null,"block":1,"trial_type":"audio-keyboard-response","trial_index":235,"time_elapsed":2650897,"internal_node_id":"0.0-13.0-3.45","match_key":"l","participant_id":"22"},{"rt":null,"stimulus":"Sounds/cat_sound.wav","key_press":null,"block":1,"trial_type":"audio-keyboard-response","trial_index":236,"time_elapsed":2651739,"internal_node_id":"0.0-13.0-0.46","match_key":"l","participant_id":"22"},{"rt":null,"stimulus":"<p style=\"font-size: 48px;\">+</p>","key_press":null,"block":1,"trial_type":"html-keyboard-response","trial_index":237,"time_elapsed":2652742,"internal_node_id":"0.0-13.0-1.46","match_key":"l","participant_id":"22"},{"rt":431.209999951534,"stimulus":"Images/train_cartoon.png","key_press":65,"stim_onset":1582300405900,"block":1,"match_type":"non-match","image_category":"train","sound_category":"cat","audio_type":"sound","phase":"test","trial_type":"image-keyboard-response","trial_index":238,"time_elapsed":2653176,"internal_node_id":"0.0-13.0-2.46","match_key":"l","participant_id":"22","correct":true},{"rt":null,"stimulus":"Sounds/correct.wav","key_press":null,"block":1,"trial_type":"audio-keyboard-response","trial_index":239,"time_elapsed":2655182,"internal_node_id":"0.0-13.0-3.46","match_key":"l","participant_id":"22"},{"rt":null,"stimulus":"Sounds/whistle_label.wav","key_press":null,"block":1,"trial_type":"audio-keyboard-response","trial_index":240,"time_elapsed":2655859,"internal_node_id":"0.0-13.0-0.47","match_key":"l","participant_id":"22"},{"rt":null,"stimulus":"<p style=\"font-size: 48px;\">+</p>","key_press":null,"block":1,"trial_type":"html-keyboard-response","trial_index":241,"time_elapsed":2656859,"internal_node_id":"0.0-13.0-1.47","match_key":"l","participant_id":"22"},{"rt":539.6700000273995,"stimulus":"Images/whistle_orig.png","key_press":76,"stim_onset":1582300410016,"block":1,"match_type":"match","image_category":"whistle","sound_category":"whistle","audio_type":"label","phase":"test","trial_type":"image-keyboard-response","trial_index":242,"time_elapsed":2657400,"internal_node_id":"0.0-13.0-2.47","match_key":"l","participant_id":"22","correct":true},{"rt":null,"stimulus":"Sounds/correct.wav","key_press":null,"block":1,"trial_type":"audio-keyboard-response","trial_index":243,"time_elapsed":2659413,"internal_node_id":"0.0-13.0-3.47","match_key":"l","participant_id":"22"},{"rt":null,"stimulus":"Sounds/car_label.wav","key_press":null,"block":1,"trial_type":"audio-keyboard-response","trial_index":244,"time_elapsed":2660499,"internal_node_id":"0.0-13.0-0.48","match_key":"l","participant_id":"22"},{"rt":null,"stimulus":"<p style=\"font-size: 48px;\">+</p>","key_press":null,"block":1,"trial_type":"html-keyboard-response","trial_index":245,"time_elapsed":2661492,"internal_node_id":"0.0-13.0-1.48","match_key":"l","participant_id":"22"},{"rt":674.2399999639019,"stimulus":"Images/train_3.png","key_press":65,"stim_onset":1582300414650,"block":1,"match_type":"non-match","image_category":"train","sound_category":"car","audio_type":"label","phase":"test","trial_type":"image-keyboard-response","trial_index":246,"time_elapsed":2662168,"internal_node_id":"0.0-13.0-2.48","match_key":"l","participant_id":"22","correct":true},{"rt":null,"stimulus":"Sounds/correct.wav","key_press":null,"block":1,"trial_type":"audio-keyboard-response","trial_index":247,"time_elapsed":2664185,"internal_node_id":"0.0-13.0-3.48","match_key":"l","participant_id":"22"},{"rt":null,"stimulus":"Sounds/car_sound.wav","key_press":null,"block":1,"trial_type":"audio-keyboard-response","trial_index":248,"time_elapsed":2665259,"internal_node_id":"0.0-13.0-0.49","match_key":"l","participant_id":"22"},{"rt":null,"stimulus":"<p style=\"font-size: 48px;\">+</p>","key_press":null,"block":1,"trial_type":"html-keyboard-response","trial_index":249,"time_elapsed":2666259,"internal_node_id":"0.0-13.0-1.49","match_key":"l","participant_id":"22"},{"rt":452.0000000484288,"stimulus":"Images/rooster_1.png","key_press":65,"stim_onset":1582300419416,"block":1,"match_type":"non-match","image_category":"rooster","sound_category":"car","audio_type":"sound","phase":"test","trial_type":"image-keyboard-response","trial_index":250,"time_elapsed":2666712,"internal_node_id":"0.0-13.0-2.49","match_key":"l","participant_id":"22","correct":true},{"rt":null,"stimulus":"Sounds/correct.wav","key_press":null,"block":1,"trial_type":"audio-keyboard-response","trial_index":251,"time_elapsed":2668715,"internal_node_id":"0.0-13.0-3.49","match_key":"l","participant_id":"22"},{"rt":null,"stimulus":"Sounds/cow_sound.wav","key_press":null,"block":1,"trial_type":"audio-keyboard-response","trial_index":252,"time_elapsed":2669739,"internal_node_id":"0.0-13.0-0.50","match_key":"l","participant_id":"22"},{"rt":null,"stimulus":"<p style=\"font-size: 48px;\">+</p>","key_press":null,"block":1,"trial_type":"html-keyboard-response","trial_index":253,"time_elapsed":2670743,"internal_node_id":"0.0-13.0-1.50","match_key":"l","participant_id":"22"},{"rt":560.2249999647029,"stimulus":"Images/motorcycle_2.png","key_press":65,"stim_onset":1582300423900,"block":1,"match_type":"non-match","image_category":"motorcycle","sound_category":"cow","audio_type":"sound","phase":"test","trial_type":"image-keyboard-response","trial_index":254,"time_elapsed":2671304,"internal_node_id":"0.0-13.0-2.50","match_key":"l","participant_id":"22","correct":true},{"rt":null,"stimulus":"Sounds/correct.wav","key_press":null,"block":1,"trial_type":"audio-keyboard-response","trial_index":255,"time_elapsed":2673313,"internal_node_id":"0.0-13.0-3.50","match_key":"l","participant_id":"22"},{"rt":null,"stimulus":"Sounds/dog_label.wav","key_press":null,"block":1,"trial_type":"audio-keyboard-response","trial_index":256,"time_elapsed":2673979,"internal_node_id":"0.0-13.0-0.51","match_key":"l","participant_id":"22"},{"rt":null,"stimulus":"<p style=\"font-size: 48px;\">+</p>","key_press":null,"block":1,"trial_type":"html-keyboard-response","trial_index":257,"time_elapsed":2674976,"internal_node_id":"0.0-13.0-1.51","match_key":"l","participant_id":"22"},{"rt":470.69500002544373,"stimulus":"Images/motorcycle_3.png","key_press":65,"stim_onset":1582300428133,"block":1,"match_type":"non-match","image_category":"motorcycle","sound_category":"dog","audio_type":"label","phase":"test","trial_type":"image-keyboard-response","trial_index":258,"time_elapsed":2675448,"internal_node_id":"0.0-13.0-2.51","match_key":"l","participant_id":"22","correct":true},{"rt":null,"stimulus":"Sounds/correct.wav","key_press":null,"block":1,"trial_type":"audio-keyboard-response","trial_index":259,"time_elapsed":2677464,"internal_node_id":"0.0-13.0-3.51","match_key":"l","participant_id":"22"},{"rt":null,"stimulus":"Sounds/rooster_label.wav","key_press":null,"block":1,"trial_type":"audio-keyboard-response","trial_index":260,"time_elapsed":2678159,"internal_node_id":"0.0-13.0-0.52","match_key":"l","participant_id":"22"},{"rt":null,"stimulus":"<p style=\"font-size: 48px;\">+</p>","key_press":null,"block":1,"trial_type":"html-keyboard-response","trial_index":261,"time_elapsed":2679159,"internal_node_id":"0.0-13.0-1.52","match_key":"l","participant_id":"22"},{"rt":399.50499997939914,"stimulus":"Images/train_2.png","key_press":65,"stim_onset":1582300432317,"block":1,"match_type":"non-match","image_category":"train","sound_category":"rooster","audio_type":"label","phase":"test","trial_type":"image-keyboard-response","trial_index":262,"time_elapsed":2679560,"internal_node_id":"0.0-13.0-2.52","match_key":"l","participant_id":"22","correct":true},{"rt":null,"stimulus":"Sounds/correct.wav","key_press":null,"block":1,"trial_type":"audio-keyboard-response","trial_index":263,"time_elapsed":2681564,"internal_node_id":"0.0-13.0-3.52","match_key":"l","participant_id":"22"},{"rt":null,"stimulus":"Sounds/motorcycle_label.wav","key_press":null,"block":1,"trial_type":"audio-keyboard-response","trial_index":264,"time_elapsed":2682699,"internal_node_id":"0.0-13.0-0.53","match_key":"l","participant_id":"22"},{"rt":null,"stimulus":"<p style=\"font-size: 48px;\">+</p>","key_press":null,"block":1,"trial_type":"html-keyboard-response","trial_index":265,"time_elapsed":2683693,"internal_node_id":"0.0-13.0-1.53","match_key":"l","participant_id":"22"},{"rt":554.0400000172667,"stimulus":"Images/motorcycle_2.png","key_press":76,"stim_onset":1582300436850,"block":1,"match_type":"match","image_category":"motorcycle","sound_category":"motorcycle","audio_type":"label","phase":"test","trial_type":"image-keyboard-response","trial_index":266,"time_elapsed":2684248,"internal_node_id":"0.0-13.0-2.53","match_key":"l","participant_id":"22","correct":true},{"rt":null,"stimulus":"Sounds/correct.wav","key_press":null,"block":1,"trial_type":"audio-keyboard-response","trial_index":267,"time_elapsed":2686265,"internal_node_id":"0.0-13.0-3.53","match_key":"l","participant_id":"22"},{"rt":null,"stimulus":"Sounds/gun_label.wav","key_press":null,"block":1,"trial_type":"audio-keyboard-response","trial_index":268,"time_elapsed":2686840,"internal_node_id":"0.0-13.0-0.54","match_key":"l","participant_id":"22"},{"rt":null,"stimulus":"<p style=\"font-size: 48px;\">+</p>","key_press":null,"block":1,"trial_type":"html-keyboard-response","trial_index":269,"time_elapsed":2687843,"internal_node_id":"0.0-13.0-1.54","match_key":"l","participant_id":"22"},{"rt":388.1050000200048,"stimulus":"Images/dog_orig.png","key_press":65,"stim_onset":1582300441000,"block":1,"match_type":"non-match","image_category":"dog","sound_category":"gun","audio_type":"label","phase":"test","trial_type":"image-keyboard-response","trial_index":270,"time_elapsed":2688232,"internal_node_id":"0.0-13.0-2.54","match_key":"l","participant_id":"22","correct":true},{"rt":null,"stimulus":"Sounds/correct.wav","key_press":null,"block":1,"trial_type":"audio-keyboard-response","trial_index":271,"time_elapsed":2690247,"internal_node_id":"0.0-13.0-3.54","match_key":"l","participant_id":"22"},{"rt":null,"stimulus":"Sounds/rooster_label.wav","key_press":null,"block":1,"trial_type":"audio-keyboard-response","trial_index":272,"time_elapsed":2690920,"internal_node_id":"0.0-13.0-0.55","match_key":"l","participant_id":"22"},{"rt":null,"stimulus":"<p style=\"font-size: 48px;\">+</p>","key_press":null,"block":1,"trial_type":"html-keyboard-response","trial_index":273,"time_elapsed":2691910,"internal_node_id":"0.0-13.0-1.55","match_key":"l","participant_id":"22"},{"rt":561.6300000110641,"stimulus":"Images/gun_2.png","key_press":65,"stim_onset":1582300445067,"block":1,"match_type":"non-match","image_category":"gun","sound_category":"rooster","audio_type":"label","phase":"test","trial_type":"image-keyboard-response","trial_index":274,"time_elapsed":2692472,"internal_node_id":"0.0-13.0-2.55","match_key":"l","participant_id":"22","correct":true},{"rt":null,"stimulus":"Sounds/correct.wav","key_press":null,"block":1,"trial_type":"audio-keyboard-response","trial_index":275,"time_elapsed":2694482,"internal_node_id":"0.0-13.0-3.55","match_key":"l","participant_id":"22"},{"rt":null,"stimulus":"Sounds/train_label.wav","key_press":null,"block":1,"trial_type":"audio-keyboard-response","trial_index":276,"time_elapsed":2695760,"internal_node_id":"0.0-13.0-0.56","match_key":"l","participant_id":"22"},{"rt":null,"stimulus":"<p style=\"font-size: 48px;\">+</p>","key_press":null,"block":1,"trial_type":"html-keyboard-response","trial_index":277,"time_elapsed":2696760,"internal_node_id":"0.0-13.0-1.56","match_key":"l","participant_id":"22"},{"rt":653.6199999973178,"stimulus":"Images/train_orig.png","key_press":76,"stim_onset":1582300449917,"block":1,"match_type":"match","image_category":"train","sound_category":"train","audio_type":"label","phase":"test","trial_type":"image-keyboard-response","trial_index":278,"time_elapsed":2697416,"internal_node_id":"0.0-13.0-2.56","match_key":"l","participant_id":"22","correct":true},{"rt":null,"stimulus":"Sounds/correct.wav","key_press":null,"block":1,"trial_type":"audio-keyboard-response","trial_index":279,"time_elapsed":2699430,"internal_node_id":"0.0-13.0-3.56","match_key":"l","participant_id":"22"},{"rt":null,"stimulus":"Sounds/cat_sound.wav","key_press":null,"block":1,"trial_type":"audio-keyboard-response","trial_index":280,"time_elapsed":2700259,"internal_node_id":"0.0-13.0-0.57","match_key":"l","participant_id":"22"},{"rt":null,"stimulus":"<p style=\"font-size: 48px;\">+</p>","key_press":null,"block":1,"trial_type":"html-keyboard-response","trial_index":281,"time_elapsed":2701260,"internal_node_id":"0.0-13.0-1.57","match_key":"l","participant_id":"22"},{"rt":507.1600000374019,"stimulus":"Images/car_1.png","key_press":65,"stim_onset":1582300454417,"block":1,"match_type":"non-match","image_category":"car","sound_category":"cat","audio_type":"sound","phase":"test","trial_type":"image-keyboard-response","trial_index":282,"time_elapsed":2701768,"internal_node_id":"0.0-13.0-2.57","match_key":"l","participant_id":"22","correct":true},{"rt":null,"stimulus":"Sounds/correct.wav","key_press":null,"block":1,"trial_type":"audio-keyboard-response","trial_index":283,"time_elapsed":2703782,"internal_node_id":"0.0-13.0-3.57","match_key":"l","participant_id":"22"},{"rt":null,"stimulus":"Sounds/whistle_sound.wav","key_press":null,"block":1,"trial_type":"audio-keyboard-response","trial_index":284,"time_elapsed":2704480,"internal_node_id":"0.0-13.0-0.58","match_key":"l","participant_id":"22"},{"rt":null,"stimulus":"<p style=\"font-size: 48px;\">+</p>","key_press":null,"block":1,"trial_type":"html-keyboard-response","trial_index":285,"time_elapsed":2705476,"internal_node_id":"0.0-13.0-1.58","match_key":"l","participant_id":"22"},{"rt":466.6399999987334,"stimulus":"Images/whistle_1.png","key_press":76,"stim_onset":1582300458634,"block":1,"match_type":"match","image_category":"whistle","sound_category":"whistle","audio_type":"sound","phase":"test","trial_type":"image-keyboard-response","trial_index":286,"time_elapsed":2705944,"internal_node_id":"0.0-13.0-2.58","match_key":"l","participant_id":"22","correct":true},{"rt":null,"stimulus":"Sounds/correct.wav","key_press":null,"block":1,"trial_type":"audio-keyboard-response","trial_index":287,"time_elapsed":2707948,"internal_node_id":"0.0-13.0-3.58","match_key":"l","participant_id":"22"},{"rt":null,"stimulus":"Sounds/car_sound.wav","key_press":null,"block":1,"trial_type":"audio-keyboard-response","trial_index":288,"time_elapsed":2709019,"internal_node_id":"0.0-13.0-0.59","match_key":"l","participant_id":"22"},{"rt":null,"stimulus":"<p style=\"font-size: 48px;\">+</p>","key_press":null,"block":1,"trial_type":"html-keyboard-response","trial_index":289,"time_elapsed":2710010,"internal_node_id":"0.0-13.0-1.59","match_key":"l","participant_id":"22"},{"rt":477.0799999823794,"stimulus":"Images/whistle_orig.png","key_press":65,"stim_onset":1582300463167,"block":1,"match_type":"non-match","image_category":"whistle","sound_category":"car","audio_type":"sound","phase":"test","trial_type":"image-keyboard-response","trial_index":290,"time_elapsed":2710488,"internal_node_id":"0.0-13.0-2.59","match_key":"l","participant_id":"22","correct":true},{"rt":null,"stimulus":"Sounds/correct.wav","key_press":null,"block":1,"trial_type":"audio-keyboard-response","trial_index":291,"time_elapsed":2712498,"internal_node_id":"0.0-13.0-3.59","match_key":"l","participant_id":"22"},{"rt":null,"stimulus":"Sounds/cat_sound.wav","key_press":null,"block":1,"trial_type":"audio-keyboard-response","trial_index":292,"time_elapsed":2713320,"internal_node_id":"0.0-13.0-0.60","match_key":"l","participant_id":"22"},{"rt":null,"stimulus":"<p style=\"font-size: 48px;\">+</p>","key_press":null,"block":1,"trial_type":"html-keyboard-response","trial_index":293,"time_elapsed":2714310,"internal_node_id":"0.0-13.0-1.60","match_key":"l","participant_id":"22"},{"rt":448.9600000088103,"stimulus":"Images/cat_2.png","key_press":76,"stim_onset":1582300467467,"block":1,"match_type":"match","image_category":"cat","sound_category":"cat","audio_type":"sound","phase":"test","trial_type":"image-keyboard-response","trial_index":294,"time_elapsed":2714760,"internal_node_id":"0.0-13.0-2.60","match_key":"l","participant_id":"22","correct":true},{"rt":null,"stimulus":"Sounds/correct.wav","key_press":null,"block":1,"trial_type":"audio-keyboard-response","trial_index":295,"time_elapsed":2716767,"internal_node_id":"0.0-13.0-3.60","match_key":"l","participant_id":"22"},{"rt":null,"stimulus":"Sounds/car_label.wav","key_press":null,"block":1,"trial_type":"audio-keyboard-response","trial_index":296,"time_elapsed":2717839,"internal_node_id":"0.0-13.0-0.61","match_key":"l","participant_id":"22"},{"rt":null,"stimulus":"<p style=\"font-size: 48px;\">+</p>","key_press":null,"block":1,"trial_type":"html-keyboard-response","trial_index":297,"time_elapsed":2718843,"internal_node_id":"0.0-13.0-1.61","match_key":"l","participant_id":"22"},{"rt":443.7749999924563,"stimulus":"Images/car_3.png","key_press":76,"stim_onset":1582300472000,"block":1,"match_type":"match","image_category":"car","sound_category":"car","audio_type":"label","phase":"test","trial_type":"image-keyboard-response","trial_index":298,"time_elapsed":2719288,"internal_node_id":"0.0-13.0-2.61","match_key":"l","participant_id":"22","correct":true},{"rt":null,"stimulus":"Sounds/correct.wav","key_press":null,"block":1,"trial_type":"audio-keyboard-response","trial_index":299,"time_elapsed":2721297,"internal_node_id":"0.0-13.0-3.61","match_key":"l","participant_id":"22"},{"rt":null,"stimulus":"Sounds/cat_sound.wav","key_press":null,"block":1,"trial_type":"audio-keyboard-response","trial_index":300,"time_elapsed":2722099,"internal_node_id":"0.0-13.0-0.62","match_key":"l","participant_id":"22"},{"rt":null,"stimulus":"<p style=\"font-size: 48px;\">+</p>","key_press":null,"block":1,"trial_type":"html-keyboard-response","trial_index":301,"time_elapsed":2723093,"internal_node_id":"0.0-13.0-1.62","match_key":"l","participant_id":"22"},{"rt":577.7150000212714,"stimulus":"Images/cat_cartoon.png","key_press":76,"stim_onset":1582300476250,"block":1,"match_type":"match","image_category":"cat","sound_category":"cat","audio_type":"sound","phase":"test","trial_type":"image-keyboard-response","trial_index":302,"time_elapsed":2723672,"internal_node_id":"0.0-13.0-2.62","match_key":"l","participant_id":"22","correct":true},{"rt":null,"stimulus":"Sounds/correct.wav","key_press":null,"block":1,"trial_type":"audio-keyboard-response","trial_index":303,"time_elapsed":2725680,"internal_node_id":"0.0-13.0-3.62","match_key":"l","participant_id":"22"},{"rt":null,"stimulus":"Sounds/rooster_sound.wav","key_press":null,"block":1,"trial_type":"audio-keyboard-response","trial_index":304,"time_elapsed":2726379,"internal_node_id":"0.0-13.0-0.63","match_key":"l","participant_id":"22"},{"rt":null,"stimulus":"<p style=\"font-size: 48px;\">+</p>","key_press":null,"block":1,"trial_type":"html-keyboard-response","trial_index":305,"time_elapsed":2727377,"internal_node_id":"0.0-13.0-1.63","match_key":"l","participant_id":"22"},{"rt":374.0949999773875,"stimulus":"Images/rooster_2.png","key_press":76,"stim_onset":1582300480534,"block":1,"match_type":"match","image_category":"rooster","sound_category":"rooster","audio_type":"sound","phase":"test","trial_type":"image-keyboard-response","trial_index":306,"time_elapsed":2727752,"internal_node_id":"0.0-13.0-2.63","match_key":"l","participant_id":"22","correct":true},{"rt":null,"stimulus":"Sounds/correct.wav","key_press":null,"block":1,"trial_type":"audio-keyboard-response","trial_index":307,"time_elapsed":2729764,"internal_node_id":"0.0-13.0-3.63","match_key":"l","participant_id":"22"},{"rt":null,"stimulus":"Sounds/motorcycle_sound.wav","key_press":null,"block":1,"trial_type":"audio-keyboard-response","trial_index":308,"time_elapsed":2730880,"internal_node_id":"0.0-13.0-0.64","match_key":"l","participant_id":"22"},{"rt":null,"stimulus":"<p style=\"font-size: 48px;\">+</p>","key_press":null,"block":1,"trial_type":"html-keyboard-response","trial_index":309,"time_elapsed":2731877,"internal_node_id":"0.0-13.0-1.64","match_key":"l","participant_id":"22"},{"rt":370.3150000073947,"stimulus":"Images/motorcycle_1.png","key_press":76,"stim_onset":1582300485034,"block":1,"match_type":"match","image_category":"motorcycle","sound_category":"motorcycle","audio_type":"sound","phase":"test","trial_type":"image-keyboard-response","trial_index":310,"time_elapsed":2732248,"internal_node_id":"0.0-13.0-2.64","match_key":"l","participant_id":"22","correct":true},{"rt":null,"stimulus":"Sounds/correct.wav","key_press":null,"block":1,"trial_type":"audio-keyboard-response","trial_index":311,"time_elapsed":2734264,"internal_node_id":"0.0-13.0-3.64","match_key":"l","participant_id":"22"},{"rt":null,"stimulus":"Sounds/whistle_sound.wav","key_press":null,"block":1,"trial_type":"audio-keyboard-response","trial_index":312,"time_elapsed":2734960,"internal_node_id":"0.0-13.0-0.65","match_key":"l","participant_id":"22"},{"rt":null,"stimulus":"<p style=\"font-size: 48px;\">+</p>","key_press":null,"block":1,"trial_type":"html-keyboard-response","trial_index":313,"time_elapsed":2735960,"internal_node_id":"0.0-13.0-1.65","match_key":"l","participant_id":"22"},{"rt":734.8500000080094,"stimulus":"Images/train_1.png","key_press":65,"stim_onset":1582300489117,"block":1,"match_type":"non-match","image_category":"train","sound_category":"whistle","audio_type":"sound","phase":"test","trial_type":"image-keyboard-response","trial_index":314,"time_elapsed":2736696,"internal_node_id":"0.0-13.0-2.65","match_key":"l","participant_id":"22","correct":true},{"rt":null,"stimulus":"Sounds/correct.wav","key_press":null,"block":1,"trial_type":"audio-keyboard-response","trial_index":315,"time_elapsed":2738699,"internal_node_id":"0.0-13.0-3.65","match_key":"l","participant_id":"22"},{"rt":null,"stimulus":"Sounds/whistle_label.wav","key_press":null,"block":1,"trial_type":"audio-keyboard-response","trial_index":316,"time_elapsed":2739400,"internal_node_id":"0.0-13.0-0.66","match_key":"l","participant_id":"22"},{"rt":null,"stimulus":"<p style=\"font-size: 48px;\">+</p>","key_press":null,"block":1,"trial_type":"html-keyboard-response","trial_index":317,"time_elapsed":2740394,"internal_node_id":"0.0-13.0-1.66","match_key":"l","participant_id":"22"},{"rt":445.464999997057,"stimulus":"Images/car_2.png","key_press":65,"stim_onset":1582300493551,"block":1,"match_type":"non-match","image_category":"car","sound_category":"whistle","audio_type":"label","phase":"test","trial_type":"image-keyboard-response","trial_index":318,"time_elapsed":2740840,"internal_node_id":"0.0-13.0-2.66","match_key":"l","participant_id":"22","correct":true},{"rt":null,"stimulus":"Sounds/correct.wav","key_press":null,"block":1,"trial_type":"audio-keyboard-response","trial_index":319,"time_elapsed":2742851,"internal_node_id":"0.0-13.0-3.66","match_key":"l","participant_id":"22"},{"rt":null,"stimulus":"Sounds/train_label.wav","key_press":null,"block":1,"trial_type":"audio-keyboard-response","trial_index":320,"time_elapsed":2744140,"internal_node_id":"0.0-13.0-0.67","match_key":"l","participant_id":"22"},{"rt":null,"stimulus":"<p style=\"font-size: 48px;\">+</p>","key_press":null,"block":1,"trial_type":"html-keyboard-response","trial_index":321,"time_elapsed":2745144,"internal_node_id":"0.0-13.0-1.67","match_key":"l","participant_id":"22"},{"rt":463.6099999770522,"stimulus":"Images/car_3.png","key_press":65,"stim_onset":1582300498301,"block":1,"match_type":"non-match","image_category":"car","sound_category":"train","audio_type":"label","phase":"test","trial_type":"image-keyboard-response","trial_index":322,"time_elapsed":2745609,"internal_node_id":"0.0-13.0-2.67","match_key":"l","participant_id":"22","correct":true},{"rt":null,"stimulus":"Sounds/correct.wav","key_press":null,"block":1,"trial_type":"audio-keyboard-response","trial_index":323,"time_elapsed":2747616,"internal_node_id":"0.0-13.0-3.67","match_key":"l","participant_id":"22"},{"rt":null,"stimulus":"Sounds/frog_sound.wav","key_press":null,"block":1,"trial_type":"audio-keyboard-response","trial_index":324,"time_elapsed":2748520,"internal_node_id":"0.0-13.0-0.68","match_key":"l","participant_id":"22"},{"rt":null,"stimulus":"<p style=\"font-size: 48px;\">+</p>","key_press":null,"block":1,"trial_type":"html-keyboard-response","trial_index":325,"time_elapsed":2749511,"internal_node_id":"0.0-13.0-1.68","match_key":"l","participant_id":"22"},{"rt":496.7199999955483,"stimulus":"Images/car_orig.png","key_press":65,"stim_onset":1582300502668,"block":1,"match_type":"non-match","image_category":"car","sound_category":"frog","audio_type":"sound","phase":"test","trial_type":"image-keyboard-response","trial_index":326,"time_elapsed":2750008,"internal_node_id":"0.0-13.0-2.68","match_key":"l","participant_id":"22","correct":true},{"rt":null,"stimulus":"Sounds/correct.wav","key_press":null,"block":1,"trial_type":"audio-keyboard-response","trial_index":327,"time_elapsed":2752015,"internal_node_id":"0.0-13.0-3.68","match_key":"l","participant_id":"22"},{"rt":null,"stimulus":"Sounds/car_sound.wav","key_press":null,"block":1,"trial_type":"audio-keyboard-response","trial_index":328,"time_elapsed":2753100,"internal_node_id":"0.0-13.0-0.69","match_key":"l","participant_id":"22"},{"rt":null,"stimulus":"<p style=\"font-size: 48px;\">+</p>","key_press":null,"block":1,"trial_type":"html-keyboard-response","trial_index":329,"time_elapsed":2754094,"internal_node_id":"0.0-13.0-1.69","match_key":"l","participant_id":"22"},{"rt":985.3400000138208,"stimulus":"Images/car_1.png","key_press":76,"stim_onset":1582300507251,"block":1,"match_type":"match","image_category":"car","sound_category":"car","audio_type":"sound","phase":"test","trial_type":"image-keyboard-response","trial_index":330,"time_elapsed":2755080,"internal_node_id":"0.0-13.0-2.69","match_key":"l","participant_id":"22","correct":true},{"rt":null,"stimulus":"Sounds/correct.wav","key_press":null,"block":1,"trial_type":"audio-keyboard-response","trial_index":331,"time_elapsed":2757084,"internal_node_id":"0.0-13.0-3.69","match_key":"l","participant_id":"22"},{"rt":null,"stimulus":"Sounds/car_sound.wav","key_press":null,"block":1,"trial_type":"audio-keyboard-response","trial_index":332,"time_elapsed":2758140,"internal_node_id":"0.0-13.0-0.70","match_key":"l","participant_id":"22"},{"rt":null,"stimulus":"<p style=\"font-size: 48px;\">+</p>","key_press":null,"block":1,"trial_type":"html-keyboard-response","trial_index":333,"time_elapsed":2759144,"internal_node_id":"0.0-13.0-1.70","match_key":"l","participant_id":"22"},{"rt":415.6849999562837,"stimulus":"Images/dog_2.png","key_press":65,"stim_onset":1582300512301,"block":1,"match_type":"non-match","image_category":"dog","sound_category":"car","audio_type":"sound","phase":"test","trial_type":"image-keyboard-response","trial_index":334,"time_elapsed":2759561,"internal_node_id":"0.0-13.0-2.70","match_key":"l","participant_id":"22","correct":true},{"rt":null,"stimulus":"Sounds/correct.wav","key_press":null,"block":1,"trial_type":"audio-keyboard-response","trial_index":335,"time_elapsed":2761567,"internal_node_id":"0.0-13.0-3.70","match_key":"l","participant_id":"22"},{"rt":null,"stimulus":"Sounds/frog_sound.wav","key_press":null,"block":1,"trial_type":"audio-keyboard-response","trial_index":336,"time_elapsed":2762460,"internal_node_id":"0.0-13.0-0.71","match_key":"l","participant_id":"22"},{"rt":null,"stimulus":"<p style=\"font-size: 48px;\">+</p>","key_press":null,"block":1,"trial_type":"html-keyboard-response","trial_index":337,"time_elapsed":2763478,"internal_node_id":"0.0-13.0-1.71","match_key":"l","participant_id":"22"},{"rt":657.7699999907054,"stimulus":"Images/frog_orig.png","key_press":76,"stim_onset":1582300516635,"block":1,"match_type":"match","image_category":"frog","sound_category":"frog","audio_type":"sound","phase":"test","trial_type":"image-keyboard-response","trial_index":338,"time_elapsed":2764136,"internal_node_id":"0.0-13.0-2.71","match_key":"l","participant_id":"22","correct":true},{"rt":null,"stimulus":"Sounds/correct.wav","key_press":null,"block":1,"trial_type":"audio-keyboard-response","trial_index":339,"time_elapsed":2766148,"internal_node_id":"0.0-13.0-3.71","match_key":"l","participant_id":"22"},{"rt":null,"stimulus":"Sounds/cow_label.wav","key_press":null,"block":1,"trial_type":"audio-keyboard-response","trial_index":340,"time_elapsed":2767160,"internal_node_id":"0.0-13.0-0.72","match_key":"l","participant_id":"22"},{"rt":null,"stimulus":"<p style=\"font-size: 48px;\">+</p>","key_press":null,"block":1,"trial_type":"html-keyboard-response","trial_index":341,"time_elapsed":2768177,"internal_node_id":"0.0-13.0-1.72","match_key":"l","participant_id":"22"},{"rt":406.09499998390675,"stimulus":"Images/car_cartoon.png","key_press":65,"stim_onset":1582300521335,"block":1,"match_type":"non-match","image_category":"car","sound_category":"cow","audio_type":"label","phase":"test","trial_type":"image-keyboard-response","trial_index":342,"time_elapsed":2768584,"internal_node_id":"0.0-13.0-2.72","match_key":"l","participant_id":"22","correct":true},{"rt":null,"stimulus":"Sounds/correct.wav","key_press":null,"block":1,"trial_type":"audio-keyboard-response","trial_index":343,"time_elapsed":2770598,"internal_node_id":"0.0-13.0-3.72","match_key":"l","participant_id":"22"},{"rt":null,"stimulus":"Sounds/gun_sound.wav","key_press":null,"block":1,"trial_type":"audio-keyboard-response","trial_index":344,"time_elapsed":2771180,"internal_node_id":"0.0-13.0-0.73","match_key":"l","participant_id":"22"},{"rt":null,"stimulus":"<p style=\"font-size: 48px;\">+</p>","key_press":null,"block":1,"trial_type":"html-keyboard-response","trial_index":345,"time_elapsed":2772178,"internal_node_id":"0.0-13.0-1.73","match_key":"l","participant_id":"22"},{"rt":1013.9199999975972,"stimulus":"Images/gun_cartoon.png","key_press":76,"stim_onset":1582300525335,"block":1,"match_type":"match","image_category":"gun","sound_category":"gun","audio_type":"sound","phase":"test","trial_type":"image-keyboard-response","trial_index":346,"time_elapsed":2773193,"internal_node_id":"0.0-13.0-2.73","match_key":"l","participant_id":"22","correct":true},{"rt":null,"stimulus":"Sounds/correct.wav","key_press":null,"block":1,"trial_type":"audio-keyboard-response","trial_index":347,"time_elapsed":2775202,"internal_node_id":"0.0-13.0-3.73","match_key":"l","participant_id":"22"},{"rt":null,"stimulus":"Sounds/rooster_label.wav","key_press":null,"block":1,"trial_type":"audio-keyboard-response","trial_index":348,"time_elapsed":2775900,"internal_node_id":"0.0-13.0-0.74","match_key":"l","participant_id":"22"},{"rt":null,"stimulus":"<p style=\"font-size: 48px;\">+</p>","key_press":null,"block":1,"trial_type":"html-keyboard-response","trial_index":349,"time_elapsed":2776894,"internal_node_id":"0.0-13.0-1.74","match_key":"l","participant_id":"22"},{"rt":377.06500000786036,"stimulus":"Images/rooster_orig.png","key_press":76,"stim_onset":1582300530051,"block":1,"match_type":"match","image_category":"rooster","sound_category":"rooster","audio_type":"label","phase":"test","trial_type":"image-keyboard-response","trial_index":350,"time_elapsed":2777272,"internal_node_id":"0.0-13.0-2.74","match_key":"l","participant_id":"22","correct":true},{"rt":null,"stimulus":"Sounds/correct.wav","key_press":null,"block":1,"trial_type":"audio-keyboard-response","trial_index":351,"time_elapsed":2779281,"internal_node_id":"0.0-13.0-3.74","match_key":"l","participant_id":"22"},{"rt":null,"stimulus":"Sounds/cow_label.wav","key_press":null,"block":1,"trial_type":"audio-keyboard-response","trial_index":352,"time_elapsed":2780280,"internal_node_id":"0.0-13.0-0.75","match_key":"l","participant_id":"22"},{"rt":null,"stimulus":"<p style=\"font-size: 48px;\">+</p>","key_press":null,"block":1,"trial_type":"html-keyboard-response","trial_index":353,"time_elapsed":2781278,"internal_node_id":"0.0-13.0-1.75","match_key":"l","participant_id":"22"},{"rt":473.7550000427291,"stimulus":"Images/dog_cartoon.png","key_press":65,"stim_onset":1582300534435,"block":1,"match_type":"non-match","image_category":"dog","sound_category":"cow","audio_type":"label","phase":"test","trial_type":"image-keyboard-response","trial_index":354,"time_elapsed":2781752,"internal_node_id":"0.0-13.0-2.75","match_key":"l","participant_id":"22","correct":true},{"rt":null,"stimulus":"Sounds/correct.wav","key_press":null,"block":1,"trial_type":"audio-keyboard-response","trial_index":355,"time_elapsed":2783767,"internal_node_id":"0.0-13.0-3.75","match_key":"l","participant_id":"22"},{"rt":null,"stimulus":"Sounds/train_label.wav","key_press":null,"block":1,"trial_type":"audio-keyboard-response","trial_index":356,"time_elapsed":2785040,"internal_node_id":"0.0-13.0-0.76","match_key":"l","participant_id":"22"},{"rt":null,"stimulus":"<p style=\"font-size: 48px;\">+</p>","key_press":null,"block":1,"trial_type":"html-keyboard-response","trial_index":357,"time_elapsed":2786044,"internal_node_id":"0.0-13.0-1.76","match_key":"l","participant_id":"22"},{"rt":427.2349999519065,"stimulus":"Images/rooster_cartoon.png","key_press":65,"stim_onset":1582300539201,"block":1,"match_type":"non-match","image_category":"rooster","sound_category":"train","audio_type":"label","phase":"test","trial_type":"image-keyboard-response","trial_index":358,"time_elapsed":2786473,"internal_node_id":"0.0-13.0-2.76","match_key":"l","participant_id":"22","correct":true},{"rt":null,"stimulus":"Sounds/correct.wav","key_press":null,"block":1,"trial_type":"audio-keyboard-response","trial_index":359,"time_elapsed":2788481,"internal_node_id":"0.0-13.0-3.76","match_key":"l","participant_id":"22"},{"rt":null,"stimulus":"Sounds/frog_sound.wav","key_press":null,"block":1,"trial_type":"audio-keyboard-response","trial_index":360,"time_elapsed":2789380,"internal_node_id":"0.0-13.0-0.77","match_key":"l","participant_id":"22"},{"rt":null,"stimulus":"<p style=\"font-size: 48px;\">+</p>","key_press":null,"block":1,"trial_type":"html-keyboard-response","trial_index":361,"time_elapsed":2790378,"internal_node_id":"0.0-13.0-1.77","match_key":"l","participant_id":"22"},{"rt":397.70500001031905,"stimulus":"Images/frog_1.png","key_press":76,"stim_onset":1582300543535,"block":1,"match_type":"match","image_category":"frog","sound_category":"frog","audio_type":"sound","phase":"test","trial_type":"image-keyboard-response","trial_index":362,"time_elapsed":2790776,"internal_node_id":"0.0-13.0-2.77","match_key":"l","participant_id":"22","correct":true},{"rt":null,"stimulus":"Sounds/correct.wav","key_press":null,"block":1,"trial_type":"audio-keyboard-response","trial_index":363,"time_elapsed":2792783,"internal_node_id":"0.0-13.0-3.77","match_key":"l","participant_id":"22"},{"rt":null,"stimulus":"Sounds/dog_sound.wav","key_press":null,"block":1,"trial_type":"audio-keyboard-response","trial_index":364,"time_elapsed":2793500,"internal_node_id":"0.0-13.0-0.78","match_key":"l","participant_id":"22"},{"rt":null,"stimulus":"<p style=\"font-size: 48px;\">+</p>","key_press":null,"block":1,"trial_type":"html-keyboard-response","trial_index":365,"time_elapsed":2794494,"internal_node_id":"0.0-13.0-1.78","match_key":"l","participant_id":"22"},{"rt":552.8649999760091,"stimulus":"Images/gun_1.png","key_press":65,"stim_onset":15823