"rt","responses","trial_type","trial_index","time_elapsed","internal_node_id","match_key","participant_id","stimulus","key_press","block","stim_onset","match_type","image_category","sound_category","audio_type","phase","correct"
"13401.485000000008","{""Q0"":""COGS219_2020_10""}","survey-text","0","13453","0.0-0.0","a","COGS219_2020_10","","","","","","","","","",""
"48867.42999999998","","html-keyboard-response","1","62318","0.0-1.0","a","COGS219_2020_10","<p>Use KEYBOARD 2 (match LEFT)</p><p>Press MATCH to continue.</p>","65","","","","","","","",""
"1462878.3","","html-keyboard-response","2","1525568","0.0-2.0","a","COGS219_2020_10","<p>Welcome to the experiment.</p>","13","","","","","","","",""
"10980.449999999953","","html-keyboard-response","3","1536552","0.0-3.0","a","COGS219_2020_10","<p>Thank you for agreeing to participate in this study.</p><p>If during any part of the procedure you must stop for any reason, please inform the researcher that you do not wish to continue.</p>","13","","","","","","","",""
"19455.38500000001","","html-keyboard-response","4","1556007","0.0-4.0","a","COGS219_2020_10","<p>In this experiment, you will hear various words or sounds and see pictures of various animals and objects.</p><p>Most of the images will be of common everyday objects, such as cars, cats, cows, firearms, frogs, chickens, whistles, trains, motorcycles, and dogs.</p><p>Some of the images will be real-life stills, while others will be cartoons.</p>","13","","","","","","","",""
"15703.255000000121","","html-keyboard-response","5","1571711","0.0-5.0","a","COGS219_2020_10","<p>Sometimes, the word/sound will match the picture, for example you'll hear a meowing sound and see a cat.</p><p>Other times, the picture will not match the sound or word.</p><p>Your task is to decide as quickly as possible if the word/sound matches the picture or not. </p>","13","","","","","","","",""
"42919.070000000065","","html-keyboard-response","6","1614631","0.0-6.0","a","COGS219_2020_10","<p>For example, if you hear the word ""cat"" or hear a meowing sound, and then see a picture of a cat, you should press the MATCH key.</p><p> If the sound and image do not match, press the NOT-MATCH key to indicate that there is not a match.</p>","13","","","","","","","",""
"12887.610000000102","","html-keyboard-response","7","1627509","0.0-7.0","a","COGS219_2020_10","<p>If you make a mistake, you will hear a buzzing sound instead of a more pleasant sound.</p><p> Try to respond as quickly as possible, while making as few errors as possible. If you are making mistakes, you are probably rushing.</p>","13","","","","","","","",""
"11214.929999999935","","html-keyboard-response","8","1638725","0.0-8.0","a","COGS219_2020_10","<p>Please try to not move or blink your eyes during the presentation of the images. You can move and blink between images.</p><p>During the experiment there will be some breaks during which you can rest your eyes.</p>","13","","","","","","","",""
"27695.22499999986","","html-keyboard-response","9","1666421","0.0-9.0","a","COGS219_2020_10","<p>We will begin with 10 practice trials. Please let the experimenter know if you have any questions.</p>","32","","","","","","","",""
"null","","audio-keyboard-response","10","1667641","0.0-10.0-0.0","a","COGS219_2020_10","Sounds/motorcycle_label.wav","null","0","","","","","","",""
"null","","html-keyboard-response","11","1668634","0.0-10.0-1.0","a","COGS219_2020_10","<p style=""font-size: 48px;"">+</p>","null","0","","","","","","",""
"1225.2399999999907","","image-keyboard-response","12","1669861","0.0-10.0-2.0","a","COGS219_2020_10","Images/train_cartoon.png","76","0","1581561917691","non-match","train","motorcycle","label","practice","true"
"null","","audio-keyboard-response","13","1671876","0.0-10.0-3.0","a","COGS219_2020_10","Sounds/correct.wav","null","0","","","","","","",""
"null","","audio-keyboard-response","14","1672721","0.0-10.0-0.1","a","COGS219_2020_10","Sounds/cat_label.wav","null","0","","","","","","",""
"null","","html-keyboard-response","15","1673717","0.0-10.0-1.1","a","COGS219_2020_10","<p style=""font-size: 48px;"">+</p>","null","0","","","","","","",""
"878.3700000001118","","image-keyboard-response","16","1674597","0.0-10.0-2.1","a","COGS219_2020_10","Images/cat_3.png","65","0","1581561922774","match","cat","cat","label","practice","true"
"null","","audio-keyboard-response","17","1676607","0.0-10.0-3.1","a","COGS219_2020_10","Sounds/correct.wav","null","0","","","","","","",""
"null","","audio-keyboard-response","18","1677501","0.0-10.0-0.2","a","COGS219_2020_10","Sounds/frog_label.wav","null","0","","","","","","",""
"null","","html-keyboard-response","19","1678500","0.0-10.0-1.2","a","COGS219_2020_10","<p style=""font-size: 48px;"">+</p>","null","0","","","","","","",""
"1919.7150000000838","","image-keyboard-response","20","1680421","0.0-10.0-2.2","a","COGS219_2020_10","Images/gun_3.png","76","0","1581561927557","non-match","gun","frog","label","practice","true"
"null","","audio-keyboard-response","21","1682424","0.0-10.0-3.2","a","COGS219_2020_10","Sounds/correct.wav","null","0","","","","","","",""
"null","","audio-keyboard-response","22","1683261","0.0-10.0-0.3","a","COGS219_2020_10","Sounds/cat_sound.wav","null","0","","","","","","",""
"null","","html-keyboard-response","23","1684250","0.0-10.0-1.3","a","COGS219_2020_10","<p style=""font-size: 48px;"">+</p>","null","0","","","","","","",""
"1385.339999999851","","image-keyboard-response","24","1685637","0.0-10.0-2.3","a","COGS219_2020_10","Images/cat_2.png","65","0","1581561933307","match","cat","cat","sound","practice","true"
"null","","audio-keyboard-response","25","1687655","0.0-10.0-3.3","a","COGS219_2020_10","Sounds/correct.wav","null","0","","","","","","",""
"null","","audio-keyboard-response","26","1688573","0.0-10.0-0.4","a","COGS219_2020_10","Sounds/frog_sound.wav","null","0","","","","","","",""
"null","","html-keyboard-response","27","1689562","0.0-10.0-1.4","a","COGS219_2020_10","<p style=""font-size: 48px;"">+</p>","null","0","","","","","","",""
"1061.5900000000838","","image-keyboard-response","28","1690625","0.0-10.0-2.4","a","COGS219_2020_10","Images/frog_2.png","65","0","1581561938620","match","frog","frog","sound","practice","true"
"null","","audio-keyboard-response","29","1692634","0.0-10.0-3.4","a","COGS219_2020_10","Sounds/correct.wav","null","0","","","","","","",""
"null","","audio-keyboard-response","30","1693753","0.0-10.0-0.5","a","COGS219_2020_10","Sounds/motorcycle_label.wav","null","0","","","","","","",""
"null","","html-keyboard-response","31","1694746","0.0-10.0-1.5","a","COGS219_2020_10","<p style=""font-size: 48px;"">+</p>","null","0","","","","","","",""
"773.8850000000093","","image-keyboard-response","32","1695521","0.0-10.0-2.5","a","COGS219_2020_10","Images/dog_orig.png","76","0","1581561943803","non-match","dog","motorcycle","label","practice","true"
"null","","audio-keyboard-response","33","1697532","0.0-10.0-3.5","a","COGS219_2020_10","Sounds/correct.wav","null","0","","","","","","",""
"null","","audio-keyboard-response","34","1698653","0.0-10.0-0.6","a","COGS219_2020_10","Sounds/motorcycle_label.wav","null","0","","","","","","",""
"null","","html-keyboard-response","35","1699646","0.0-10.0-1.6","a","COGS219_2020_10","<p style=""font-size: 48px;"">+</p>","null","0","","","","","","",""
"833.839999999851","","image-keyboard-response","36","1700481","0.0-10.0-2.6","a","COGS219_2020_10","Images/motorcycle_2.png","65","0","1581561948703","match","motorcycle","motorcycle","label","practice","true"
"null","","audio-keyboard-response","37","1702485","0.0-10.0-3.6","a","COGS219_2020_10","Sounds/correct.wav","null","0","","","","","","",""
"null","","audio-keyboard-response","38","1703593","0.0-10.0-0.7","a","COGS219_2020_10","Sounds/motorcycle_label.wav","null","0","","","","","","",""
"null","","html-keyboard-response","39","1704596","0.0-10.0-1.7","a","COGS219_2020_10","<p style=""font-size: 48px;"">+</p>","null","0","","","","","","",""
"587.2450000003446","","image-keyboard-response","40","1705185","0.0-10.0-2.7","a","COGS219_2020_10","Images/whistle_1.png","76","0","1581561953653","non-match","whistle","motorcycle","label","practice","true"
"null","","audio-keyboard-response","41","1707200","0.0-10.0-3.7","a","COGS219_2020_10","Sounds/correct.wav","null","0","","","","","","",""
"null","","audio-keyboard-response","42","1707913","0.0-10.0-0.8","a","COGS219_2020_10","Sounds/dog_sound.wav","null","0","","","","","","",""
"null","","html-keyboard-response","43","1708913","0.0-10.0-1.8","a","COGS219_2020_10","<p style=""font-size: 48px;"">+</p>","null","0","","","","","","",""
"679.0200000000186","","image-keyboard-response","44","1709593","0.0-10.0-2.8","a","COGS219_2020_10","Images/dog_1.png","65","0","1581561957970","match","dog","dog","sound","practice","true"
"null","","audio-keyboard-response","45","1711601","0.0-10.0-3.8","a","COGS219_2020_10","Sounds/correct.wav","null","0","","","","","","",""
"null","","audio-keyboard-response","46","1712673","0.0-10.0-0.9","a","COGS219_2020_10","Sounds/car_sound.wav","null","0","","","","","","",""
"null","","html-keyboard-response","47","1713680","0.0-10.0-1.9","a","COGS219_2020_10","<p style=""font-size: 48px;"">+</p>","null","0","","","","","","",""
"2648.380000000121","","image-keyboard-response","48","1716329","0.0-10.0-2.9","a","COGS219_2020_10","Images/car_cartoon.png","76","0","1581561962737","match","car","car","sound","practice","false"
"null","","audio-keyboard-response","49","1718339","0.0-10.0-3.9","a","COGS219_2020_10","Sounds/incorrect.wav","null","0","","","","","","",""
"20101.959999999963","","html-keyboard-response","50","1738441","0.0-11.0","a","COGS219_2020_10","<p>The rest of the experiment is divided into five blocks with 100 trials in each block. It will take about 45 minutes to complete.</p><p>The experimenter will be in the outer room and you can communicate with them through the monitor if you have any questions or wish to stop the experiment.</p>","13","","","","","","","",""
"118.64500000001863","","html-keyboard-response","51","1738561","0.0-12.0","a","COGS219_2020_10","<p>Remember, please try not to move or blink your eyes during the presentation of the images. </p><p>At the end of the experiment, we will show you your scores on the task so you can see how you did.</p><p>The experiment will start on the next screen.</p>","32","","","","","","","",""
"null","","audio-keyboard-response","52","1741609","0.0-13.0-0.0","a","COGS219_2020_10","Sounds/cow_label.wav","null","1","","","","","","",""
"null","","html-keyboard-response","53","1742613","0.0-13.0-1.0","a","COGS219_2020_10","<p style=""font-size: 48px;"">+</p>","null","1","","","","","","",""
"1650.8400000000838","","image-keyboard-response","54","1744265","0.0-13.0-2.0","a","COGS219_2020_10","Images/dog_3.png","76","1","1581561991670","non-match","dog","cow","label","test","true"
"null","","audio-keyboard-response","55","1746271","0.0-13.0-3.0","a","COGS219_2020_10","Sounds/correct.wav","null","1","","","","","","",""
"null","","audio-keyboard-response","56","1747391","0.0-13.0-0.1","a","COGS219_2020_10","Sounds/motorcycle_sound.wav","null","1","","","","","","",""
"null","","html-keyboard-response","57","1748397","0.0-13.0-1.1","a","COGS219_2020_10","<p style=""font-size: 48px;"">+</p>","null","1","","","","","","",""
"1114.9099999999162","","image-keyboard-response","58","1749513","0.0-13.0-2.1","a","COGS219_2020_10","Images/frog_cartoon.png","76","1","1581561997454","non-match","frog","motorcycle","sound","test","true"
"null","","audio-keyboard-response","59","1751519","0.0-13.0-3.1","a","COGS219_2020_10","Sounds/correct.wav","null","1","","","","","","",""
"null","","audio-keyboard-response","60","1752590","0.0-13.0-0.2","a","COGS219_2020_10","Sounds/car_label.wav","null","1","","","","","","",""
"null","","html-keyboard-response","61","1753580","0.0-13.0-1.2","a","COGS219_2020_10","<p style=""font-size: 48px;"">+</p>","null","1","","","","","","",""
"907.8149999999441","","image-keyboard-response","62","1754489","0.0-13.0-2.2","a","COGS219_2020_10","Images/car_1.png","65","1","1581562002637","match","car","car","label","test","true"
"null","","audio-keyboard-response","63","1756507","0.0-13.0-3.2","a","COGS219_2020_10","Sounds/correct.wav","null","1","","","","","","",""
"null","","audio-keyboard-response","64","1757209","0.0-13.0-0.3","a","COGS219_2020_10","Sounds/rooster_sound.wav","null","1","","","","","","",""
"null","","html-keyboard-response","65","1758214","0.0-13.0-1.3","a","COGS219_2020_10","<p style=""font-size: 48px;"">+</p>","null","1","","","","","","",""
"866.3300000000745","","image-keyboard-response","66","1759081","0.0-13.0-2.3","a","COGS219_2020_10","Images/rooster_cartoon.png","65","1","1581562007271","match","rooster","rooster","sound","test","true"
"null","","audio-keyboard-response","67","1761085","0.0-13.0-3.3","a","COGS219_2020_10","Sounds/correct.wav","null","1","","","","","","",""
"null","","audio-keyboard-response","68","1761790","0.0-13.0-0.4","a","COGS219_2020_10","Sounds/whistle_sound.wav","null","1","","","","","","",""
"null","","html-keyboard-response","69","1762797","0.0-13.0-1.4","a","COGS219_2020_10","<p style=""font-size: 48px;"">+</p>","null","1","","","","","","",""
"1083.434999999823","","image-keyboard-response","70","1763881","0.0-13.0-2.4","a","COGS219_2020_10","Images/gun_orig.png","76","1","1581562011854","non-match","gun","whistle","sound","test","true"
"null","","audio-keyboard-response","71","1765889","0.0-13.0-3.4","a","COGS219_2020_10","Sounds/correct.wav","null","1","","","","","","",""
"null","","audio-keyboard-response","72","1766470","0.0-13.0-0.5","a","COGS219_2020_10","Sounds/gun_sound.wav","null","1","","","","","","",""
"null","","html-keyboard-response","73","1767464","0.0-13.0-1.5","a","COGS219_2020_10","<p style=""font-size: 48px;"">+</p>","null","1","","","","","","",""
"1760.4200000001583","","image-keyboard-response","74","1769225","0.0-13.0-2.5","a","COGS219_2020_10","Images/train_3.png","76","1","1581562016521","non-match","train","gun","sound","test","true"
"null","","audio-keyboard-response","75","1771236","0.0-13.0-3.5","a","COGS219_2020_10","Sounds/correct.wav","null","1","","","","","","",""
"null","","audio-keyboard-response","76","1772069","0.0-13.0-0.6","a","COGS219_2020_10","Sounds/cat_label.wav","null","1","","","","","","",""
"null","","html-keyboard-response","77","1773064","0.0-13.0-1.6","a","COGS219_2020_10","<p style=""font-size: 48px;"">+</p>","null","1","","","","","","",""
"632.5750000001863","","image-keyboard-response","78","1773697","0.0-13.0-2.6","a","COGS219_2020_10","Images/cat_orig.png","65","1","1581562022121","match","cat","cat","label","test","true"
"null","","audio-keyboard-response","79","1775703","0.0-13.0-3.6","a","COGS219_2020_10","Sounds/correct.wav","null","1","","","","","","",""
"null","","audio-keyboard-response","80","1776849","0.0-13.0-0.7","a","COGS219_2020_10","Sounds/motorcycle_label.wav","null","1","","","","","","",""
"null","","html-keyboard-response","81","1777847","0.0-13.0-1.7","a","COGS219_2020_10","<p style=""font-size: 48px;"">+</p>","null","1","","","","","","",""
"1137.2000000001863","","image-keyboard-response","82","1778985","0.0-13.0-2.7","a","COGS219_2020_10","Images/motorcycle_cartoon.png","65","1","1581562026904","match","motorcycle","motorcycle","label","test","true"
"null","","audio-keyboard-response","83","1781001","0.0-13.0-3.7","a","COGS219_2020_10","Sounds/correct.wav","null","1","","","","","","",""
"null","","audio-keyboard-response","84","1781670","0.0-13.0-0.8","a","COGS219_2020_10","Sounds/dog_label.wav","null","1","","","","","","",""
"null","","html-keyboard-response","85","1782664","0.0-13.0-1.8","a","COGS219_2020_10","<p style=""font-size: 48px;"">+</p>","null","1","","","","","","",""
"584.2599999997765","","image-keyboard-response","86","1783249","0.0-13.0-2.8","a","COGS219_2020_10","Images/dog_2.png","65","1","1581562031721","match","dog","dog","label","test","true"
"null","","audio-keyboard-response","87","1785252","0.0-13.0-3.8","a","COGS219_2020_10","Sounds/correct.wav","null","1","","","","","","",""
"null","","audio-keyboard-response","88","1785950","0.0-13.0-0.9","a","COGS219_2020_10","Sounds/rooster_label.wav","null","1","","","","","","",""
"null","","html-keyboard-response","89","1786947","0.0-13.0-1.9","a","COGS219_2020_10","<p style=""font-size: 48px;"">+</p>","null","1","","","","","","",""
"725.1599999999162","","image-keyboard-response","90","1787673","0.0-13.0-2.9","a","COGS219_2020_10","Images/dog_cartoon.png","76","1","1581562036004","non-match","dog","rooster","label","test","true"
"null","","audio-keyboard-response","91","1789688","0.0-13.0-3.9","a","COGS219_2020_10","Sounds/correct.wav","null","1","","","","","","",""
"null","","audio-keyboard-response","92","1790510","0.0-13.0-0.10","a","COGS219_2020_10","Sounds/cat_label.wav","null","1","","","","","","",""
"null","","html-keyboard-response","93","1791514","0.0-13.0-1.10","a","COGS219_2020_10","<p style=""font-size: 48px;"">+</p>","null","1","","","","","","",""
"646.285000000149","","image-keyboard-response","94","1792161","0.0-13.0-2.10","a","COGS219_2020_10","Images/motorcycle_cartoon.png","76","1","1581562040571","non-match","motorcycle","cat","label","test","true"
"null","","audio-keyboard-response","95","1794169","0.0-13.0-3.10","a","COGS219_2020_10","Sounds/correct.wav","null","1","","","","","","",""
"null","","audio-keyboard-response","96","1794850","0.0-13.0-0.11","a","COGS219_2020_10","Sounds/whistle_sound.wav","null","1","","","","","","",""
"null","","html-keyboard-response","97","1795847","0.0-13.0-1.11","a","COGS219_2020_10","<p style=""font-size: 48px;"">+</p>","null","1","","","","","","",""
"2424.8700000001118","","image-keyboard-response","98","1798273","0.0-13.0-2.11","a","COGS219_2020_10","Images/whistle_3.png","65","1","1581562044904","match","whistle","whistle","sound","test","true"
"null","","audio-keyboard-response","99","1800286","0.0-13.0-3.11","a","COGS219_2020_10","Sounds/correct.wav","null","1","","","","","","",""
"null","","audio-keyboard-response","100","1801090","0.0-13.0-0.12","a","COGS219_2020_10","Sounds/cat_label.wav","null","1","","","","","","",""
"null","","html-keyboard-response","101","1802081","0.0-13.0-1.12","a","COGS219_2020_10","<p style=""font-size: 48px;"">+</p>","null","1","","","","","","",""
"727.6549999997951","","image-keyboard-response","102","1802809","0.0-13.0-2.12","a","COGS219_2020_10","Images/cow_2.png","76","1","1581562051138","non-match","cow","cat","label","test","true"
"null","","audio-keyboard-response","103","1804822","0.0-13.0-3.12","a","COGS219_2020_10","Sounds/correct.wav","null","1","","","","","","",""
"null","","audio-keyboard-response","104","1805850","0.0-13.0-0.13","a","COGS219_2020_10","Sounds/cow_label.wav","null","1","","","","","","",""
"null","","html-keyboard-response","105","1806847","0.0-13.0-1.13","a","COGS219_2020_10","<p style=""font-size: 48px;"">+</p>","null","1","","","","","","",""
"873.9300000001676","","image-keyboard-response","106","1807722","0.0-13.0-2.13","a","COGS219_2020_10","Images/rooster_orig.png","65","1","1581562055905","non-match","rooster","cow","label","test","false"
"null","","audio-keyboard-response","107","1809734","0.0-13.0-3.13","a","COGS219_2020_10","Sounds/incorrect.wav","null","1","","","","","","",""
"null","","audio-keyboard-response","108","1810749","0.0-13.0-0.14","a","COGS219_2020_10","Sounds/cow_sound.wav","null","1","","","","","","",""
"null","","html-keyboard-response","109","1811747","0.0-13.0-1.14","a","COGS219_2020_10","<p style=""font-size: 48px;"">+</p>","null","1","","","","","","",""
"1020.7099999999627","","image-keyboard-response","110","1812769","0.0-13.0-2.14","a","COGS219_2020_10","Images/cat_orig.png","76","1","1581562060804","non-match","cat","cow","sound","test","true"
"null","","audio-keyboard-response","111","1814773","0.0-13.0-3.14","a","COGS219_2020_10","Sounds/correct.wav","null","1","","","","","","",""
"null","","audio-keyboard-response","112","1815429","0.0-13.0-0.15","a","COGS219_2020_10","Sounds/dog_label.wav","null","1","","","","","","",""
"null","","html-keyboard-response","113","1816464","0.0-13.0-1.15","a","COGS219_2020_10","<p style=""font-size: 48px;"">+</p>","null","1","","","","","","",""
"704.0799999998417","","image-keyboard-response","114","1817169","0.0-13.0-2.15","a","COGS219_2020_10","Images/dog_1.png","65","1","1581562065521","match","dog","dog","label","test","true"
"null","","audio-keyboard-response","115","1819185","0.0-13.0-3.15","a","COGS219_2020_10","Sounds/correct.wav","null","1","","","","","","",""
"null","","audio-keyboard-response","116","1819889","0.0-13.0-0.16","a","COGS219_2020_10","Sounds/rooster_label.wav","null","1","","","","","","",""
"null","","html-keyboard-response","117","1820881","0.0-13.0-1.16","a","COGS219_2020_10","<p style=""font-size: 48px;"">+</p>","null","1","","","","","","",""
"919.4200000001583","","image-keyboard-response","118","1821801","0.0-13.0-2.16","a","COGS219_2020_10","Images/rooster_1.png","65","1","1581562069938","match","rooster","rooster","label","test","true"
"null","","audio-keyboard-response","119","1823818","0.0-13.0-3.16","a","COGS219_2020_10","Sounds/correct.wav","null","1","","","","","","",""
"null","","audio-keyboard-response","120","1824729","0.0-13.0-0.17","a","COGS219_2020_10","Sounds/frog_sound.wav","null","1","","","","","","",""
"null","","html-keyboard-response","121","1825747","0.0-13.0-1.17","a","COGS219_2020_10","<p style=""font-size: 48px;"">+</p>","null","1","","","","","","",""
"636.5","","image-keyboard-response","122","1826385","0.0-13.0-2.17","a","COGS219_2020_10","Images/frog_2.png","65","1","1581562074805","match","frog","frog","sound","test","true"
"null","","audio-keyboard-response","123","1828402","0.0-13.0-3.17","a","COGS219_2020_10","Sounds/correct.wav","null","1","","","","","","",""
"null","","audio-keyboard-response","124","1829529","0.0-13.0-0.18","a","COGS219_2020_10","Sounds/motorcycle_sound.wav","null","1","","","","","","",""
"null","","html-keyboard-response","125","1830547","0.0-13.0-1.18","a","COGS219_2020_10","<p style=""font-size: 48px;"">+</p>","null","1","","","","","","",""
"1404.719999999972","","image-keyboard-response","126","1831953","0.0-13.0-2.18","a","COGS219_2020_10","Images/train_1.png","76","1","1581562079605","non-match","train","motorcycle","sound","test","true"
"null","","audio-keyboard-response","127","1833971","0.0-13.0-3.18","a","COGS219_2020_10","Sounds/correct.wav","null","1","","","","","","",""
"null","","audio-keyboard-response","128","1834549","0.0-13.0-0.19","a","COGS219_2020_10","Sounds/gun_sound.wav","null","1","","","","","","",""
"null","","html-keyboard-response","129","1835548","0.0-13.0-1.19","a","COGS219_2020_10","<p style=""font-size: 48px;"">+</p>","null","1","","","","","","",""
"660.4249999998137","","image-keyboard-response","130","1836209","0.0-13.0-2.19","a","COGS219_2020_10","Images/whistle_1.png","76","1","1581562084605","non-match","whistle","gun","sound","test","true"
"null","","audio-keyboard-response","131","1838217","0.0-13.0-3.19","a","COGS219_2020_10","Sounds/correct.wav","null","1","","","","","","",""
"null","","audio-keyboard-response","132","1838909","0.0-13.0-0.20","a","COGS219_2020_10","Sounds/whistle_label.wav","null","1","","","","","","",""
"null","","html-keyboard-response","133","1839898","0.0-13.0-1.20","a","COGS219_2020_10","<p style=""font-size: 48px;"">+</p>","null","1","","","","","","",""
"598.2899999998044","","image-keyboard-response","134","1840497","0.0-13.0-2.20","a","COGS219_2020_10","Images/whistle_1.png","65","1","1581562088955","match","whistle","whistle","label","test","true"
"null","","audio-keyboard-response","135","1842503","0.0-13.0-3.20","a","COGS219_2020_10","Sounds/correct.wav","null","1","","","","","","",""
"null","","audio-keyboard-response","136","1843349","0.0-13.0-0.21","a","COGS219_2020_10","Sounds/cat_label.wav","null","1","","","","","","",""
"null","","html-keyboard-response","137","1844348","0.0-13.0-1.21","a","COGS219_2020_10","<p style=""font-size: 48px;"">+</p>","null","1","","","","","","",""
"780.6550000000279","","image-keyboard-response","138","1845129","0.0-13.0-2.21","a","COGS219_2020_10","Images/dog_2.png","76","1","1581562093405","non-match","dog","cat","label","test","true"
"null","","audio-keyboard-response","139","1847139","0.0-13.0-3.21","a","COGS219_2020_10","Sounds/correct.wav","null","1","","","","","","",""
"null","","audio-keyboard-response","140","1848029","0.0-13.0-0.22","a","COGS219_2020_10","Sounds/frog_label.wav","null","1","","","","","","",""
"null","","html-keyboard-response","141","1849048","0.0-13.0-1.22","a","COGS219_2020_10","<p style=""font-size: 48px;"">+</p>","null","1","","","","","","",""
"3232.3000000000466","","image-keyboard-response","142","1852281","0.0-13.0-2.22","a","COGS219_2020_10","Images/frog_3.png","65","1","1581562098105","match","frog","frog","label","test","true"
"null","","audio-keyboard-response","143","1854288","0.0-13.0-3.22","a","COGS219_2020_10","Sounds/correct.wav","null","1","","","","","","",""
"null","","audio-keyboard-response","144","1855589","0.0-13.0-0.23","a","COGS219_2020_10","Sounds/train_sound.wav","null","1","","","","","","",""
"null","","html-keyboard-response","145","1856581","0.0-13.0-1.23","a","COGS219_2020_10","<p style=""font-size: 48px;"">+</p>","null","1","","","","","","",""
"699.1350000000093","","image-keyboard-response","146","1857281","0.0-13.0-2.23","a","COGS219_2020_10","Images/dog_orig.png","76","1","1581562105638","non-match","dog","train","sound","test","true"
"null","","audio-keyboard-response","147","1859286","0.0-13.0-3.23","a","COGS219_2020_10","Sounds/correct.wav","null","1","","","","","","",""
"null","","audio-keyboard-response","148","1860309","0.0-13.0-0.24","a","COGS219_2020_10","Sounds/cow_label.wav","null","1","","","","","","",""
"null","","html-keyboard-response","149","1861315","0.0-13.0-1.24","a","COGS219_2020_10","<p style=""font-size: 48px;"">+</p>","null","1","","","","","","",""
"589.4499999999534","","image-keyboard-response","150","1861905","0.0-13.0-2.24","a","COGS219_2020_10","Images/cow_1.png","65","1","1581562110372","match","cow","cow","label","test","true"
"null","","audio-keyboard-response","151","1863919","0.0-13.0-3.24","a","COGS219_2020_10","Sounds/correct.wav","null","1","","","","","","",""
"null","","audio-keyboard-response","152","1864989","0.0-13.0-0.25","a","COGS219_2020_10","Sounds/car_label.wav","null","1","","","","","","",""
"null","","html-keyboard-response","153","1865981","0.0-13.0-1.25","a","COGS219_2020_10","<p style=""font-size: 48px;"">+</p>","null","1","","","","","","",""
"594.9050000002608","","image-keyboard-response","154","1866577","0.0-13.0-2.25","a","COGS219_2020_10","Images/frog_2.png","76","1","1581562115038","non-match","frog","car","label","test","true"
"null","","audio-keyboard-response","155","1868586","0.0-13.0-3.25","a","COGS219_2020_10","Sounds/correct.wav","null","1","","","","","","",""
"null","","audio-keyboard-response","156","1869869","0.0-13.0-0.26","a","COGS219_2020_10","Sounds/train_label.wav","null","1","","","","","","",""
"null","","html-keyboard-response","157","1870864","0.0-13.0-1.26","a","COGS219_2020_10","<p style=""font-size: 48px;"">+</p>","null","1","","","","","","",""
"718.4700000002049","","image-keyboard-response","158","1871585","0.0-13.0-2.26","a","COGS219_2020_10","Images/train_3.png","65","1","1581562119921","match","train","train","label","test","true"
"null","","audio-keyboard-response","159","1873601","0.0-13.0-3.26","a","COGS219_2020_10","Sounds/correct.wav","null","1","","","","","","",""
"null","","audio-keyboard-response","160","1874309","0.0-13.0-0.27","a","COGS219_2020_10","Sounds/whistle_sound.wav","null","1","","","","","","",""
"null","","html-keyboard-response","161","1875298","0.0-13.0-1.27","a","COGS219_2020_10","<p style=""font-size: 48px;"">+</p>","null","1","","","","","","",""
"773.9549999998417","","image-keyboard-response","162","1876073","0.0-13.0-2.27","a","COGS219_2020_10","Images/cat_3.png","76","1","1581562124355","non-match","cat","whistle","sound","test","true"
"null","","audio-keyboard-response","163","1878085","0.0-13.0-3.27","a","COGS219_2020_10","Sounds/correct.wav","null","1","","","","","","",""
"null","","audio-keyboard-response","164","1878789","0.0-13.0-0.28","a","COGS219_2020_10","Sounds/rooster_sound.wav","null","1","","","","","","",""
"null","","html-keyboard-response","165","1879781","0.0-13.0-1.28","a","COGS219_2020_10","<p style=""font-size: 48px;"">+</p>","null","1","","","","","","",""
"1154.7250000000931","","image-keyboard-response","166","1880937","0.0-13.0-2.28","a","COGS219_2020_10","Images/rooster_3.png","65","1","1581562128838","match","rooster","rooster","sound","test","true"
"null","","audio-keyboard-response","167","1882941","0.0-13.0-3.28","a","COGS219_2020_10","Sounds/correct.wav","null","1","","","","","","",""
"null","","audio-keyboard-response","168","1884069","0.0-13.0-0.29","a","COGS219_2020_10","Sounds/motorcycle_sound.wav","null","1","","","","","","",""
"null","","html-keyboard-response","169","1885064","0.0-13.0-1.29","a","COGS219_2020_10","<p style=""font-size: 48px;"">+</p>","null","1","","","","","","",""
"871.5600000000559","","image-keyboard-response","170","1885937","0.0-13.0-2.29","a","COGS219_2020_10","Images/motorcycle_2.png","76","1","1581562134121","match","motorcycle","motorcycle","sound","test","false"
"null","","audio-keyboard-response","171","1887952","0.0-13.0-3.29","a","COGS219_2020_10","Sounds/incorrect.wav","null","1","","","","","","",""
"null","","audio-keyboard-response","172","1888789","0.0-13.0-0.30","a","COGS219_2020_10","Sounds/cat_label.wav","null","1","","","","","","",""
"null","","html-keyboard-response","173","1889781","0.0-13.0-1.30","a","COGS219_2020_10","<p style=""font-size: 48px;"">+</p>","null","1","","","","","","",""
"754.6999999999534","","image-keyboard-response","174","1890537","0.0-13.0-2.30","a","COGS219_2020_10","Images/cat_1.png","65","1","1581562138838","match","cat","cat","label","test","true"
"null","","audio-keyboard-response","175","1892554","0.0-13.0-3.30","a","COGS219_2020_10","Sounds/correct.wav","null","1","","","","","","",""
"null","","audio-keyboard-response","176","1893249","0.0-13.0-0.31","a","COGS219_2020_10","Sounds/whistle_label.wav","null","1","","","","","","",""
"null","","html-keyboard-response","177","1894248","0.0-13.0-1.31","a","COGS219_2020_10","<p style=""font-size: 48px;"">+</p>","null","1","","","","","","",""
"1023.8449999999721","","image-keyboard-response","178","1895273","0.0-13.0-2.31","a","COGS219_2020_10","Images/train_cartoon.png","76","1","1581562143305","non-match","train","whistle","label","test","true"
"null","","audio-keyboard-response","179","1897284","0.0-13.0-3.31","a","COGS219_2020_10","Sounds/correct.wav","null","1","","","","","","",""
"null","","audio-keyboard-response","180","1897989","0.0-13.0-0.32","a","COGS219_2020_10","Sounds/rooster_label.wav","null","1","","","","","","",""
"null","","html-keyboard-response","181","1898981","0.0-13.0-1.32","a","COGS219_2020_10","<p style=""font-size: 48px;"">+</p>","null","1","","","","","","",""
"834.8349999999627","","image-keyboard-response","182","1899817","0.0-13.0-2.32","a","COGS219_2020_10","Images/train_orig.png","76","1","1581562148038","non-match","train","rooster","label","test","true"
"null","","audio-keyboard-response","183","1901820","0.0-13.0-3.32","a","COGS219_2020_10","Sounds/correct.wav","null","1","","","","","","",""
"null","","audio-keyboard-response","184","1902729","0.0-13.0-0.33","a","COGS219_2020_10","Sounds/frog_label.wav","null","1","","","","","","",""
"null","","html-keyboard-response","185","1903731","0.0-13.0-1.33","a","COGS219_2020_10","<p style=""font-size: 48px;"">+</p>","null","1","","","","","","",""
"732.4350000002887","","image-keyboard-response","186","1904465","0.0-13.0-2.33","a","COGS219_2020_10","Images/cow_orig.png","76","1","1581562152789","non-match","cow","frog","label","test","true"
"null","","audio-keyboard-response","187","1906470","0.0-13.0-3.33","a","COGS219_2020_10","Sounds/correct.wav","null","1","","","","","","",""
"null","","audio-keyboard-response","188","1907169","0.0-13.0-0.34","a","COGS219_2020_10","Sounds/rooster_sound.wav","null","1","","","","","","",""
"null","","html-keyboard-response","189","1908165","0.0-13.0-1.34","a","COGS219_2020_10","<p style=""font-size: 48px;"">+</p>","null","1","","","","","","",""
"4483.415000000037","","image-keyboard-response","190","1912649","0.0-13.0-2.34","a","COGS219_2020_10","Images/rooster_2.png","65","1","1581562157222","match","rooster","rooster","sound","test","true"
"null","","audio-keyboard-response","191","1914657","0.0-13.0-3.34","a","COGS219_2020_10","Sounds/correct.wav","null","1","","","","","","",""
"null","","audio-keyboard-response","192","1915949","0.0-13.0-0.35","a","COGS219_2020_10","Sounds/train_sound.wav","null","1","","","","","","",""
"null","","html-keyboard-response","193","1916948","0.0-13.0-1.35","a","COGS219_2020_10","<p style=""font-size: 48px;"">+</p>","null","1","","","","","","",""
"835.4749999998603","","image-keyboard-response","194","1917785","0.0-13.0-2.35","a","COGS219_2020_10","Images/frog_3.png","76","1","1581562166005","non-match","frog","train","sound","test","true"
"null","","audio-keyboard-response","195","1919787","0.0-13.0-3.35","a","COGS219_2020_10","Sounds/correct.wav","null","1","","","","","","",""
"null","","audio-keyboard-response","196","1921069","0.0-13.0-0.36","a","COGS219_2020_10","Sounds/train_label.wav","null","1","","","","","","",""
"null","","html-keyboard-response","197","1922065","0.0-13.0-1.36","a","COGS219_2020_10","<p style=""font-size: 48px;"">+</p>","null","1","","","","","","",""
"983.0200000002515","","image-keyboard-response","198","1923049","0.0-13.0-2.36","a","COGS219_2020_10","Images/train_1.png","65","1","1581562171122","match","train","train","label","test","true"
"null","","audio-keyboard-response","199","1925053","0.0-13.0-3.36","a","COGS219_2020_10","Sounds/correct.wav","null","1","","","","","","",""
"null","","audio-keyboard-response","200","1925889","0.0-13.0-0.37","a","COGS219_2020_10","Sounds/cat_label.wav","null","1","","","","","","",""
"null","","html-keyboard-response","201","1926881","0.0-13.0-1.37","a","COGS219_2020_10","<p style=""font-size: 48px;"">+</p>","null","1","","","","","","",""
"542.2800000000279","","image-keyboard-response","202","1927425","0.0-13.0-2.37","a","COGS219_2020_10","Images/frog_1.png","76","1","1581562175939","non-match","frog","cat","label","test","true"
"null","","audio-keyboard-response","203","1929429","0.0-13.0-3.37","a","COGS219_2020_10","Sounds/correct.wav","null","1","","","","","","",""
"null","","audio-keyboard-response","204","1930329","0.0-13.0-0.38","a","COGS219_2020_10","Sounds/frog_label.wav","null","1","","","","","","",""
"null","","html-keyboard-response","205","1931332","0.0-13.0-1.38","a","COGS219_2020_10","<p style=""font-size: 48px;"">+</p>","null","1","","","","","","",""
"812.1350000000093","","image-keyboard-response","206","1932145","0.0-13.0-2.38","a","COGS219_2020_10","Images/car_2.png","76","1","1581562180389","non-match","car","frog","label","test","true"
"null","","audio-keyboard-response","207","1934154","0.0-13.0-3.38","a","COGS219_2020_10","Sounds/correct.wav","null","1","","","","","","",""
"null","","audio-keyboard-response","208","1935169","0.0-13.0-0.39","a","COGS219_2020_10","Sounds/cow_sound.wav","null","1","","","","","","",""
"null","","html-keyboard-response","209","1936165","0.0-13.0-1.39","a","COGS219_2020_10","<p style=""font-size: 48px;"">+</p>","null","1","","","","","","",""
"2315.20999999973","","image-keyboard-response","210","1938481","0.0-13.0-2.39","a","COGS219_2020_10","Images/cow_3.png","76","1","1581562185222","match","cow","cow","sound","test","false"
"null","","audio-keyboard-response","211","1940493","0.0-13.0-3.39","a","COGS219_2020_10","Sounds/incorrect.wav","null","1","","","","","","",""
"null","","audio-keyboard-response","212","1941609","0.0-13.0-0.40","a","COGS219_2020_10","Sounds/motorcycle_sound.wav","null","1","","","","","","",""
"null","","html-keyboard-response","213","1942615","0.0-13.0-1.40","a","COGS219_2020_10","<p style=""font-size: 48px;"">+</p>","null","1","","","","","","",""
"632.589999999851","","image-keyboard-response","214","1943249","0.0-13.0-2.40","a","COGS219_2020_10","Images/whistle_2.png","76","1","1581562191672","non-match","whistle","motorcycle","sound","test","true"
"null","","audio-keyboard-response","215","1945255","0.0-13.0-3.40","a","COGS219_2020_10","Sounds/correct.wav","null","1","","","","","","",""
"null","","audio-keyboard-response","216","1946529","0.0-13.0-0.41","a","COGS219_2020_10","Sounds/train_label.wav","null","1","","","","","","",""
"null","","html-keyboard-response","217","1947532","0.0-13.0-1.41","a","COGS219_2020_10","<p style=""font-size: 48px;"">+</p>","null","1","","","","","","",""
"1340.255000000121","","image-keyboard-response","218","1948873","0.0-13.0-2.41","a","COGS219_2020_10","Images/car_3.png","76","1","1581562196589","non-match","car","train","label","test","true"
"null","","audio-keyboard-response","219","1950890","0.0-13.0-3.41","a","COGS219_2020_10","Sounds/correct.wav","null","1","","","","","","",""
"null","","audio-keyboard-response","220","1951969","0.0-13.0-0.42","a","COGS219_2020_10","Sounds/car_sound.wav","null","1","","","","","","",""
"null","","html-keyboard-response","221","1952965","0.0-13.0-1.42","a","COGS219_2020_10","<p style=""font-size: 48px;"">+</p>","null","1","","","","","","",""
"538.5900000000838","","image-keyboard-response","222","1953505","0.0-13.0-2.42","a","COGS219_2020_10","Images/car_orig.png","65","1","1581562202022","match","car","car","sound","test","true"
"null","","audio-keyboard-response","223","1955519","0.0-13.0-3.42","a","COGS219_2020_10","Sounds/correct.wav","null","1","","","","","","",""
"null","","audio-keyboard-response","224","1956569","0.0-13.0-0.43","a","COGS219_2020_10","Sounds/car_sound.wav","null","1","","","","","","",""
"null","","html-keyboard-response","225","1957565","0.0-13.0-1.43","a","COGS219_2020_10","<p style=""font-size: 48px;"">+</p>","null","1","","","","","","",""
"634.6199999998789","","image-keyboard-response","226","1958201","0.0-13.0-2.43","a","COGS219_2020_10","Images/car_3.png","65","1","1581562206622","match","car","car","sound","test","true"
"null","","audio-keyboard-response","227","1960204","0.0-13.0-3.43","a","COGS219_2020_10","Sounds/correct.wav","null","1","","","","","","",""
"null","","audio-keyboard-response","228","1960909","0.0-13.0-0.44","a","COGS219_2020_10","Sounds/whistle_sound.wav","null","1","","","","","","",""
"null","","html-keyboard-response","229","1961899","0.0-13.0-1.44","a","COGS219_2020_10","<p style=""font-size: 48px;"">+</p>","null","1","","","","","","",""
"1213.355000000447","","image-keyboard-response","230","1963113","0.0-13.0-2.44","a","COGS219_2020_10","Images/dog_1.png","76","1","1581562210956","non-match","dog","whistle","sound","test","true"
"null","","audio-keyboard-response","231","1965128","0.0-13.0-3.44","a","COGS219_2020_10","Sounds/correct.wav","null","1","","","","","","",""
"null","","audio-keyboard-response","232","1966209","0.0-13.0-0.45","a","COGS219_2020_10","Sounds/car_label.wav","null","1","","","","","","",""
"null","","html-keyboard-response","233","1967215","0.0-13.0-1.45","a","COGS219_2020_10","<p style=""font-size: 48px;"">+</p>","null","1","","","","","","",""
"1184.1650000000373","","image-keyboard-response","234","1968401","0.0-13.0-2.45","a","COGS219_2020_10","Images/train_2.png","76","1","1581562216272","non-match","train","car","label","test","true"
"null","","audio-keyboard-response","235","1970405","0.0-13.0-3.45","a","COGS219_2020_10","Sounds/correct.wav","null","1","","","","","","",""
"null","","audio-keyboard-response","236","1971449","0.0-13.0-0.46","a","COGS219_2020_10","Sounds/car_label.wav","null","1","","","","","","",""
"null","","html-keyboard-response","237","1972449","0.0-13.0-1.46","a","COGS219_2020_10","<p style=""font-size: 48px;"">+</p>","null","1","","","","","","",""
"983.3699999998789","","image-keyboard-response","238","1973433","0.0-13.0-2.46","a","COGS219_2020_10","Images/cow_1.png","76","1","1581562221506","non-match","cow","car","label","test","true"
"null","","audio-keyboard-response","239","1975439","0.0-13.0-3.46","a","COGS219_2020_10","Sounds/correct.wav","null","1","","","","","","",""
"null","","audio-keyboard-response","240","1976029","0.0-13.0-0.47","a","COGS219_2020_10","Sounds/gun_label.wav","null","1","","","","","","",""
"null","","html-keyboard-response","241","1977032","0.0-13.0-1.47","a","COGS219_2020_10","<p style=""font-size: 48px;"">+</p>","null","1","","","","","","",""
"791.6849999995902","","image-keyboard-response","242","1977825","0.0-13.0-2.47","a","COGS219_2020_10","Images/gun_3.png","65","1","1581562226089","match","gun","gun","label","test","true"
"null","","audio-keyboard-response","243","1979835","0.0-13.0-3.47","a","COGS219_2020_10","Sounds/correct.wav","null","1","","","","","","",""
"null","","audio-keyboard-response","244","1981129","0.0-13.0-0.48","a","COGS219_2020_10","Sounds/train_sound.wav","null","1","","","","","","",""
"null","","html-keyboard-response","245","1982132","0.0-13.0-1.48","a","COGS219_2020_10","<p style=""font-size: 48px;"">+</p>","null","1","","","","","","",""
"1900.0100000000093","","image-keyboard-response","246","1984033","0.0-13.0-2.48","a","COGS219_2020_10","Images/train_cartoon.png","65","1","1581562231189","match","train","train","sound","test","true"
"null","","audio-keyboard-response","247","1986038","0.0-13.0-3.48","a","COGS219_2020_10","Sounds/correct.wav","null","1","","","","","","",""
"null","","audio-keyboard-response","248","1986729","0.0-13.0-0.49","a","COGS219_2020_10","Sounds/rooster_sound.wav","null","1","","","","","","",""
"null","","html-keyboard-response","249","1987732","0.0-13.0-1.49","a","COGS219_2020_10","<p style=""font-size: 48px;"">+</p>","null","1","","","","","","",""
"835.6499999999069","","image-keyboard-response","250","1988569","0.0-13.0-2.49","a","COGS219_2020_10","Images/gun_cartoon.png","76","1","1581562236789","non-match","gun","rooster","sound","test","true"
"null","","audio-keyboard-response","251","1990571","0.0-13.0-3.49","a","COGS219_2020_10","Sounds/correct.wav","null","1","","","","","","",""
"null","","audio-keyboard-response","252","1991148","0.0-13.0-0.50","a","COGS219_2020_10","Sounds/gun_sound.wav","null","1","","","","","","",""
"null","","html-keyboard-response","253","1992148","0.0-13.0-1.50","a","COGS219_2020_10","<p style=""font-size: 48px;"">+</p>","null","1","","","","","","",""
"2779.1400000001304","","image-keyboard-response","254","1994928","0.0-13.0-2.50","a","COGS219_2020_10","Images/gun_1.png","65","1","1581562241205","match","gun","gun","sound","test","true"
"null","","audio-keyboard-response","255","1996942","0.0-13.0-3.50","a","COGS219_2020_10","Sounds/correct.wav","null","1","","","","","","",""
"null","","audio-keyboard-response","256","1997788","0.0-13.0-0.51","a","COGS219_2020_10","Sounds/cat_sound.wav","null","1","","","","","","",""
"null","","html-keyboard-response","257","1998782","0.0-13.0-1.51","a","COGS219_2020_10","<p style=""font-size: 48px;"">+</p>","null","1","","","","","","",""
"2033.3949999997858","","image-keyboard-response","258","2000816","0.0-13.0-2.51","a","COGS219_2020_10","Images/cat_cartoon.png","65","1","1581562247839","match","cat","cat","sound","test","true"
"null","","audio-keyboard-response","259","2002821","0.0-13.0-3.51","a","COGS219_2020_10","Sounds/correct.wav","null","1","","","","","","",""
"null","","audio-keyboard-response","260","2003489","0.0-13.0-0.52","a","COGS219_2020_10","Sounds/dog_label.wav","null","1","","","","","","",""
"null","","html-keyboard-response","261","2004482","0.0-13.0-1.52","a","COGS219_2020_10","<p style=""font-size: 48px;"">+</p>","null","1","","","","","","",""
"821.5150000001304","","image-keyboard-response","262","2005304","0.0-13.0-2.52","a","COGS219_2020_10","Images/car_cartoon.png","76","1","1581562253539","non-match","car","dog","label","test","true"
"null","","audio-keyboard-response","263","2007309","0.0-13.0-3.52","a","COGS219_2020_10","Sounds/correct.wav","null","1","","","","","","",""
"null","","audio-keyboard-response","264","2008308","0.0-13.0-0.53","a","COGS219_2020_10","Sounds/cow_label.wav","null","1","","","","","","",""
"null","","html-keyboard-response","265","2009298","0.0-13.0-1.53","a","COGS219_2020_10","<p style=""font-size: 48px;"">+</p>","null","1","","","","","","",""
"724.5750000001863","","image-keyboard-response","266","2010024","0.0-13.0-2.53","a","COGS219_2020_10","Images/frog_orig.png","76","1","1581562258355","non-match","frog","cow","label","test","true"
"null","","audio-keyboard-response","267","2012035","0.0-13.0-3.53","a","COGS219_2020_10","Sounds/correct.wav","null","1","","","","","","",""
"null","","audio-keyboard-response","268","2012748","0.0-13.0-0.54","a","COGS219_2020_10","Sounds/dog_sound.wav","null","1","","","","","","",""
"null","","html-keyboard-response","269","2013748","0.0-13.0-1.54","a","COGS219_2020_10","<p style=""font-size: 48px;"">+</p>","null","1","","","","","","",""
"1146.5949999997392","","image-keyboard-response","270","2014896","0.0-13.0-2.54","a","COGS219_2020_10","Images/cat_1.png","76","1","1581562262806","non-match","cat","dog","sound","test","true"
"null","","audio-keyboard-response","271","2016903","0.0-13.0-3.54","a","COGS219_2020_10","Sounds/correct.wav","null","1","","","","","","",""
"null","","audio-keyboard-response","272","2017488","0.0-13.0-0.55","a","COGS219_2020_10","Sounds/gun_sound.wav","null","1","","","","","","",""
"null","","html-keyboard-response","273","2018482","0.0-13.0-1.55","a","COGS219_2020_10","<p style=""font-size: 48px;"">+</p>","null","1","","","","","","",""
"981.5849999999627","","image-keyboard-response","274","2019464","0.0-13.0-2.55","a","COGS219_2020_10","Images/motorcycle_3.png","76","1","1581562267539","non-match","motorcycle","gun","sound","test","true"
"null","","audio-keyboard-response","275","2021470","0.0-13.0-3.55","a","COGS219_2020_10","Sounds/correct.wav","null","1","","","","","","",""
"null","","audio-keyboard-response","276","2022048","0.0-13.0-0.56","a","COGS219_2020_10","Sounds/gun_label.wav","null","1","","","","","","",""
"null","","html-keyboard-response","277","2023048","0.0-13.0-1.56","a","COGS219_2020_10","<p style=""font-size: 48px;"">+</p>","null","1","","","","","","",""
"966.7450000001118","","image-keyboard-response","278","2024016","0.0-13.0-2.56","a","COGS219_2020_10","Images/gun_orig.png","65","1","1581562272106","match","gun","gun","label","test","true"
"null","","audio-keyboard-response","279","2026020","0.0-13.0-3.56","a","COGS219_2020_10","Sounds/correct.wav","null","1","","","","","","",""
"null","","audio-keyboard-response","280","2026708","0.0-13.0-0.57","a","COGS219_2020_10","Sounds/whistle_label.wav","null","1","","","","","","",""
"null","","html-keyboard-response","281","2027698","0.0-13.0-1.57","a","COGS219_2020_10","<p style=""font-size: 48px;"">+</p>","null","1","","","","","","",""
"660.5949999999721","","image-keyboard-response","282","2028360","0.0-13.0-2.57","a","COGS219_2020_10","Images/whistle_cartoon.png","76","1","1581562276756","match","whistle","whistle","label","test","false"
"null","","audio-keyboard-response","283","2030369","0.0-13.0-3.57","a","COGS219_2020_10","Sounds/incorrect.wav","null","1","","","","","","",""
"null","","audio-keyboard-response","284","2031449","0.0-13.0-0.58","a","COGS219_2020_10","Sounds/car_sound.wav","null","1","","","","","","",""
"null","","html-keyboard-response","285","2032449","0.0-13.0-1.58","a","COGS219_2020_10","<p style=""font-size: 48px;"">+</p>","null","1","","","","","","",""
"692.9599999997299","","image-keyboard-response","286","2033144","0.0-13.0-2.58","a","COGS219_2020_10","Images/cat_cartoon.png","76","1","1581562281506","non-match","cat","car","sound","test","true"
"null","","audio-keyboard-response","287","2035154","0.0-13.0-3.58","a","COGS219_2020_10","Sounds/correct.wav","null","1","","","","","","",""
"null","","audio-keyboard-response","288","2035869","0.0-13.0-0.59","a","COGS219_2020_10","Sounds/dog_sound.wav","null","1","","","","","","",""
"null","","html-keyboard-response","289","2036865","0.0-13.0-1.59","a","COGS219_2020_10","<p style=""font-size: 48px;"">+</p>","null","1","","","","","","",""
"981.9900000002235","","image-keyboard-response","290","2037848","0.0-13.0-2.59","a","COGS219_2020_10","Images/dog_cartoon.png","65","1","1581562285922","match","dog","dog","sound","test","true"
"null","","audio-keyboard-response","291","2039857","0.0-13.0-3.59","a","COGS219_2020_10","Sounds/correct.wav","null","1","","","","","","",""
"null","","audio-keyboard-response","292","2040768","0.0-13.0-0.60","a","COGS219_2020_10","Sounds/frog_sound.wav","null","1","","","","","","",""
"null","","html-keyboard-response","293","2041765","0.0-13.0-1.60","a","COGS219_2020_10","<p style=""font-size: 48px;"">+</p>","null","1","","","","","","",""
"1433.7399999997579","","image-keyboard-response","294","2043200","0.0-13.0-2.60","a","COGS219_2020_10","Images/frog_orig.png","65","1","1581562290822","match","frog","frog","sound","test","true"
"null","","audio-keyboard-response","295","2045207","0.0-13.0-3.60","a","COGS219_2020_10","Sounds/correct.wav","null","1","","","","","","",""
"null","","audio-keyboard-response","296","2045908","0.0-13.0-0.61","a","COGS219_2020_10","Sounds/rooster_sound.wav","null","1","","","","","","",""
"null","","html-keyboard-response","297","2046899","0.0-13.0-1.61","a","COGS219_2020_10","<p style=""font-size: 48px;"">+</p>","null","1","","","","","","",""
"548.4300000001676","","image-keyboard-response","298","2047448","0.0-13.0-2.61","a","COGS219_2020_10","Images/rooster_orig.png","65","1","1581562295956","match","rooster","rooster","sound","test","true"
"null","","audio-keyboard-response","299","2049455","0.0-13.0-3.61","a","COGS219_2020_10","Sounds/correct.wav","null","1","","","","","","",""
"null","","audio-keyboard-response","300","2050148","0.0-13.0-0.62","a","COGS219_2020_10","Sounds/rooster_label.wav","null","1","","","","","","",""
"null","","html-keyboard-response","301","2051149","0.0-13.0-1.62","a","COGS219_2020_10","<p style=""font-size: 48px;"">+</p>","null","1","","","","","","",""
"794.1350000000093","","image-keyboard-response","302","2051944","0.0-13.0-2.62","a","COGS219_2020_10","Images/whistle_3.png","76","1","1581562300206","non-match","whistle","rooster","label","test","true"
"null","","audio-keyboard-response","303","2053956","0.0-13.0-3.62","a","COGS219_2020_10","Sounds/correct.wav","null","1","","","","","","",""
"null","","audio-keyboard-response","304","2054528","0.0-13.0-0.63","a","COGS219_2020_10","Sounds/gun_sound.wav","null","1","","","","","","",""
"null","","html-keyboard-response","305","2055532","0.0-13.0-1.63","a","COGS219_2020_10","<p style=""font-size: 48px;"">+</p>","null","1","","","","","","",""
"811.195000000298","","image-keyboard-response","306","2056344","0.0-13.0-2.63","a","COGS219_2020_10","Images/cat_2.png","76","1","1581562304590","non-match","cat","gun","sound","test","true"
"null","","audio-keyboard-response","307","2058355","0.0-13.0-3.63","a","COGS219_2020_10","Sounds/correct.wav","null","1","","","","","","",""
"null","","audio-keyboard-response","308","2059468","0.0-13.0-0.64","a","COGS219_2020_10","Sounds/motorcycle_sound.wav","null","1","","","","","","",""
"null","","html-keyboard-response","309","2060466","0.0-13.0-1.64","a","COGS219_2020_10","<p style=""font-size: 48px;"">+</p>","null","1","","","","","","",""
"1085.1350000002421","","image-keyboard-response","310","2061552","0.0-13.0-2.64","a","COGS219_2020_10","Images/motorcycle_orig.png","65","1","1581562309523","match","motorcycle","motorcycle","sound","test","true"
"null","","audio-keyboard-response","311","2063554","0.0-13.0-3.64","a","COGS219_2020_10","Sounds/correct.wav","null","1","","","","","","",""
"null","","audio-keyboard-response","312","2064648","0.0-13.0-0.65","a","COGS219_2020_10","Sounds/motorcycle_sound.wav","null","1","","","","","","",""
"null","","html-keyboard-response","313","2065649","0.0-13.0-1.65","a","COGS219_2020_10","<p style=""font-size: 48px;"">+</p>","null","1","","","","","","",""
"1598.4099999994505","","image-keyboard-response","314","2067248","0.0-13.0-2.65","a","COGS219_2020_10","Images/car_1.png","65","1","1581562314706","non-match","car","motorcycle","sound","test","false"
"null","","audio-keyboard-response","315","2069259","0.0-13.0-3.65","a","COGS219_2020_10","Sounds/incorrect.wav","null","1","","","","","","",""
"null","","audio-keyboard-response","316","2070388","0.0-13.0-0.66","a","COGS219_2020_10","Sounds/motorcycle_label.wav","null","1","","","","","","",""
"null","","html-keyboard-response","317","2071382","0.0-13.0-1.66","a","COGS219_2020_10","<p style=""font-size: 48px;"">+</p>","null","1","","","","","","",""
"624.730000000447","","image-keyboard-response","318","2072008","0.0-13.0-2.66","a","COGS219_2020_10","Images/motorcycle_3.png","65","1","1581562320439","match","motorcycle","motorcycle","label","test","true"
"null","","audio-keyboard-response","319","2074020","0.0-13.0-3.66","a","COGS219_2020_10","Sounds/correct.wav","null","1","","","","","","",""
"null","","audio-keyboard-response","320","2075288","0.0-13.0-0.67","a","COGS219_2020_10","Sounds/train_label.wav","null","1","","","","","","",""
"null","","html-keyboard-response","321","2076282","0.0-13.0-1.67","a","COGS219_2020_10","<p style=""font-size: 48px;"">+</p>","null","1","","","","","","",""
"660.6400000001304","","image-keyboard-response","322","2076944","0.0-13.0-2.67","a","COGS219_2020_10","Images/rooster_3.png","76","1","1581562325339","non-match","rooster","train","label","test","true"
"null","","audio-keyboard-response","323","2078958","0.0-13.0-3.67","a","COGS219_2020_10","Sounds/correct.wav","null","1","","","","","","",""
"null","","audio-keyboard-response","324","2079848","0.0-13.0-0.68","a","COGS219_2020_10","Sounds/frog_label.wav","null","1","","","","","","",""
"null","","html-keyboard-response","325","2080849","0.0-13.0-1.68","a","COGS219_2020_10","<p style=""font-size: 48px;"">+</p>","null","1","","","","","","",""
"870.1799999999348","","image-keyboard-response","326","2081720","0.0-13.0-2.68","a","COGS219_2020_10","Images/rooster_cartoon.png","76","1","1581562329906","non-match","rooster","frog","label","test","true"
"null","","audio-keyboard-response","327","2083736","0.0-13.0-3.68","a","COGS219_2020_10","Sounds/correct.wav","null","1","","","","","","",""
"null","","audio-keyboard-response","328","2084428","0.0-13.0-0.69","a","COGS219_2020_10","Sounds/whistle_sound.wav","null","1","","","","","","",""
"null","","html-keyboard-response","329","2085433","0.0-13.0-1.69","a","COGS219_2020_10","<p style=""font-size: 48px;"">+</p>","null","1","","","","","","",""
"782.6649999995716","","image-keyboard-response","330","2086216","0.0-13.0-2.69","a","COGS219_2020_10","Images/whistle_orig.png","65","1","1581562334489","match","whistle","whistle","sound","test","true"
"null","","audio-keyboard-response","331","2088222","0.0-13.0-3.69","a","COGS219_2020_10","Sounds/correct.wav","null","1","","","","","","",""
"null","","audio-keyboard-response","332","2088908","0.0-13.0-0.70","a","COGS219_2020_10","Sounds/rooster_sound.wav","null","1","","","","","","",""
"null","","html-keyboard-response","333","2089899","0.0-13.0-1.70","a","COGS219_2020_10","<p style=""font-size: 48px;"">+</p>","null","1","","","","","","",""
"475.72500000032596","","image-keyboard-response","334","2090376","0.0-13.0-2.70","a","COGS219_2020_10","Images/car_orig.png","76","1","1581562338956","non-match","car","rooster","sound","test","true"
"null","","audio-keyboard-response","335","2092385","0.0-13.0-3.70","a","COGS219_2020_10","Sounds/correct.wav","null","1","","","","","","",""
"null","","audio-keyboard-response","336","2093228","0.0-13.0-0.71","a","COGS219_2020_10","Sounds/cat_label.wav","null","1","","","","","","",""
"null","","html-keyboard-response","337","2094233","0.0-13.0-1.71","a","COGS219_2020_10","<p style=""font-size: 48px;"">+</p>","null","1","","","","","","",""
"566.3800000001211","","image-keyboard-response","338","2094800","0.0-13.0-2.71","a","COGS219_2020_10","Images/rooster_2.png","76","1","1581562343289","non-match","rooster","cat","label","test","true"
"null","","audio-keyboard-response","339","2096806","0.0-13.0-3.71","a","COGS219_2020_10","Sounds/correct.wav","null","1","","","","","","",""
"null","","audio-keyboard-response","340","2097888","0.0-13.0-0.72","a","COGS219_2020_10","Sounds/car_label.wav","null","1","","","","","","",""
"null","","html-keyboard-response","341","2098882","0.0-13.0-1.72","a","COGS219_2020_10","<p style=""font-size: 48px;"">+</p>","null","1","","","","","","",""
"644.6850000005215","","image-keyboard-response","342","2099528","0.0-13.0-2.72","a","COGS219_2020_10","Images/gun_2.png","76","1","1581562347940","non-match","gun","car","label","test","true"
"null","","audio-keyboard-response","343","2101538","0.0-13.0-3.72","a","COGS219_2020_10","Sounds/correct.wav","null","1","","","","","","",""
"null","","audio-keyboard-response","344","2102549","0.0-13.0-0.73","a","COGS219_2020_10","Sounds/cow_sound.wav","null","1","","","","","","",""
"null","","html-keyboard-response","345","2103549","0.0-13.0-1.73","a","COGS219_2020_10","<p style=""font-size: 48px;"">+</p>","null","1","","","","","","",""
"513.6400000001304","","image-keyboard-response","346","2104064","0.0-13.0-2.73","a","COGS219_2020_10","Images/motorcycle_1.png","76","1","1581562352607","non-match","motorcycle","cow","sound","test","true"
"null","","audio-keyboard-response","347","2106071","0.0-13.0-3.73","a","COGS219_2020_10","Sounds/correct.wav","null","1","","","","","","",""
"null","","audio-keyboard-response","348","2107148","0.0-13.0-0.74","a","COGS219_2020_10","Sounds/car_sound.wav","null","1","","","","","","",""
"null","","html-keyboard-response","349","2108166","0.0-13.0-1.74","a","COGS219_2020_10","<p style=""font-size: 48px;"">+</p>","null","1","","","","","","",""
"1617.4350000000559","","image-keyboard-response","350","2109785","0.0-13.0-2.74","a","COGS219_2020_10","Images/whistle_orig.png","76","1","1581562357223","non-match","whistle","car","sound","test","true"
"null","","audio-keyboard-response","351","2111792","0.0-13.0-3.74","a","COGS219_2020_10","Sounds/correct.wav","null","1","","","","","","",""
"null","","audio-keyboard-response","352","2112908","0.0-13.0-0.75","a","COGS219_2020_10","Sounds/motorcycle_sound.wav","null","1","","","","","","",""
"null","","html-keyboard-response","353","2113899","0.0-13.0-1.75","a","COGS219_2020_10","<p style=""font-size: 48px;"">+</p>","null","1","","","","","","",""
"867.5400000000373","","image-keyboard-response","354","2114767","0.0-13.0-2.75","a","COGS219_2020_10","Images/cow_3.png","76","1","1581562362956","non-match","cow","motorcycle","sound","test","true"
"null","","audio-keyboard-response","355","2116770","0.0-13.0-3.75","a","COGS219_2020_10","Sounds/correct.wav","null","1","","","","","","",""
"null","","audio-keyboard-response","356","2117788","0.0-13.0-0.76","a","COGS219_2020_10","Sounds/cow_label.wav","null","1","","","","","","",""
"null","","html-keyboard-response","357","2118782","0.0-13.0-1.76","a","COGS219_2020_10","<p style=""font-size: 48px;"">+</p>","null","1","","","","","","",""
"656.2849999996834","","image-keyboard-response","358","2119439","0.0-13.0-2.76","a","COGS219_2020_10","Images/cow_orig.png","65","1","1581562367839","match","cow","cow","label","test","true"
"null","","audio-keyboard-response","359","2121453","0.0-13.0-3.76","a","COGS219_2020_10","Sounds/correct.wav","null","1","","","","","","",""
"null","","audio-keyboard-response","360","2122168","0.0-13.0-0.77","a","COGS219_2020_10","Sounds/dog_sound.wav","null","1","","","","","","",""
"null","","html-keyboard-response","361","2123165","0.0-13.0-1.77","a","COGS219_2020_10","<p style=""font-size: 48px;"">+</p>","null","1","","","","","","",""
"745.0149999996647","","image-keyboard-response","362","2123912","0.0-13.0-2.77","a","COGS219_2020_10","Images/dog_3.png","65","1","1581562372223","match","dog","dog","sound","test","true"
"null","","audio-keyboard-response","363","2125921","0.0-13.0-3.77","a","COGS219_2020_10","Sounds/correct.wav","null","1","","","","","","",""
"null","","audio-keyboard-response","364","2126828","0.0-13.0-0.78","a","COGS219_2020_10","Sounds/frog_label.wav","null","1","","","","","","",""
"null","","html-keyboard-response","365","2127833","0.0-13.0-1.78","a","COGS219_2020_10","<p style=""font-size: 48px;"">+</p>","null","1","","","","","","",""
"725.5949999997392","","image-keyboard-response","366","2128559","0.0-13.0-2.78","a","COGS219_2020_10","Images/motorcycle_2.png","76","1","1581562376889","non-match","motorcycle","frog","label","test","true"
"null","","audio-keyboard-response","367","2130569","0.0-13.0-3.78","a","COGS219_2020_10","Sounds/correct.wav","null","1","","","","","","",""
"null","","audio-keyboard-response","368","2131268","0.0-13.0-0.79","a","COGS219_2020_10","Sounds/dog_sound.wav","null","1","","","","","","",""
"null","","html-keyboard-response","369","2132266","0.0-13.0-1.79","a","COGS219_2020_10","<p style=""font-size: 48px;"">+</p>","null","1","","","","","","",""
"732.6000000005588","","image-keyboard-response","370","2132999","0.0-13.0-2.79","a","COGS219_2020_10","Images/gun_1.png","76","1","1581562381323","non-match","gun","dog","sound","test","true"
"null","","audio-keyboard-response","371","2135004","0.0-13.0-3.79","a","COGS219_2020_10","Sounds/correct.wav","null","1","","","","","","",""
"null","","audio-keyboard-response","372","2136028","0.0-13.0-0.80","a","COGS219_2020_10","Sounds/cow_sound.wav","null","1","","","","","","",""
"null","","html-keyboard-response","373","2137032","0.0-13.0-1.80","a","COGS219_2020_10","<p style=""font-size: 48px;"">+</p>","null","1","","","","","","",""
"2014.0400000000373","","image-keyboard-response","374","2139047","0.0-13.0-2.80","a","COGS219_2020_10","Images/cow_2.png","65","1","1581562386089","match","cow","cow","sound","test","true"
"null","","audio-keyboard-response","375","2141057","0.0-13.0-3.80","a","COGS219_2020_10","Sounds/correct.wav","null","1","","","","","","",""
"null","","audio-keyboard-response","376","2142148","0.0-13.0-0.81","a","COGS219_2020_10","Sounds/car_label.wav","null","1","","","","","","",""
"null","","html-keyboard-response","377","2143166","0.0-13.0-1.81","a","COGS219_2020_10","<p style=""font-size: 48px;"">+</p>","null","1","","","","","","",""
"1424.6149999997579","","image-keyboard-response","378","2144591","0.0-13.0-2.81","a","COGS219_2020_10","Images/car_2.png","65","1","1581562392223","match","car","car","label","test","true"
"null","","audio-keyboard-response","379","2146606","0.0-13.0-3.81","a","COGS219_2020_10","Sounds/correct.wav","null","1","","","","","","",""
"null","","audio-keyboard-response","380","2147268","0.0-13.0-0.82","a","COGS219_2020_10","Sounds/dog_label.wav","null","1","","","","","","",""
"null","","html-keyboard-response","381","2148266","0.0-13.0-1.82","a","COGS219_2020_10","<p style=""font-size: 48px;"">+</p>","null","1","","","","","","",""
"772.480000000447","","image-keyboard-response","382","2149039","0.0-13.0-2.82","a","COGS219_2020_10","Images/rooster_1.png","76","1","1581562397323","non-match","rooster","dog","label","test","true"
"null","","audio-keyboard-response","383","2151057","0.0-13.0-3.82","a","COGS219_2020_10","Sounds/correct.wav","null","1","","","","","","",""
"null","","audio-keyboard-response","384","2151748","0.0-13.0-0.83","a","COGS219_2020_10","Sounds/whistle_sound.wav","null","1","","","","","","",""
"null","","html-keyboard-response","385","2152766","0.0-13.0-1.83","a","COGS219_2020_10","<p style=""font-size: 48px;"">+</p>","null","1","","","","","","",""
"952.804999999702","","image-keyboard-response","386","2153720","0.0-13.0-2.83","a","COGS219_2020_10","Images/whistle_2.png","65","1","1581562401823","match","whistle","whistle","sound","test","true"
"null","","audio-keyboard-response","387","2155738","0.0-13.0-3.83","a","COGS219_2020_10","Sounds/correct.wav","null","1","","","","","","",""
"null","","audio-keyboard-response","388","2156748","0.0-13.0-0.84","a","COGS219_2020_10","Sounds/cow_label.wav","null","1","","","","","","",""
"null","","html-keyboard-response","389","2157766","0.0-13.0-1.84","a","COGS219_2020_10","<p style=""font-size: 48px;"">+</p>","null","1","","","","","","",""
"688.7249999996275","","image-keyboard-response","390","2158455","0.0-13.0-2.84","a","COGS219_2020_10","Images/cow_cartoon.png","65","1","1581562406823","match","cow","cow","label","test","true"
"null","","audio-keyboard-response","391","2160460","0.0-13.0-3.84","a","COGS219_2020_10","Sounds/correct.wav","null","1","","","","","","",""
"null","","audio-keyboard-response","392","2161088","0.0-13.0-0.85","a","COGS219_2020_10","Sounds/dog_label.wav","null","1","","","","","","",""
"null","","html-keyboard-response","393","2162082","0.0-13.0-1.85","a","COGS219_2020_10","<p style=""font-size: 48px;"">+</p>","null","1","","","","","","",""
"737.625","","image-keyboard-response","394","2162823","0.0-13.0-2.85","a","COGS219_2020_10","Images/dog_orig.png","65","1","1581562411140","match","dog","dog","label","test","true"
"null","","audio-keyboard-response","395","2164841","0.0-13.0-3.85","a","COGS219_2020_10","Sounds/correct.wav","null","1","","","","","","",""
"null","","audio-keyboard-response","396","2165928","0.0-13.0-0.86","a","COGS219_2020_10","Sounds/car_label.wav","null","1","","","","","","",""
"null","","html-keyboard-response","397","2166933","0.0-13.0-1.86","a","COGS219_2020_10","<p style=""font-size: 48px;"">+</p>","null","1","","","","","","",""
"697.7050000005402","","image-keyboard-response","398","2167632","0.0-13.0-2.86","a","COGS219_2020_10","Images/car_cartoon.png","65","1","1581562415990","match","car","car","label","test","true"
"null","","audio-keyboard-response","399","2169638","0.0-13.0-3.86","a","COGS219_2020_10","Sounds/correct.wav","null","1","","","","","","",""
"null","","audio-keyboard-response","400","2170548","0.0-13.0-0.87","a","COGS219_2020_10","Sounds/frog_sound.wav","null","1","","","","","","",""
"null","","html-keyboard-response","401","2171566","0.0-13.0-1.87","a","COGS219_2020_10","<p style=""font-size: 48px;"">+</p>","null","1","","","","","","",""
"550.9550000005402","","image-keyboard-response","402","2172119","0.0-13.0-2.87","a","COGS219_2020_10","Images/frog_1.png","65","1","1581562420623","match","frog","frog","sound","test","true"
"null","","audio-keyboard-response","403","2174122","0.0-13.0-3.87","a","COGS219_2020_10","Sounds/correct.wav","null","1","","","","","","",""
"null","","audio-keyboard-response","404","2174968","0.0-13.0-0.88","a","COGS219_2020_10","Sounds/cat_sound.wav","null","1","","","","","","",""
"null","","html-keyboard-response","405","2175966","0.0-13.0-1.88","a","COGS219_2020_10","<p style=""font-size: 48px;"">+</p>","null","1","","","","","","",""
"648.3500000005588","","image-keyboard-response","406","2176615","0.0-13.0-2.88","a","COGS219_2020_10","Images/cat_2.png","65","1","1581562425023","match","cat","cat","sound","test","true"
"null","","audio-keyboard-response","407","2178621","0.0-13.0-3.88","a","COGS219_2020_10","Sounds/correct.wav","null","1","","","","","","",""
"null","","audio-keyboard-response","408","2179208","0.0-13.0-0.89","a","COGS219_2020_10","Sounds/gun_sound.wav","null","1","","","","","","",""
"null","","html-keyboard-response","409","2180199","0.0-13.0-1.89","a","COGS219_2020_10","<p style=""font-size: 48px;"">+</p>","null","1","","","","","","",""
"1622.9849999998696","","image-keyboard-response","410","2181823","0.0-13.0-2.89","a","COGS219_2020_10","Images/gun_cartoon.png","76","1","1581562429256","match","gun","gun","sound","test","false"
"null","","audio-keyboard-response","411","2183840","0.0-13.0-3.89","a","COGS219_2020_10","Sounds/incorrect.wav","null","1","","","","","","",""
"null","","audio-keyboard-response","412","2184428","0.0-13.0-0.90","a","COGS219_2020_10","Sounds/gun_label.wav","null","1","","","","","","",""
"null","","html-keyboard-response","413","2185433","0.0-13.0-1.90","a","COGS219_2020_10","<p style=""font-size: 48px;"">+</p>","null","1","","","","","","",""
"829.3799999998882","","image-keyboard-response","414","2186263","0.0-13.0-2.90","a","COGS219_2020_10","Images/cow_cartoon.png","76","1","1581562434490","non-match","cow","gun","label","test","true"
"null","","audio-keyboard-response","415","2188273","0.0-13.0-3.90","a","COGS219_2020_10","Sounds/correct.wav","null","1","","","","","","",""
"null","","audio-keyboard-response","416","2188828","0.0-13.0-0.91","a","COGS219_2020_10","Sounds/gun_sound.wav","null","1","","","","","","",""
"null","","html-keyboard-response","417","2189816","0.0-13.0-1.91","a","COGS219_2020_10","<p style=""font-size: 48px;"">+</p>","null","1","","","","","","",""
"574.195000000298","","image-keyboard-response","418","2190391","0.0-13.0-2.91","a","COGS219_2020_10","Images/gun_2.png","65","1","1581562438873","match","gun","gun","sound","test","true"
"null","","audio-keyboard-response","419","2192406","0.0-13.0-3.91","a","COGS219_2020_10","Sounds/correct.wav","null","1","","","","","","",""
"null","","audio-keyboard-response","420","2193548","0.0-13.0-0.92","a","COGS219_2020_10","Sounds/motorcycle_label.wav","null","1","","","","","","",""
"null","","html-keyboard-response","421","2194550","0.0-13.0-1.92","a","COGS219_2020_10","<p style=""font-size: 48px;"">+</p>","null","1","","","","","","",""
"1104.9250000002794","","image-keyboard-response","422","2195656","0.0-13.0-2.92","a","COGS219_2020_10","Images/motorcycle_1.png","65","1","1581562443607","match","motorcycle","motorcycle","label","test","true"
"null","","audio-keyboard-response","423","2197670","0.0-13.0-3.92","a","COGS219_2020_10","Sounds/correct.wav","null","1","","","","","","",""
"null","","audio-keyboard-response","424","2198508","0.0-13.0-0.93","a","COGS219_2020_10","Sounds/cat_label.wav","null","1","","","","","","",""
"null","","html-keyboard-response","425","2199500","0.0-13.0-1.93","a","COGS219_2020_10","<p style=""font-size: 48px;"">+</p>","null","1","","","","","","",""
"626.7750000008382","","image-keyboard-response","426","2200127","0.0-13.0-2.93","a","COGS219_2020_10","Images/cat_3.png","65","1","1581562448557","match","cat","cat","label","test","true"
"null","","audio-keyboard-response","427","2202136","0.0-13.0-3.93","a","COGS219_2020_10","Sounds/correct.wav","null","1","","","","","","",""
"null","","audio-keyboard-response","428","2203428","0.0-13.0-0.94","a","COGS219_2020_10","Sounds/train_sound.wav","null","1","","","","","","",""
"null","","html-keyboard-response","429","2204433","0.0-13.0-1.94","a","COGS219_2020_10","<p style=""font-size: 48px;"">+</p>","null","1","","","","","","",""
"1053.1700000003912","","image-keyboard-response","430","2205487","0.0-13.0-2.94","a","COGS219_2020_10","Images/whistle_cartoon.png","76","1","1581562453490","non-match","whistle","train","sound","test","true"
"null","","audio-keyboard-response","431","2207490","0.0-13.0-3.94","a","COGS219_2020_10","Sounds/correct.wav","null","1","","","","","","",""
"null","","audio-keyboard-response","432","2208768","0.0-13.0-0.95","a","COGS219_2020_10","Sounds/train_label.wav","null","1","","","","","","",""
"null","","html-keyboard-response","433","2209766","0.0-13.0-1.95","a","COGS219_2020_10","<p style=""font-size: 48px;"">+</p>","null","1","","","","","","",""
"574.1949999998324","","image-keyboard-response","434","2210344","0.0-13.0-2.95","a","COGS219_2020_10","Images/train_orig.png","65","1","1581562458824","match","train","train","label","test","true"
"null","","audio-keyboard-response","435","2212353","0.0-13.0-3.95","a","COGS219_2020_10","Sounds/correct.wav","null","1","","","","","","",""
"null","","audio-keyboard-response","436","2213628","0.0-13.0-0.96","a","COGS219_2020_10","Sounds/train_sound.wav","null","1","","","","","","",""
"null","","html-keyboard-response","437","2214616","0.0-13.0-1.96","a","COGS219_2020_10","<p style=""font-size: 48px;"">+</p>","null","1","","","","","","",""
"469.9350000000559","","image-keyboard-response","438","2215087","0.0-13.0-2.96","a","COGS219_2020_10","Images/train_2.png","65","1","1581562463674","match","train","train","sound","test","true"
"null","","audio-keyboard-response","439","2217104","0.0-13.0-3.96","a","COGS219_2020_10","Sounds/correct.wav","null","1","","","","","","",""
"null","","audio-keyboard-response","440","2218008","0.0-13.0-0.97","a","COGS219_2020_10","Sounds/frog_label.wav","null","1","","","","","","",""
"null","","html-keyboard-response","441","2219000","0.0-13.0-1.97","a","COGS219_2020_10","<p style=""font-size: 48px;"">+</p>","null","1","","","","","","",""
"1278.4849999998696","","image-keyboard-response","442","2220279","0.0-13.0-2.97","a","COGS219_2020_10","Images/frog_cartoon.png","65","1","1581562468057","match","frog","frog","label","test","true"
"null","","audio-keyboard-response","443","2222291","0.0-13.0-3.97","a","COGS219_2020_10","Sounds/correct.wav","null","1","","","","","","",""
"null","","audio-keyboard-response","444","2223008","0.0-13.0-0.98","a","COGS219_2020_10","Sounds/dog_sound.wav","null","1","","","","","","",""
"null","","html-keyboard-response","445","2224000","0.0-13.0-1.98","a","COGS219_2020_10","<p style=""font-size: 48px;"">+</p>","null","1","","","","","","",""
"854.9250000007451","","image-keyboard-response","446","2224856","0.0-13.0-2.98","a","COGS219_2020_10","Images/motorcycle_orig.png","76","1","1581562473057","non-match","motorcycle","dog","sound","test","true"
"null","","audio-keyboard-response","447","2226871","0.0-13.0-3.98","a","COGS219_2020_10","Sounds/correct.wav","null","1","","","","","","",""
"null","","audio-keyboard-response","448","2227788","0.0-13.0-0.99","a","COGS219_2020_10","Sounds/frog_sound.wav","null","1","","","","","","",""
"null","","html-keyboard-response","449","2228783","0.0-13.0-1.99","a","COGS219_2020_10","<p style=""font-size: 48px;"">+</p>","null","1","","","","","","",""
"495.31000000052154","","image-keyboard-response","450","2229280","0.0-13.0-2.99","a","COGS219_2020_10","Images/gun_3.png","76","1","1581562477840","non-match","gun","frog","sound","test","true"
"null","","audio-keyboard-response","451","2231289","0.0-13.0-3.99","a","COGS219_2020_10","Sounds/correct.wav","null","1","","","","","","",""
"16222.18499999959","","html-keyboard-response","452","2247511","0.0-14.0","a","COGS219_2020_10","<p>Please take this opportunity to rest your eyes before proceeding.</p><p>When ready, press the enter key to continue to the next set of trials.</p>","13","","","","","","","",""
"null","","audio-keyboard-response","453","2250838","0.0-15.0-0.0","a","COGS219_2020_10","Sounds/train_sound.wav","null","2","","","","","","",""
"null","","html-keyboard-response","454","2251833","0.0-15.0-1.0","a","COGS219_2020_10","<p style=""font-size: 48px;"">+</p>","null","2","","","","","","",""
"524.8150000004098","","image-keyboard-response","455","2252359","0.0-15.0-2.0","a","COGS219_2020_10","Images/train_2.png","65","2","1581562500890","match","train","train","sound","test","true"
"null","","audio-keyboard-response","456","2254369","0.0-15.0-3.0","a","COGS219_2020_10","Sounds/correct.wav","null","2","","","","","","",""
"null","","audio-keyboard-response","457","2255438","0.0-15.0-0.1","a","COGS219_2020_10","Sounds/car_sound.wav","null","2","","","","","","",""
"null","","html-keyboard-response","458","2256433","0.0-15.0-1.1","a","COGS219_2020_10","<p style=""font-size: 48px;"">+</p>","null","2","","","","","","",""
"404.6999999997206","","image-keyboard-response","459","2256839","0.0-15.0-2.1","a","COGS219_2020_10","Images/car_3.png","65","2","1581562505490","match","car","car","sound","test","true"
"null","","audio-keyboard-response","460","2258854","0.0-15.0-3.1","a","COGS219_2020_10","Sounds/correct.wav","null","2","","","","","","",""
"null","","audio-keyboard-response","461","2259558","0.0-15.0-0.2","a","COGS219_2020_10","Sounds/whistle_sound.wav","null","2","","","","","","",""
"null","","html-keyboard-response","462","2260550","0.0-15.0-1.2","a","COGS219_2020_10","<p style=""font-size: 48px;"">+</p>","null","2","","","","","","",""
"536.2450000001118","","image-keyboard-response","463","2261087","0.0-15.0-2.2","a","COGS219_2020_10","Images/whistle_cartoon.png","76","2","1581562509607","match","whistle","whistle","sound","test","false"
"null","","audio-keyboard-response","464","2263103","0.0-15.0-3.2","a","COGS219_2020_10","Sounds/incorrect.wav","null","2","","","","","","",""
"null","","audio-keyboard-response","465","2263678","0.0-15.0-0.3","a","COGS219_2020_10","Sounds/gun_sound.wav","null","2","","","","","","",""
"null","","html-keyboard-response","466","2264666","0.0-15.0-1.3","a","COGS219_2020_10","<p style=""font-size: 48px;"">+</p>","null","2","","","","","","",""
"739.2999999998137","","image-keyboard-response","467","2265407","0.0-15.0-2.3","a","COGS219_2020_10","Images/car_1.png","76","2","1581562513723","non-match","car","gun","sound","test","true"
"null","","audio-keyboard-response","468","2267420","0.0-15.0-3.3","a","COGS219_2020_10","Sounds/correct.wav","null","2","","","","","","",""
"null","","audio-keyboard-response","469","2268118","0.0-15.0-0.4","a","COGS219_2020_10","Sounds/whistle_label.wav","null","2","","","","","","",""
"null","","html-keyboard-response","470","2269116","0.0-15.0-1.4","a","COGS219_2020_10","<p style=""font-size: 48px;"">+</p>","null","2","","","","","","",""
"929.2250000000931","","image-keyboard-response","471","2270047","0.0-15.0-2.4","a","COGS219_2020_10","Images/train_3.png","76","2","1581562518174","non-match","train","whistle","label","test","true"
"null","","audio-keyboard-response","472","2272055","0.0-15.0-3.4","a","COGS219_2020_10","Sounds/correct.wav","null","2","","","","","","",""
"null","","audio-keyboard-response","473","2272757","0.0-15.0-0.5","a","COGS219_2020_10","Sounds/rooster_label.wav","null","2","","","","","","",""
"null","","html-keyboard-response","474","2273750","0.0-15.0-1.5","a","COGS219_2020_10","<p style=""font-size: 48px;"">+</p>","null","2","","","","","","",""
"4120.124999999534","","image-keyboard-response","475","2277871","0.0-15.0-2.5","a","COGS219_2020_10","Images/rooster_1.png","65","2","1581562522807","match","rooster","rooster","label","test","true"
"null","","audio-keyboard-response","476","2279876","0.0-15.0-3.5","a","COGS219_2020_10","Sounds/correct.wav","null","2","","","","","","",""
"null","","audio-keyboard-response","477","2281158","0.0-15.0-0.6","a","COGS219_2020_10","Sounds/train_label.wav","null","2","","","","","","",""
"null","","html-keyboard-response","478","2282150","0.0-15.0-1.6","a","COGS219_2020_10","<p style=""font-size: 48px;"">+</p>","null","2","","","","","","",""
"3791.8900000001304","","image-keyboard-response","479","2285943","0.0-15.0-2.6","a","COGS219_2020_10","Images/motorcycle_cartoon.png","76","2","1581562531207","non-match","motorcycle","train","label","test","true"
"null","","audio-keyboard-response","480","2287957","0.0-15.0-3.6","a","COGS219_2020_10","Sounds/correct.wav","null","2","","","","","","",""
"null","","audio-keyboard-response","481","2288978","0.0-15.0-0.7","a","COGS219_2020_10","Sounds/cow_label.wav","null","2","","","","","","",""
"null","","html-keyboard-response","482","2289983","0.0-15.0-1.7","a","COGS219_2020_10","<p style=""font-size: 48px;"">+</p>","null","2","","","","","","",""
"1758.3400000003166","","image-keyboard-response","483","2291743","0.0-15.0-2.7","a","COGS219_2020_10","Images/cow_3.png","65","2","1581562539040","match","cow","cow","label","test","true"
"null","","audio-keyboard-response","484","2293757","0.0-15.0-3.7","a","COGS219_2020_10","Sounds/correct.wav","null","2","","","","","","",""
"null","","audio-keyboard-response","485","2294458","0.0-15.0-0.8","a","COGS219_2020_10","Sounds/whistle_sound.wav","null","2","","","","","","",""
"null","","html-keyboard-response","486","2295450","0.0-15.0-1.8","a","COGS219_2020_10","<p style=""font-size: 48px;"">+</p>","null","2","","","","","","",""
"851.6200000005774","","image-keyboard-response","487","2296303","0.0-15.0-2.8","a","COGS219_2020_10","Images/dog_3.png","76","2","1581562544507","non-match","dog","whistle","sound","test","true"
"null","","audio-keyboard-response","488","2298305","0.0-15.0-3.8","a","COGS219_2020_10","Sounds/correct.wav","null","2","","","","","","",""
"null","","audio-keyboard-response","489","2298998","0.0-15.0-0.9","a","COGS219_2020_10","Sounds/rooster_label.wav","null","2","","","","","","",""
"null","","html-keyboard-response","490","2300000","0.0-15.0-1.9","a","COGS219_2020_10","<p style=""font-size: 48px;"">+</p>","null","2","","","","","","",""
"2413.8049999992363","","image-keyboard-response","491","2302415","0.0-15.0-2.9","a","COGS219_2020_10","Images/rooster_2.png","65","2","1581562549057","match","rooster","rooster","label","test","true"
"null","","audio-keyboard-response","492","2304423","0.0-15.0-3.9","a","COGS219_2020_10","Sounds/correct.wav","null","2","","","","","","",""
"null","","audio-keyboard-response","493","2305118","0.0-15.0-0.10","a","COGS219_2020_10","Sounds/rooster_sound.wav","null","2","","","","","","",""
"null","","html-keyboard-response","494","2306117","0.0-15.0-1.10","a","COGS219_2020_10","<p style=""font-size: 48px;"">+</p>","null","2","","","","","","",""
"752.9349999995902","","image-keyboard-response","495","2306871","0.0-15.0-2.10","a","COGS219_2020_10","Images/rooster_3.png","65","2","1581562555174","match","rooster","rooster","sound","test","true"
"null","","audio-keyboard-response","496","2308887","0.0-15.0-3.10","a","COGS219_2020_10","Sounds/correct.wav","null","2","","","","","","",""
"null","","audio-keyboard-response","497","2309458","0.0-15.0-0.11","a","COGS219_2020_10","Sounds/gun_label.wav","null","2","","","","","","",""
"null","","html-keyboard-response","498","2310450","0.0-15.0-1.11","a","COGS219_2020_10","<p style=""font-size: 48px;"">+</p>","null","2","","","","","","",""
"763.5449999994598","","image-keyboard-response","499","2311215","0.0-15.0-2.11","a","COGS219_2020_10","Images/gun_1.png","65","2","1581562559508","match","gun","gun","label","test","true"
"null","","audio-keyboard-response","500","2313222","0.0-15.0-3.11","a","COGS219_2020_10","Sounds/correct.wav","null","2","","","","","","",""
"null","","audio-keyboard-response","501","2314138","0.0-15.0-0.12","a","COGS219_2020_10","Sounds/frog_sound.wav","null","2","","","","","","",""
"null","","html-keyboard-response","502","2315134","0.0-15.0-1.12","a","COGS219_2020_10","<p style=""font-size: 48px;"">+</p>","null","2","","","","","","",""
"560.4249999998137","","image-keyboard-response","503","2315695","0.0-15.0-2.12","a","COGS219_2020_10","Images/frog_orig.png","65","2","1581562564191","match","frog","frog","sound","test","true"
"null","","audio-keyboard-response","504","2317704","0.0-15.0-3.12","a","COGS219_2020_10","Sounds/correct.wav","null","2","","","","","","",""
"null","","audio-keyboard-response","505","2318598","0.0-15.0-0.13","a","COGS219_2020_10","Sounds/frog_sound.wav","null","2","","","","","","",""
"null","","html-keyboard-response","506","2319600","0.0-15.0-1.13","a","COGS219_2020_10","<p style=""font-size: 48px;"">+</p>","null","2","","","","","","",""
"1077.4300000001676","","image-keyboard-response","507","2320679","0.0-15.0-2.13","a","COGS219_2020_10","Images/car_2.png","76","2","1581562568658","non-match","car","frog","sound","test","true"
"null","","audio-keyboard-response","508","2322687","0.0-15.0-3.13","a","COGS219_2020_10","Sounds/correct.wav","null","2","","","","","","",""
"null","","audio-keyboard-response","509","2323338","0.0-15.0-0.14","a","COGS219_2020_10","Sounds/dog_label.wav","null","2","","","","","","",""
"null","","html-keyboard-response","510","2324334","0.0-15.0-1.14","a","COGS219_2020_10","<p style=""font-size: 48px;"">+</p>","null","2","","","","","","",""
"1832.3250000001863","","image-keyboard-response","511","2326167","0.0-15.0-2.14","a","COGS219_2020_10","Images/dog_1.png","65","2","1581562573391","match","dog","dog","label","test","true"
"null","","audio-keyboard-response","512","2328176","0.0-15.0-3.14","a","COGS219_2020_10","Sounds/correct.wav","null","2","","","","","","",""
"null","","audio-keyboard-response","513","2328878","0.0-15.0-0.15","a","COGS219_2020_10","Sounds/rooster_sound.wav","null","2","","","","","","",""
"null","","html-keyboard-response","514","2329867","0.0-15.0-1.15","a","COGS219_2020_10","<p style=""font-size: 48px;"">+</p>","null","2","","","","","","",""
"922.7799999997951","","image-keyboard-response","515","2330791","0.0-15.0-2.15","a","COGS219_2020_10","Images/rooster_cartoon.png","65","2","1581562578924","match","rooster","rooster","sound","test","true"
"null","","audio-keyboard-response","516","2332805","0.0-15.0-3.15","a","COGS219_2020_10","Sounds/correct.wav","null","2","","","","","","",""
"null","","audio-keyboard-response","517","2333638","0.0-15.0-0.16","a","COGS219_2020_10","Sounds/cat_sound.wav","null","2","","","","","","",""
"null","","html-keyboard-response","518","2334634","0.0-15.0-1.16","a","COGS219_2020_10","<p style=""font-size: 48px;"">+</p>","null","2","","","","","","",""
"868.0650000008754","","image-keyboard-response","519","2335503","0.0-15.0-2.16","a","COGS219_2020_10","Images/car_cartoon.png","76","2","1581562583691","non-match","car","cat","sound","test","true"
"null","","audio-keyboard-response","520","2337505","0.0-15.0-3.16","a","COGS219_2020_10","Sounds/correct.wav","null","2","","","","","","",""
"null","","audio-keyboard-response","521","2338198","0.0-15.0-0.17","a","COGS219_2020_10","Sounds/rooster_label.wav","null","2","","","","","","",""
"null","","html-keyboard-response","522","2339201","0.0-15.0-1.17","a","COGS219_2020_10","<p style=""font-size: 48px;"">+</p>","null","2","","","","","","",""
"1229.3100000000559","","image-keyboard-response","523","2340431","0.0-15.0-2.17","a","COGS219_2020_10","Images/train_cartoon.png","76","2","1581562588258","non-match","train","rooster","label","test","true"
"null","","audio-keyboard-response","524","2342444","0.0-15.0-3.17","a","COGS219_2020_10","Sounds/correct.wav","null","2","","","","","","",""
"null","","audio-keyboard-response","525","2343558","0.0-15.0-0.18","a","COGS219_2020_10","Sounds/motorcycle_sound.wav","null","2","","","","","","",""
"null","","html-keyboard-response","526","2344551","0.0-15.0-1.18","a","COGS219_2020_10","<p style=""font-size: 48px;"">+</p>","null","2","","","","","","",""
"1679.2049999996088","","image-keyboard-response","527","2346231","0.0-15.0-2.18","a","COGS219_2020_10","Images/train_2.png","76","2","1581562593608","non-match","train","motorcycle","sound","test","true"
"null","","audio-keyboard-response","528","2348242","0.0-15.0-3.18","a","COGS219_2020_10","Sounds/correct.wav","null","2","","","","","","",""
"null","","audio-keyboard-response","529","2348898","0.0-15.0-0.19","a","COGS219_2020_10","Sounds/dog_label.wav","null","2","","","","","","",""
"null","","html-keyboard-response","530","2349901","0.0-15.0-1.19","a","COGS219_2020_10","<p style=""font-size: 48px;"">+</p>","null","2","","","","","","",""
"681.480000000447","","image-keyboard-response","531","2350583","0.0-15.0-2.19","a","COGS219_2020_10","Images/gun_orig.png","76","2","1581562598958","non-match","gun","dog","label","test","true"
"null","","audio-keyboard-response","532","2352592","0.0-15.0-3.19","a","COGS219_2020_10","Sounds/correct.wav","null","2","","","","","","",""
"null","","audio-keyboard-response","533","2353298","0.0-15.0-0.20","a","COGS219_2020_10","Sounds/whistle_sound.wav","null","2","","","","","","",""
"null","","html-keyboard-response","534","2354301","0.0-15.0-1.20","a","COGS219_2020_10","<p style=""font-size: 48px;"">+</p>","null","2","","","","","","",""
"489.07500000018626","","image-keyboard-response","535","2354791","0.0-15.0-2.20","a","COGS219_2020_10","Images/whistle_1.png","65","2","1581562603358","match","whistle","whistle","sound","test","true"
"null","","audio-keyboard-response","536","2356805","0.0-15.0-3.20","a","COGS219_2020_10","Sounds/correct.wav","null","2","","","","","","",""
"null","","audio-keyboard-response","537","2357438","0.0-15.0-0.21","a","COGS219_2020_10","Sounds/dog_label.wav","null","2","","","","","","",""
"null","","html-keyboard-response","538","2358434","0.0-15.0-1.21","a","COGS219_2020_10","<p style=""font-size: 48px;"">+</p>","null","2","","","","","","",""
"787.6749999998137","","image-keyboard-response","539","2359223","0.0-15.0-2.21","a","COGS219_2020_10","Images/dog_3.png","65","2","1581562607491","match","dog","dog","label","test","true"
"null","","audio-keyboard-response","540","2361238","0.0-15.0-3.21","a","COGS219_2020_10","Sounds/correct.wav","null","2","","","","","","",""
"null","","audio-keyboard-response","541","2362338","0.0-15.0-0.22","a","COGS219_2020_10","Sounds/motorcycle_sound.wav","null","2","","","","","","",""
"null","","html-keyboard-response","542","2363334","0.0-15.0-1.22","a","COGS219_2020_10","<p style=""font-size: 48px;"">+</p>","null","2","","","","","","",""
"2223.870000001043","","image-keyboard-response","543","2365559","0.0-15.0-2.22","a","COGS219_2020_10","Images/cow_2.png","76","2","1581562612391","non-match","cow","motorcycle","sound","test","true"
"null","","audio-keyboard-response","544","2367576","0.0-15.0-3.22","a","COGS219_2020_10","Sounds/correct.wav","null","2","","","","","","",""
"null","","audio-keyboard-response","545","2368278","0.0-15.0-0.23","a","COGS219_2020_10","Sounds/dog_sound.wav","null","2","","","","","","",""
"null","","html-keyboard-response","546","2369268","0.0-15.0-1.23","a","COGS219_2020_10","<p style=""font-size: 48px;"">+</p>","null","2","","","","","","",""
"1697.4799999995157","","image-keyboard-response","547","2370967","0.0-15.0-2.23","a","COGS219_2020_10","Images/cow_3.png","76","2","1581562618324","non-match","cow","dog","sound","test","true"
"null","","audio-keyboard-response","548","2372978","0.0-15.0-3.23","a","COGS219_2020_10","Sounds/correct.wav","null","2","","","","","","",""
"null","","audio-keyboard-response","549","2373818","0.0-15.0-0.24","a","COGS219_2020_10","Sounds/cat_label.wav","null","2","","","","","","",""
"null","","html-keyboard-response","550","2374817","0.0-15.0-1.24","a","COGS219_2020_10","<p style=""font-size: 48px;"">+</p>","null","2","","","","","","",""
"1580.355000000447","","image-keyboard-response","551","2376399","0.0-15.0-2.24","a","COGS219_2020_10","Images/cat_orig.png","65","2","1581562623874","match","cat","cat","label","test","true"
"null","","audio-keyboard-response","552","2378409","0.0-15.0-3.24","a","COGS219_2020_10","Sounds/correct.wav","null","2","","","","","","",""
"null","","audio-keyboard-response","553","2379238","0.0-15.0-0.25","a","COGS219_2020_10","Sounds/cat_sound.wav","null","2","","","","","","",""
"null","","html-keyboard-response","554","2380234","0.0-15.0-1.25","a","COGS219_2020_10","<p style=""font-size: 48px;"">+</p>","null","2","","","","","","",""
"883.4249999998137","","image-keyboard-response","555","2381119","0.0-15.0-2.25","a","COGS219_2020_10","Images/dog_2.png","76","2","1581562629291","non-match","dog","cat","sound","test","true"
"null","","audio-keyboard-response","556","2383123","0.0-15.0-3.25","a","COGS219_2020_10","Sounds/correct.wav","null","2","","","","","","",""
"null","","audio-keyboard-response","557","2383818","0.0-15.0-0.26","a","COGS219_2020_10","Sounds/rooster_sound.wav","null","2","","","","","","",""
"null","","html-keyboard-response","558","2384817","0.0-15.0-1.26","a","COGS219_2020_10","<p style=""font-size: 48px;"">+</p>","null","2","","","","","","",""
"1524.1250000004657","","image-keyboard-response","559","2386343","0.0-15.0-2.26","a","COGS219_2020_10","Images/rooster_orig.png","65","2","1581562633875","match","rooster","rooster","sound","test","true"
"null","","audio-keyboard-response","560","2388345","0.0-15.0-3.26","a","COGS219_2020_10","Sounds/correct.wav","null","2","","","","","","",""
"null","","audio-keyboard-response","561","2388918","0.0-15.0-0.27","a","COGS219_2020_10","Sounds/gun_sound.wav","null","2","","","","","","",""
"null","","html-keyboard-response","562","2389918","0.0-15.0-1.27","a","COGS219_2020_10","<p style=""font-size: 48px;"">+</p>","null","2","","","","","","",""
"2184.4250000002794","","image-keyboard-response","563","2392103","0.0-15.0-2.27","a","COGS219_2020_10","Images/gun_3.png","65","2","1581562638975","match","gun","gun","sound","test","true"
"null","","audio-keyboard-response","564","2394109","0.0-15.0-3.27","a","COGS219_2020_10","Sounds/correct.wav","null","2","","","","","","",""
"null","","audio-keyboard-response","565","2395418","0.0-15.0-0.28","a","COGS219_2020_10","Sounds/train_sound.wav","null","2","","","","","","",""
"null","","html-keyboard-response","566","2396418","0.0-15.0-1.28","a","COGS219_2020_10","<p style=""font-size: 48px;"">+</p>","null","2","","","","","","",""
"907.2400000006892","","image-keyboard-response","567","2397327","0.0-15.0-2.28","a","COGS219_2020_10","Images/train_cartoon.png","65","2","1581562645475","match","train","train","sound","test","true"
"null","","audio-keyboard-response","568","2399338","0.0-15.0-3.28","a","COGS219_2020_10","Sounds/correct.wav","null","2","","","","","","",""
"null","","audio-keyboard-response","569","2400418","0.0-15.0-0.29","a","COGS219_2020_10","Sounds/car_sound.wav","null","2","","","","","","",""
"null","","html-keyboard-response","570","2401418","0.0-15.0-1.29","a","COGS219_2020_10","<p style=""font-size: 48px;"">+</p>","null","2","","","","","","",""
"539.945000000298","","image-keyboard-response","571","2401959","0.0-15.0-2.29","a","COGS219_2020_10","Images/cat_1.png","76","2","1581562650475","non-match","cat","car","sound","test","true"
"null","","audio-keyboard-response","572","2403972","0.0-15.0-3.29","a","COGS219_2020_10","Sounds/correct.wav","null","2","","","","","","",""
"null","","audio-keyboard-response","573","2405258","0.0-15.0-0.30","a","COGS219_2020_10","Sounds/train_label.wav","null","2","","","","","","",""
"null","","html-keyboard-response","574","2406251","0.0-15.0-1.30","a","COGS219_2020_10","<p style=""font-size: 48px;"">+</p>","null","2","","","","","","",""
"706.894999999553","","image-keyboard-response","575","2406959","0.0-15.0-2.30","a","COGS219_2020_10","Images/frog_cartoon.png","76","2","1581562655308","non-match","frog","train","label","test","true"
"null","","audio-keyboard-response","576","2408972","0.0-15.0-3.30","a","COGS219_2020_10","Sounds/correct.wav","null","2","","","","","","",""
"null","","audio-keyboard-response","577","2410018","0.0-15.0-0.31","a","COGS219_2020_10","Sounds/car_sound.wav","null","2","","","","","","",""
"null","","html-keyboard-response","578","2411018","0.0-15.0-1.31","a","COGS219_2020_10","<p style=""font-size: 48px;"">+</p>","null","2","","","","","","",""
"931.9750000005588","","image-keyboard-response","579","2411951","0.0-15.0-2.31","a","COGS219_2020_10","Images/frog_orig.png","76","2","1581562660075","non-match","frog","car","sound","test","true"
"null","","audio-keyboard-response","580","2413956","0.0-15.0-3.31","a","COGS219_2020_10","Sounds/correct.wav","null","2","","","","","","",""
"null","","audio-keyboard-response","581","2415078","0.0-15.0-0.32","a","COGS219_2020_10","Sounds/motorcycle_sound.wav","null","2","","","","","","",""
"null","","html-keyboard-response","582","2416068","0.0-15.0-1.32","a","COGS219_2020_10","<p style=""font-size: 48px;"">+</p>","null","2","","","","","","",""
"617.9449999998324","","image-keyboard-response","583","2416687","0.0-15.0-2.32","a","COGS219_2020_10","Images/rooster_1.png","76","2","1581562665125","non-match","rooster","motorcycle","sound","test","true"
"null","","audio-keyboard-response","584","2418691","0.0-15.0-3.32","a","COGS219_2020_10","Sounds/correct.wav","null","2","","","","","","",""
"null","","audio-keyboard-response","585","2419598","0.0-15.0-0.33","a","COGS219_2020_10","Sounds/frog_sound.wav","null","2","","","","","","",""
"null","","html-keyboard-response","586","2420601","0.0-15.0-1.33","a","COGS219_2020_10","<p style=""font-size: 48px;"">+</p>","null","2","","","","","","",""
"468.5649999990128","","image-keyboard-response","587","2421071","0.0-15.0-2.33","a","COGS219_2020_10","Images/frog_cartoon.png","65","2","1581562669658","match","frog","frog","sound","test","true"
"null","","audio-keyboard-response","588","2423089","0.0-15.0-3.33","a","COGS219_2020_10","Sounds/correct.wav","null","2","","","","","","",""
"null","","audio-keyboard-response","589","2424118","0.0-15.0-0.34","a","COGS219_2020_10","Sounds/cow_label.wav","null","2","","","","","","",""
"null","","html-keyboard-response","590","2425118","0.0-15.0-1.34","a","COGS219_2020_10","<p style=""font-size: 48px;"">+</p>","null","2","","","","","","",""
"599.6899999999441","","image-keyboard-response","591","2425719","0.0-15.0-2.34","a","COGS219_2020_10","Images/cow_cartoon.png","65","2","1581562674175","match","cow","cow","label","test","true"
"null","","audio-keyboard-response","592","2427723","0.0-15.0-3.34","a","COGS219_2020_10","Sounds/correct.wav","null","2","","","","","","",""
"null","","audio-keyboard-response","593","2428418","0.0-15.0-0.35","a","COGS219_2020_10","Sounds/whistle_sound.wav","null","2","","","","","","",""
"null","","html-keyboard-response","594","2429418","0.0-15.0-1.35","a","COGS219_2020_10","<p style=""font-size: 48px;"">+</p>","null","2","","","","","","",""
"723.6800000001676","","image-keyboard-response","595","2430143","0.0-15.0-2.35","a","COGS219_2020_10","Images/whistle_2.png","65","2","1581562678475","match","whistle","whistle","sound","test","true"
"null","","audio-keyboard-response","596","2432156","0.0-15.0-3.35","a","COGS219_2020_10","Sounds/correct.wav","null","2","","","","","","",""
"null","","audio-keyboard-response","597","2433158","0.0-15.0-0.36","a","COGS219_2020_10","Sounds/cow_label.wav","null","2","","","","","","",""
"null","","html-keyboard-response","598","2434151","0.0-15.0-1.36","a","COGS219_2020_10","<p style=""font-size: 48px;"">+</p>","null","2","","","","","","",""
"2382.6650000000373","","image-keyboard-response","599","2436535","0.0-15.0-2.36","a","COGS219_2020_10","Images/cow_orig.png","65","2","1581562683209","match","cow","cow","label","test","true"
"null","","audio-keyboard-response","600","2438544","0.0-15.0-3.36","a","COGS219_2020_10","Sounds/correct.wav","null","2","","","","","","",""
"null","","audio-keyboard-response","601","2439558","0.0-15.0-0.37","a","COGS219_2020_10","Sounds/cow_sound.wav","null","2","","","","","","",""
"null","","html-keyboard-response","602","2440551","0.0-15.0-1.37","a","COGS219_2020_10","<p style=""font-size: 48px;"">+</p>","null","2","","","","","","",""
"758.2700000004843","","image-keyboard-response","603","2441311","0.0-15.0-2.37","a","COGS219_2020_10","Images/cat_3.png","76","2","1581562689609","non-match","cat","cow","sound","test","true"
"null","","audio-keyboard-response","604","2443321","0.0-15.0-3.37","a","COGS219_2020_10","Sounds/correct.wav","null","2","","","","","","",""
