[{"rt":15100.70499998983,"responses":"{\"Q0\":\"COGS219_2020_33\"}","trial_type":"survey-text","trial_index":0,"time_elapsed":15148,"internal_node_id":"0.0-0.0","match_key":"a","participant_id":"COGS219_2020_33"},{"rt":34725.749999983236,"stimulus":"<p>Use KEYBOARD 2 (match LEFT)</p><p>Press MATCH to continue.</p>","key_press":65,"trial_type":"html-keyboard-response","trial_index":1,"time_elapsed":49885,"internal_node_id":"0.0-1.0","match_key":"a","participant_id":"COGS219_2020_33"},{"rt":2199020.2600000193,"stimulus":"<p>Welcome to the experiment.</p>","key_press":77,"trial_type":"html-keyboard-response","trial_index":2,"time_elapsed":2247923,"internal_node_id":"0.0-2.0","match_key":"a","participant_id":"COGS219_2020_33"},{"rt":10587.240000022575,"stimulus":"<p>Thank you for agreeing to participate in this study.</p><p>If during any part of the procedure you must stop for any reason, please inform the researcher that you do not wish to continue.</p>","key_press":77,"trial_type":"html-keyboard-response","trial_index":3,"time_elapsed":2258515,"internal_node_id":"0.0-3.0","match_key":"a","participant_id":"COGS219_2020_33"},{"rt":17151.39499993529,"stimulus":"<p>In this experiment, you will hear various words or sounds and see pictures of various animals and objects.</p><p>Most of the images will be of common everyday objects, such as cars, cats, cows, firearms, frogs, chickens, whistles, trains, motorcycles, and dogs.</p><p>Some of the images will be real-life stills, while others will be cartoons.</p>","key_press":77,"trial_type":"html-keyboard-response","trial_index":4,"time_elapsed":2275668,"internal_node_id":"0.0-4.0","match_key":"a","participant_id":"COGS219_2020_33"},{"rt":13222.094999975525,"stimulus":"<p>Sometimes, the word/sound will match the picture, for example you'll hear a meowing sound and see a cat.</p><p>Other times, the picture will not match the sound or word.</p><p>Your task is to decide as quickly as possible if the word/sound matches the picture or not. </p>","key_press":77,"trial_type":"html-keyboard-response","trial_index":5,"time_elapsed":2288891,"internal_node_id":"0.0-5.0","match_key":"a","participant_id":"COGS219_2020_33"},{"rt":11910.724999965169,"stimulus":"<p>For example, if you hear the word \"cat\" or hear a meowing sound, and then see a picture of a cat, you should press the MATCH key.</p><p> If the sound and image do not match, press the NOT-MATCH key to indicate that there is not a match.</p>","key_press":77,"trial_type":"html-keyboard-response","trial_index":6,"time_elapsed":2300791,"internal_node_id":"0.0-6.0","match_key":"a","participant_id":"COGS219_2020_33"},{"rt":10798.73999999836,"stimulus":"<p>If you make a mistake, you will hear a buzzing sound instead of a more pleasant sound.</p><p> Try to respond as quickly as possible, while making as few errors as possible. If you are making mistakes, you are probably rushing.</p>","key_press":77,"trial_type":"html-keyboard-response","trial_index":7,"time_elapsed":2311591,"internal_node_id":"0.0-7.0","match_key":"a","participant_id":"COGS219_2020_33"},{"rt":10438.725000014529,"stimulus":"<p>Please try to not move or blink your eyes during the presentation of the images. You can move and blink between images.</p><p>During the experiment there will be some breaks during which you can rest your eyes.</p>","key_press":77,"trial_type":"html-keyboard-response","trial_index":8,"time_elapsed":2322031,"internal_node_id":"0.0-8.0","match_key":"a","participant_id":"COGS219_2020_33"},{"rt":37351.390000083484,"stimulus":"<p>We will begin with 10 practice trials. Please let the experimenter know if you have any questions.</p>","key_press":76,"trial_type":"html-keyboard-response","trial_index":9,"time_elapsed":2359384,"internal_node_id":"0.0-9.0","match_key":"a","participant_id":"COGS219_2020_33"},{"rt":null,"stimulus":"Sounds/cat_sound.wav","key_press":null,"block":0,"trial_type":"audio-keyboard-response","trial_index":10,"time_elapsed":2360306,"internal_node_id":"0.0-10.0-0.0","match_key":"a","participant_id":"COGS219_2020_33"},{"rt":null,"stimulus":"<p style=\"font-size: 48px;\">+</p>","key_press":null,"block":0,"trial_type":"html-keyboard-response","trial_index":11,"time_elapsed":2361312,"internal_node_id":"0.0-10.0-1.0","match_key":"a","participant_id":"COGS219_2020_33"},{"rt":1408.449999988079,"stimulus":"Images/motorcycle_2.png","key_press":76,"stim_onset":1583001708903,"block":0,"match_type":"non-match","image_category":"motorcycle","sound_category":"cat","audio_type":"sound","phase":"practice","trial_type":"image-keyboard-response","trial_index":12,"time_elapsed":2362723,"internal_node_id":"0.0-10.0-2.0","match_key":"a","participant_id":"COGS219_2020_33","correct":true},{"rt":null,"stimulus":"Sounds/correct.wav","key_press":null,"block":0,"trial_type":"audio-keyboard-response","trial_index":13,"time_elapsed":2364733,"internal_node_id":"0.0-10.0-3.0","match_key":"a","participant_id":"COGS219_2020_33"},{"rt":null,"stimulus":"Sounds/car_label.wav","key_press":null,"block":0,"trial_type":"audio-keyboard-response","trial_index":14,"time_elapsed":2365818,"internal_node_id":"0.0-10.0-0.1","match_key":"a","participant_id":"COGS219_2020_33"},{"rt":null,"stimulus":"<p style=\"font-size: 48px;\">+</p>","key_press":null,"block":0,"trial_type":"html-keyboard-response","trial_index":15,"time_elapsed":2366812,"internal_node_id":"0.0-10.0-1.1","match_key":"a","participant_id":"COGS219_2020_33"},{"rt":845.075000077486,"stimulus":"Images/cow_3.png","key_press":76,"stim_onset":1583001714403,"block":0,"match_type":"non-match","image_category":"cow","sound_category":"car","audio_type":"label","phase":"practice","trial_type":"image-keyboard-response","trial_index":16,"time_elapsed":2367659,"internal_node_id":"0.0-10.0-2.1","match_key":"a","participant_id":"COGS219_2020_33","correct":true},{"rt":null,"stimulus":"Sounds/correct.wav","key_press":null,"block":0,"trial_type":"audio-keyboard-response","trial_index":17,"time_elapsed":2369668,"internal_node_id":"0.0-10.0-3.1","match_key":"a","participant_id":"COGS219_2020_33"},{"rt":null,"stimulus":"Sounds/whistle_label.wav","key_press":null,"block":0,"trial_type":"audio-keyboard-response","trial_index":18,"time_elapsed":2370358,"internal_node_id":"0.0-10.0-0.2","match_key":"a","participant_id":"COGS219_2020_33"},{"rt":null,"stimulus":"<p style=\"font-size: 48px;\">+</p>","key_press":null,"block":0,"trial_type":"html-keyboard-response","trial_index":19,"time_elapsed":2371363,"internal_node_id":"0.0-10.0-1.2","match_key":"a","participant_id":"COGS219_2020_33"},{"rt":847.2750000655651,"stimulus":"Images/motorcycle_1.png","key_press":76,"stim_onset":1583001718952,"block":0,"match_type":"non-match","image_category":"motorcycle","sound_category":"whistle","audio_type":"label","phase":"practice","trial_type":"image-keyboard-response","trial_index":20,"time_elapsed":2372211,"internal_node_id":"0.0-10.0-2.2","match_key":"a","participant_id":"COGS219_2020_33","correct":true},{"rt":null,"stimulus":"Sounds/correct.wav","key_press":null,"block":0,"trial_type":"audio-keyboard-response","trial_index":21,"time_elapsed":2374220,"internal_node_id":"0.0-10.0-3.2","match_key":"a","participant_id":"COGS219_2020_33"},{"rt":null,"stimulus":"Sounds/rooster_sound.wav","key_press":null,"block":0,"trial_type":"audio-keyboard-response","trial_index":22,"time_elapsed":2374918,"internal_node_id":"0.0-10.0-0.3","match_key":"a","participant_id":"COGS219_2020_33"},{"rt":null,"stimulus":"<p style=\"font-size: 48px;\">+</p>","key_press":null,"block":0,"trial_type":"html-keyboard-response","trial_index":23,"time_elapsed":2375912,"internal_node_id":"0.0-10.0-1.3","match_key":"a","participant_id":"COGS219_2020_33"},{"rt":1065.1399999624118,"stimulus":"Images/whistle_1.png","key_press":76,"stim_onset":1583001723502,"block":0,"match_type":"non-match","image_category":"whistle","sound_category":"rooster","audio_type":"sound","phase":"practice","trial_type":"image-keyboard-response","trial_index":24,"time_elapsed":2376979,"internal_node_id":"0.0-10.0-2.3","match_key":"a","participant_id":"COGS219_2020_33","correct":true},{"rt":null,"stimulus":"Sounds/correct.wav","key_press":null,"block":0,"trial_type":"audio-keyboard-response","trial_index":25,"time_elapsed":2378984,"internal_node_id":"0.0-10.0-3.3","match_key":"a","participant_id":"COGS219_2020_33"},{"rt":null,"stimulus":"Sounds/gun_sound.wav","key_press":null,"block":0,"trial_type":"audio-keyboard-response","trial_index":26,"time_elapsed":2379558,"internal_node_id":"0.0-10.0-0.4","match_key":"a","participant_id":"COGS219_2020_33"},{"rt":null,"stimulus":"<p style=\"font-size: 48px;\">+</p>","key_press":null,"block":0,"trial_type":"html-keyboard-response","trial_index":27,"time_elapsed":2380563,"internal_node_id":"0.0-10.0-1.4","match_key":"a","participant_id":"COGS219_2020_33"},{"rt":886.8050000164658,"stimulus":"Images/cow_1.png","key_press":76,"stim_onset":1583001728153,"block":0,"match_type":"non-match","image_category":"cow","sound_category":"gun","audio_type":"sound","phase":"practice","trial_type":"image-keyboard-response","trial_index":28,"time_elapsed":2381451,"internal_node_id":"0.0-10.0-2.4","match_key":"a","participant_id":"COGS219_2020_33","correct":true},{"rt":null,"stimulus":"Sounds/correct.wav","key_press":null,"block":0,"trial_type":"audio-keyboard-response","trial_index":29,"time_elapsed":2383466,"internal_node_id":"0.0-10.0-3.4","match_key":"a","participant_id":"COGS219_2020_33"},{"rt":null,"stimulus":"Sounds/whistle_label.wav","key_press":null,"block":0,"trial_type":"audio-keyboard-response","trial_index":30,"time_elapsed":2384138,"internal_node_id":"0.0-10.0-0.5","match_key":"a","participant_id":"COGS219_2020_33"},{"rt":null,"stimulus":"<p style=\"font-size: 48px;\">+</p>","key_press":null,"block":0,"trial_type":"html-keyboard-response","trial_index":31,"time_elapsed":2385129,"internal_node_id":"0.0-10.0-1.5","match_key":"a","participant_id":"COGS219_2020_33"},{"rt":520.5299999797717,"stimulus":"Images/whistle_1.png","key_press":65,"stim_onset":1583001732719,"block":0,"match_type":"match","image_category":"whistle","sound_category":"whistle","audio_type":"label","phase":"practice","trial_type":"image-keyboard-response","trial_index":32,"time_elapsed":2385651,"internal_node_id":"0.0-10.0-2.5","match_key":"a","participant_id":"COGS219_2020_33","correct":true},{"rt":null,"stimulus":"Sounds/correct.wav","key_press":null,"block":0,"trial_type":"audio-keyboard-response","trial_index":33,"time_elapsed":2387667,"internal_node_id":"0.0-10.0-3.5","match_key":"a","participant_id":"COGS219_2020_33"},{"rt":null,"stimulus":"Sounds/cat_sound.wav","key_press":null,"block":0,"trial_type":"audio-keyboard-response","trial_index":34,"time_elapsed":2388498,"internal_node_id":"0.0-10.0-0.6","match_key":"a","participant_id":"COGS219_2020_33"},{"rt":null,"stimulus":"<p style=\"font-size: 48px;\">+</p>","key_press":null,"block":0,"trial_type":"html-keyboard-response","trial_index":35,"time_elapsed":2389496,"internal_node_id":"0.0-10.0-1.6","match_key":"a","participant_id":"COGS219_2020_33"},{"rt":761.6249999264255,"stimulus":"Images/frog_cartoon.png","key_press":76,"stim_onset":1583001737086,"block":0,"match_type":"non-match","image_category":"frog","sound_category":"cat","audio_type":"sound","phase":"practice","trial_type":"image-keyboard-response","trial_index":36,"time_elapsed":2390259,"internal_node_id":"0.0-10.0-2.6","match_key":"a","participant_id":"COGS219_2020_33","correct":true},{"rt":null,"stimulus":"Sounds/correct.wav","key_press":null,"block":0,"trial_type":"audio-keyboard-response","trial_index":37,"time_elapsed":2392269,"internal_node_id":"0.0-10.0-3.6","match_key":"a","participant_id":"COGS219_2020_33"},{"rt":null,"stimulus":"Sounds/cow_sound.wav","key_press":null,"block":0,"trial_type":"audio-keyboard-response","trial_index":38,"time_elapsed":2393298,"internal_node_id":"0.0-10.0-0.7","match_key":"a","participant_id":"COGS219_2020_33"},{"rt":null,"stimulus":"<p style=\"font-size: 48px;\">+</p>","key_press":null,"block":0,"trial_type":"html-keyboard-response","trial_index":39,"time_elapsed":2394296,"internal_node_id":"0.0-10.0-1.7","match_key":"a","participant_id":"COGS219_2020_33"},{"rt":1017.5949999829754,"stimulus":"Images/cow_2.png","key_press":65,"stim_onset":1583001741886,"block":0,"match_type":"match","image_category":"cow","sound_category":"cow","audio_type":"sound","phase":"practice","trial_type":"image-keyboard-response","trial_index":40,"time_elapsed":2395315,"internal_node_id":"0.0-10.0-2.7","match_key":"a","participant_id":"COGS219_2020_33","correct":true},{"rt":null,"stimulus":"Sounds/correct.wav","key_press":null,"block":0,"trial_type":"audio-keyboard-response","trial_index":41,"time_elapsed":2397318,"internal_node_id":"0.0-10.0-3.7","match_key":"a","participant_id":"COGS219_2020_33"},{"rt":null,"stimulus":"Sounds/cow_sound.wav","key_press":null,"block":0,"trial_type":"audio-keyboard-response","trial_index":42,"time_elapsed":2398318,"internal_node_id":"0.0-10.0-0.8","match_key":"a","participant_id":"COGS219_2020_33"},{"rt":null,"stimulus":"<p style=\"font-size: 48px;\">+</p>","key_press":null,"block":0,"trial_type":"html-keyboard-response","trial_index":43,"time_elapsed":2399313,"internal_node_id":"0.0-10.0-1.8","match_key":"a","participant_id":"COGS219_2020_33"},{"rt":585.1350000593811,"stimulus":"Images/frog_1.png","key_press":76,"stim_onset":1583001746903,"block":0,"match_type":"non-match","image_category":"frog","sound_category":"cow","audio_type":"sound","phase":"practice","trial_type":"image-keyboard-response","trial_index":44,"time_elapsed":2399899,"internal_node_id":"0.0-10.0-2.8","match_key":"a","participant_id":"COGS219_2020_33","correct":true},{"rt":null,"stimulus":"Sounds/correct.wav","key_press":null,"block":0,"trial_type":"audio-keyboard-response","trial_index":45,"time_elapsed":2401917,"internal_node_id":"0.0-10.0-3.8","match_key":"a","participant_id":"COGS219_2020_33"},{"rt":null,"stimulus":"Sounds/cat_sound.wav","key_press":null,"block":0,"trial_type":"audio-keyboard-response","trial_index":46,"time_elapsed":2402738,"internal_node_id":"0.0-10.0-0.9","match_key":"a","participant_id":"COGS219_2020_33"},{"rt":null,"stimulus":"<p style=\"font-size: 48px;\">+</p>","key_press":null,"block":0,"trial_type":"html-keyboard-response","trial_index":47,"time_elapsed":2403729,"internal_node_id":"0.0-10.0-1.9","match_key":"a","participant_id":"COGS219_2020_33"},{"rt":640.1599999517202,"stimulus":"Images/cat_1.png","key_press":65,"stim_onset":1583001751319,"block":0,"match_type":"match","image_category":"cat","sound_category":"cat","audio_type":"sound","phase":"practice","trial_type":"image-keyboard-response","trial_index":48,"time_elapsed":2404371,"internal_node_id":"0.0-10.0-2.9","match_key":"a","participant_id":"COGS219_2020_33","correct":true},{"rt":null,"stimulus":"Sounds/correct.wav","key_press":null,"block":0,"trial_type":"audio-keyboard-response","trial_index":49,"time_elapsed":2406385,"internal_node_id":"0.0-10.0-3.9","match_key":"a","participant_id":"COGS219_2020_33"},{"rt":39889.830000000075,"stimulus":"<p>The rest of the experiment is divided into five blocks with 100 trials in each block. It will take about 45 minutes to complete.</p><p>The experimenter will be in the outer room and you can communicate with them through the monitor if you have any questions or wish to stop the experiment.</p>","key_press":76,"trial_type":"html-keyboard-response","trial_index":50,"time_elapsed":2446274,"internal_node_id":"0.0-11.0","match_key":"a","participant_id":"COGS219_2020_33"},{"rt":6342.429999960586,"stimulus":"<p>Remember, please try not to move or blink your eyes during the presentation of the images. </p><p>At the end of the experiment, we will show you your scores on the task so you can see how you did.</p><p>The experiment will start on the next screen.</p>","key_press":76,"trial_type":"html-keyboard-response","trial_index":51,"time_elapsed":2452618,"internal_node_id":"0.0-12.0","match_key":"a","participant_id":"COGS219_2020_33"},{"rt":null,"stimulus":"Sounds/car_sound.wav","key_press":null,"block":1,"trial_type":"audio-keyboard-response","trial_index":52,"time_elapsed":2455722,"internal_node_id":"0.0-13.0-0.0","match_key":"a","participant_id":"COGS219_2020_33"},{"rt":null,"stimulus":"<p style=\"font-size: 48px;\">+</p>","key_press":null,"block":1,"trial_type":"html-keyboard-response","trial_index":53,"time_elapsed":2456713,"internal_node_id":"0.0-13.0-1.0","match_key":"a","participant_id":"COGS219_2020_33"},{"rt":904.4749999884516,"stimulus":"Images/gun_cartoon.png","key_press":76,"stim_onset":1583001804303,"block":1,"match_type":"non-match","image_category":"gun","sound_category":"car","audio_type":"sound","phase":"test","trial_type":"image-keyboard-response","trial_index":54,"time_elapsed":2457618,"internal_node_id":"0.0-13.0-2.0","match_key":"a","participant_id":"COGS219_2020_33","correct":true},{"rt":null,"stimulus":"Sounds/correct.wav","key_press":null,"block":1,"trial_type":"audio-keyboard-response","trial_index":55,"time_elapsed":2459632,"internal_node_id":"0.0-13.0-3.0","match_key":"a","participant_id":"COGS219_2020_33"},{"rt":null,"stimulus":"Sounds/frog_label.wav","key_press":null,"block":1,"trial_type":"audio-keyboard-response","trial_index":56,"time_elapsed":2460523,"internal_node_id":"0.0-13.0-0.1","match_key":"a","participant_id":"COGS219_2020_33"},{"rt":null,"stimulus":"<p style=\"font-size: 48px;\">+</p>","key_press":null,"block":1,"trial_type":"html-keyboard-response","trial_index":57,"time_elapsed":2461513,"internal_node_id":"0.0-13.0-1.1","match_key":"a","participant_id":"COGS219_2020_33"},{"rt":656.224999926053,"stimulus":"Images/gun_3.png","key_press":76,"stim_onset":1583001809103,"block":1,"match_type":"non-match","image_category":"gun","sound_category":"frog","audio_type":"label","phase":"test","trial_type":"image-keyboard-response","trial_index":58,"time_elapsed":2462170,"internal_node_id":"0.0-13.0-2.1","match_key":"a","participant_id":"COGS219_2020_33","correct":true},{"rt":null,"stimulus":"Sounds/correct.wav","key_press":null,"block":1,"trial_type":"audio-keyboard-response","trial_index":59,"time_elapsed":2464183,"internal_node_id":"0.0-13.0-3.1","match_key":"a","participant_id":"COGS219_2020_33"},{"rt":null,"stimulus":"Sounds/gun_sound.wav","key_press":null,"block":1,"trial_type":"audio-keyboard-response","trial_index":60,"time_elapsed":2464762,"internal_node_id":"0.0-13.0-0.2","match_key":"a","participant_id":"COGS219_2020_33"},{"rt":null,"stimulus":"<p style=\"font-size: 48px;\">+</p>","key_press":null,"block":1,"trial_type":"html-keyboard-response","trial_index":61,"time_elapsed":2465762,"internal_node_id":"0.0-13.0-1.2","match_key":"a","participant_id":"COGS219_2020_33"},{"rt":646.7399999964982,"stimulus":"Images/frog_3.png","key_press":76,"stim_onset":1583001813353,"block":1,"match_type":"non-match","image_category":"frog","sound_category":"gun","audio_type":"sound","phase":"test","trial_type":"image-keyboard-response","trial_index":62,"time_elapsed":2466410,"internal_node_id":"0.0-13.0-2.2","match_key":"a","participant_id":"COGS219_2020_33","correct":true},{"rt":null,"stimulus":"Sounds/correct.wav","key_press":null,"block":1,"trial_type":"audio-keyboard-response","trial_index":63,"time_elapsed":2468419,"internal_node_id":"0.0-13.0-3.2","match_key":"a","participant_id":"COGS219_2020_33"},{"rt":null,"stimulus":"Sounds/frog_sound.wav","key_press":null,"block":1,"trial_type":"audio-keyboard-response","trial_index":64,"time_elapsed":2469322,"internal_node_id":"0.0-13.0-0.3","match_key":"a","participant_id":"COGS219_2020_33"},{"rt":null,"stimulus":"<p style=\"font-size: 48px;\">+</p>","key_press":null,"block":1,"trial_type":"html-keyboard-response","trial_index":65,"time_elapsed":2470313,"internal_node_id":"0.0-13.0-1.3","match_key":"a","participant_id":"COGS219_2020_33"},{"rt":648.2149999355897,"stimulus":"Images/motorcycle_3.png","key_press":76,"stim_onset":1583001817903,"block":1,"match_type":"non-match","image_category":"motorcycle","sound_category":"frog","audio_type":"sound","phase":"test","trial_type":"image-keyboard-response","trial_index":66,"time_elapsed":2470962,"internal_node_id":"0.0-13.0-2.3","match_key":"a","participant_id":"COGS219_2020_33","correct":true},{"rt":null,"stimulus":"Sounds/correct.wav","key_press":null,"block":1,"trial_type":"audio-keyboard-response","trial_index":67,"time_elapsed":2472969,"internal_node_id":"0.0-13.0-3.3","match_key":"a","participant_id":"COGS219_2020_33"},{"rt":null,"stimulus":"Sounds/whistle_label.wav","key_press":null,"block":1,"trial_type":"audio-keyboard-response","trial_index":68,"time_elapsed":2473662,"internal_node_id":"0.0-13.0-0.4","match_key":"a","participant_id":"COGS219_2020_33"},{"rt":null,"stimulus":"<p style=\"font-size: 48px;\">+</p>","key_press":null,"block":1,"trial_type":"html-keyboard-response","trial_index":69,"time_elapsed":2474663,"internal_node_id":"0.0-13.0-1.4","match_key":"a","participant_id":"COGS219_2020_33"},{"rt":633.9150000130758,"stimulus":"Images/whistle_orig.png","key_press":65,"stim_onset":1583001822253,"block":1,"match_type":"match","image_category":"whistle","sound_category":"whistle","audio_type":"label","phase":"test","trial_type":"image-keyboard-response","trial_index":70,"time_elapsed":2475298,"internal_node_id":"0.0-13.0-2.4","match_key":"a","participant_id":"COGS219_2020_33","correct":true},{"rt":null,"stimulus":"Sounds/correct.wav","key_press":null,"block":1,"trial_type":"audio-keyboard-response","trial_index":71,"time_elapsed":2477301,"internal_node_id":"0.0-13.0-3.4","match_key":"a","participant_id":"COGS219_2020_33"},{"rt":null,"stimulus":"Sounds/cat_label.wav","key_press":null,"block":1,"trial_type":"audio-keyboard-response","trial_index":72,"time_elapsed":2478142,"internal_node_id":"0.0-13.0-0.5","match_key":"a","participant_id":"COGS219_2020_33"},{"rt":null,"stimulus":"<p style=\"font-size: 48px;\">+</p>","key_press":null,"block":1,"trial_type":"html-keyboard-response","trial_index":73,"time_elapsed":2479146,"internal_node_id":"0.0-13.0-1.5","match_key":"a","participant_id":"COGS219_2020_33"},{"rt":590.8399999607354,"stimulus":"Images/cow_2.png","key_press":76,"stim_onset":1583001826736,"block":1,"match_type":"non-match","image_category":"cow","sound_category":"cat","audio_type":"label","phase":"test","trial_type":"image-keyboard-response","trial_index":74,"time_elapsed":2479738,"internal_node_id":"0.0-13.0-2.5","match_key":"a","participant_id":"COGS219_2020_33","correct":true},{"rt":null,"stimulus":"Sounds/correct.wav","key_press":null,"block":1,"trial_type":"audio-keyboard-response","trial_index":75,"time_elapsed":2481751,"internal_node_id":"0.0-13.0-3.5","match_key":"a","participant_id":"COGS219_2020_33"},{"rt":null,"stimulus":"Sounds/gun_sound.wav","key_press":null,"block":1,"trial_type":"audio-keyboard-response","trial_index":76,"time_elapsed":2482322,"internal_node_id":"0.0-13.0-0.6","match_key":"a","participant_id":"COGS219_2020_33"},{"rt":null,"stimulus":"<p style=\"font-size: 48px;\">+</p>","key_press":null,"block":1,"trial_type":"html-keyboard-response","trial_index":77,"time_elapsed":2483313,"internal_node_id":"0.0-13.0-1.6","match_key":"a","participant_id":"COGS219_2020_33"},{"rt":1488.3849999168888,"stimulus":"Images/gun_cartoon.png","key_press":76,"stim_onset":1583001830903,"block":1,"match_type":"match","image_category":"gun","sound_category":"gun","audio_type":"sound","phase":"test","trial_type":"image-keyboard-response","trial_index":78,"time_elapsed":2484802,"internal_node_id":"0.0-13.0-2.6","match_key":"a","participant_id":"COGS219_2020_33","correct":false},{"rt":null,"stimulus":"Sounds/incorrect.wav","key_press":null,"block":1,"trial_type":"audio-keyboard-response","trial_index":79,"time_elapsed":2486819,"internal_node_id":"0.0-13.0-3.6","match_key":"a","participant_id":"COGS219_2020_33"},{"rt":null,"stimulus":"Sounds/frog_sound.wav","key_press":null,"block":1,"trial_type":"audio-keyboard-response","trial_index":80,"time_elapsed":2487722,"internal_node_id":"0.0-13.0-0.7","match_key":"a","participant_id":"COGS219_2020_33"},{"rt":null,"stimulus":"<p style=\"font-size: 48px;\">+</p>","key_press":null,"block":1,"trial_type":"html-keyboard-response","trial_index":81,"time_elapsed":2488713,"internal_node_id":"0.0-13.0-1.7","match_key":"a","participant_id":"COGS219_2020_33"},{"rt":944.1250000381842,"stimulus":"Images/car_3.png","key_press":76,"stim_onset":1583001836303,"block":1,"match_type":"non-match","image_category":"car","sound_category":"frog","audio_type":"sound","phase":"test","trial_type":"image-keyboard-response","trial_index":82,"time_elapsed":2489658,"internal_node_id":"0.0-13.0-2.7","match_key":"a","participant_id":"COGS219_2020_33","correct":true},{"rt":null,"stimulus":"Sounds/correct.wav","key_press":null,"block":1,"trial_type":"audio-keyboard-response","trial_index":83,"time_elapsed":2491668,"internal_node_id":"0.0-13.0-3.7","match_key":"a","participant_id":"COGS219_2020_33"},{"rt":null,"stimulus":"Sounds/motorcycle_label.wav","key_press":null,"block":1,"trial_type":"audio-keyboard-response","trial_index":84,"time_elapsed":2492802,"internal_node_id":"0.0-13.0-0.8","match_key":"a","participant_id":"COGS219_2020_33"},{"rt":null,"stimulus":"<p style=\"font-size: 48px;\">+</p>","key_press":null,"block":1,"trial_type":"html-keyboard-response","trial_index":85,"time_elapsed":2493796,"internal_node_id":"0.0-13.0-1.8","match_key":"a","participant_id":"COGS219_2020_33"},{"rt":804.7349998960271,"stimulus":"Images/motorcycle_3.png","key_press":65,"stim_onset":1583001841386,"block":1,"match_type":"match","image_category":"motorcycle","sound_category":"motorcycle","audio_type":"label","phase":"test","trial_type":"image-keyboard-response","trial_index":86,"time_elapsed":2494602,"internal_node_id":"0.0-13.0-2.8","match_key":"a","participant_id":"COGS219_2020_33","correct":true},{"rt":null,"stimulus":"Sounds/correct.wav","key_press":null,"block":1,"trial_type":"audio-keyboard-response","trial_index":87,"time_elapsed":2496619,"internal_node_id":"0.0-13.0-3.8","match_key":"a","participant_id":"COGS219_2020_33"},{"rt":null,"stimulus":"Sounds/cat_label.wav","key_press":null,"block":1,"trial_type":"audio-keyboard-response","trial_index":88,"time_elapsed":2497442,"internal_node_id":"0.0-13.0-0.9","match_key":"a","participant_id":"COGS219_2020_33"},{"rt":null,"stimulus":"<p style=\"font-size: 48px;\">+</p>","key_press":null,"block":1,"trial_type":"html-keyboard-response","trial_index":89,"time_elapsed":2498446,"internal_node_id":"0.0-13.0-1.9","match_key":"a","participant_id":"COGS219_2020_33"},{"rt":714.9999999674037,"stimulus":"Images/cat_2.png","key_press":65,"stim_onset":1583001846036,"block":1,"match_type":"match","image_category":"cat","sound_category":"cat","audio_type":"label","phase":"test","trial_type":"image-keyboard-response","trial_index":90,"time_elapsed":2499162,"internal_node_id":"0.0-13.0-2.9","match_key":"a","participant_id":"COGS219_2020_33","correct":true},{"rt":null,"stimulus":"Sounds/correct.wav","key_press":null,"block":1,"trial_type":"audio-keyboard-response","trial_index":91,"time_elapsed":2501170,"internal_node_id":"0.0-13.0-3.9","match_key":"a","participant_id":"COGS219_2020_33"},{"rt":null,"stimulus":"Sounds/rooster_label.wav","key_press":null,"block":1,"trial_type":"audio-keyboard-response","trial_index":92,"time_elapsed":2501863,"internal_node_id":"0.0-13.0-0.10","match_key":"a","participant_id":"COGS219_2020_33"},{"rt":null,"stimulus":"<p style=\"font-size: 48px;\">+</p>","key_press":null,"block":1,"trial_type":"html-keyboard-response","trial_index":93,"time_elapsed":2502864,"internal_node_id":"0.0-13.0-1.10","match_key":"a","participant_id":"COGS219_2020_33"},{"rt":993.8400000100955,"stimulus":"Images/rooster_3.png","key_press":65,"stim_onset":1583001850454,"block":1,"match_type":"match","image_category":"rooster","sound_category":"rooster","audio_type":"label","phase":"test","trial_type":"image-keyboard-response","trial_index":94,"time_elapsed":2503859,"internal_node_id":"0.0-13.0-2.10","match_key":"a","participant_id":"COGS219_2020_33","correct":true},{"rt":null,"stimulus":"Sounds/correct.wav","key_press":null,"block":1,"trial_type":"audio-keyboard-response","trial_index":95,"time_elapsed":2505866,"internal_node_id":"0.0-13.0-3.10","match_key":"a","participant_id":"COGS219_2020_33"},{"rt":null,"stimulus":"Sounds/dog_sound.wav","key_press":null,"block":1,"trial_type":"audio-keyboard-response","trial_index":96,"time_elapsed":2506583,"internal_node_id":"0.0-13.0-0.11","match_key":"a","participant_id":"COGS219_2020_33"},{"rt":null,"stimulus":"<p style=\"font-size: 48px;\">+</p>","key_press":null,"block":1,"trial_type":"html-keyboard-response","trial_index":97,"time_elapsed":2507580,"internal_node_id":"0.0-13.0-1.11","match_key":"a","participant_id":"COGS219_2020_33"},{"rt":933.3450000267476,"stimulus":"Images/dog_2.png","key_press":65,"stim_onset":1583001855171,"block":1,"match_type":"match","image_category":"dog","sound_category":"dog","audio_type":"sound","phase":"test","trial_type":"image-keyboard-response","trial_index":98,"time_elapsed":2508515,"internal_node_id":"0.0-13.0-2.11","match_key":"a","participant_id":"COGS219_2020_33","correct":true},{"rt":null,"stimulus":"Sounds/correct.wav","key_press":null,"block":1,"trial_type":"audio-keyboard-response","trial_index":99,"time_elapsed":2510519,"internal_node_id":"0.0-13.0-3.11","match_key":"a","participant_id":"COGS219_2020_33"},{"rt":null,"stimulus":"Sounds/frog_sound.wav","key_press":null,"block":1,"trial_type":"audio-keyboard-response","trial_index":100,"time_elapsed":2511423,"internal_node_id":"0.0-13.0-0.12","match_key":"a","participant_id":"COGS219_2020_33"},{"rt":null,"stimulus":"<p style=\"font-size: 48px;\">+</p>","key_press":null,"block":1,"trial_type":"html-keyboard-response","trial_index":101,"time_elapsed":2512414,"internal_node_id":"0.0-13.0-1.12","match_key":"a","participant_id":"COGS219_2020_33"},{"rt":932.0949999382719,"stimulus":"Images/frog_1.png","key_press":65,"stim_onset":1583001860004,"block":1,"match_type":"match","image_category":"frog","sound_category":"frog","audio_type":"sound","phase":"test","trial_type":"image-keyboard-response","trial_index":102,"time_elapsed":2513347,"internal_node_id":"0.0-13.0-2.12","match_key":"a","participant_id":"COGS219_2020_33","correct":true},{"rt":null,"stimulus":"Sounds/correct.wav","key_press":null,"block":1,"trial_type":"audio-keyboard-response","trial_index":103,"time_elapsed":2515355,"internal_node_id":"0.0-13.0-3.12","match_key":"a","participant_id":"COGS219_2020_33"},{"rt":null,"stimulus":"Sounds/whistle_label.wav","key_press":null,"block":1,"trial_type":"audio-keyboard-response","trial_index":104,"time_elapsed":2516063,"internal_node_id":"0.0-13.0-0.13","match_key":"a","participant_id":"COGS219_2020_33"},{"rt":null,"stimulus":"<p style=\"font-size: 48px;\">+</p>","key_press":null,"block":1,"trial_type":"html-keyboard-response","trial_index":105,"time_elapsed":2517064,"internal_node_id":"0.0-13.0-1.13","match_key":"a","participant_id":"COGS219_2020_33"},{"rt":873.7800000235438,"stimulus":"Images/whistle_2.png","key_press":65,"stim_onset":1583001864654,"block":1,"match_type":"match","image_category":"whistle","sound_category":"whistle","audio_type":"label","phase":"test","trial_type":"image-keyboard-response","trial_index":106,"time_elapsed":2517939,"internal_node_id":"0.0-13.0-2.13","match_key":"a","participant_id":"COGS219_2020_33","correct":true},{"rt":null,"stimulus":"Sounds/correct.wav","key_press":null,"block":1,"trial_type":"audio-keyboard-response","trial_index":107,"time_elapsed":2519952,"internal_node_id":"0.0-13.0-3.13","match_key":"a","participant_id":"COGS219_2020_33"},{"rt":null,"stimulus":"Sounds/train_label.wav","key_press":null,"block":1,"trial_type":"audio-keyboard-response","trial_index":108,"time_elapsed":2521223,"internal_node_id":"0.0-13.0-0.14","match_key":"a","participant_id":"COGS219_2020_33"},{"rt":null,"stimulus":"<p style=\"font-size: 48px;\">+</p>","key_press":null,"block":1,"trial_type":"html-keyboard-response","trial_index":109,"time_elapsed":2522214,"internal_node_id":"0.0-13.0-1.14","match_key":"a","participant_id":"COGS219_2020_33"},{"rt":843.6300000175834,"stimulus":"Images/car_1.png","key_press":76,"stim_onset":1583001869804,"block":1,"match_type":"non-match","image_category":"car","sound_category":"train","audio_type":"label","phase":"test","trial_type":"image-keyboard-response","trial_index":110,"time_elapsed":2523059,"internal_node_id":"0.0-13.0-2.14","match_key":"a","participant_id":"COGS219_2020_33","correct":true},{"rt":null,"stimulus":"Sounds/correct.wav","key_press":null,"block":1,"trial_type":"audio-keyboard-response","trial_index":111,"time_elapsed":2525068,"internal_node_id":"0.0-13.0-3.14","match_key":"a","participant_id":"COGS219_2020_33"},{"rt":null,"stimulus":"Sounds/dog_label.wav","key_press":null,"block":1,"trial_type":"audio-keyboard-response","trial_index":112,"time_elapsed":2525723,"internal_node_id":"0.0-13.0-0.15","match_key":"a","participant_id":"COGS219_2020_33"},{"rt":null,"stimulus":"<p style=\"font-size: 48px;\">+</p>","key_press":null,"block":1,"trial_type":"html-keyboard-response","trial_index":113,"time_elapsed":2526714,"internal_node_id":"0.0-13.0-1.15","match_key":"a","participant_id":"COGS219_2020_33"},{"rt":1199.7950000222772,"stimulus":"Images/cat_3.png","key_press":76,"stim_onset":1583001874304,"block":1,"match_type":"non-match","image_category":"cat","sound_category":"dog","audio_type":"label","phase":"test","trial_type":"image-keyboard-response","trial_index":114,"time_elapsed":2527915,"internal_node_id":"0.0-13.0-2.15","match_key":"a","participant_id":"COGS219_2020_33","correct":true},{"rt":null,"stimulus":"Sounds/correct.wav","key_press":null,"block":1,"trial_type":"audio-keyboard-response","trial_index":115,"time_elapsed":2529921,"internal_node_id":"0.0-13.0-3.15","match_key":"a","participant_id":"COGS219_2020_33"},{"rt":null,"stimulus":"Sounds/frog_label.wav","key_press":null,"block":1,"trial_type":"audio-keyboard-response","trial_index":116,"time_elapsed":2530823,"internal_node_id":"0.0-13.0-0.16","match_key":"a","participant_id":"COGS219_2020_33"},{"rt":null,"stimulus":"<p style=\"font-size: 48px;\">+</p>","key_press":null,"block":1,"trial_type":"html-keyboard-response","trial_index":117,"time_elapsed":2531814,"internal_node_id":"0.0-13.0-1.16","match_key":"a","participant_id":"COGS219_2020_33"},{"rt":811.6500000469387,"stimulus":"Images/frog_2.png","key_press":65,"stim_onset":1583001879404,"block":1,"match_type":"match","image_category":"frog","sound_category":"frog","audio_type":"label","phase":"test","trial_type":"image-keyboard-response","trial_index":118,"time_elapsed":2532627,"internal_node_id":"0.0-13.0-2.16","match_key":"a","participant_id":"COGS219_2020_33","correct":true},{"rt":null,"stimulus":"Sounds/correct.wav","key_press":null,"block":1,"trial_type":"audio-keyboard-response","trial_index":119,"time_elapsed":2534636,"internal_node_id":"0.0-13.0-3.16","match_key":"a","participant_id":"COGS219_2020_33"},{"rt":null,"stimulus":"Sounds/dog_sound.wav","key_press":null,"block":1,"trial_type":"audio-keyboard-response","trial_index":120,"time_elapsed":2535343,"internal_node_id":"0.0-13.0-0.17","match_key":"a","participant_id":"COGS219_2020_33"},{"rt":null,"stimulus":"<p style=\"font-size: 48px;\">+</p>","key_press":null,"block":1,"trial_type":"html-keyboard-response","trial_index":121,"time_elapsed":2536347,"internal_node_id":"0.0-13.0-1.17","match_key":"a","participant_id":"COGS219_2020_33"},{"rt":1030.1500000059605,"stimulus":"Images/rooster_3.png","key_press":76,"stim_onset":1583001883938,"block":1,"match_type":"non-match","image_category":"rooster","sound_category":"dog","audio_type":"sound","phase":"test","trial_type":"image-keyboard-response","trial_index":122,"time_elapsed":2537379,"internal_node_id":"0.0-13.0-2.17","match_key":"a","participant_id":"COGS219_2020_33","correct":true},{"rt":null,"stimulus":"Sounds/correct.wav","key_press":null,"block":1,"trial_type":"audio-keyboard-response","trial_index":123,"time_elapsed":2539396,"internal_node_id":"0.0-13.0-3.17","match_key":"a","participant_id":"COGS219_2020_33"},{"rt":null,"stimulus":"Sounds/motorcycle_label.wav","key_press":null,"block":1,"trial_type":"audio-keyboard-response","trial_index":124,"time_elapsed":2540523,"internal_node_id":"0.0-13.0-0.18","match_key":"a","participant_id":"COGS219_2020_33"},{"rt":null,"stimulus":"<p style=\"font-size: 48px;\">+</p>","key_press":null,"block":1,"trial_type":"html-keyboard-response","trial_index":125,"time_elapsed":2541514,"internal_node_id":"0.0-13.0-1.18","match_key":"a","participant_id":"COGS219_2020_33"},{"rt":999.6299999766052,"stimulus":"Images/car_orig.png","key_press":76,"stim_onset":1583001889104,"block":1,"match_type":"non-match","image_category":"car","sound_category":"motorcycle","audio_type":"label","phase":"test","trial_type":"image-keyboard-response","trial_index":126,"time_elapsed":2542515,"internal_node_id":"0.0-13.0-2.18","match_key":"a","participant_id":"COGS219_2020_33","correct":true},{"rt":null,"stimulus":"Sounds/correct.wav","key_press":null,"block":1,"trial_type":"audio-keyboard-response","trial_index":127,"time_elapsed":2544519,"internal_node_id":"0.0-13.0-3.18","match_key":"a","participant_id":"COGS219_2020_33"},{"rt":null,"stimulus":"Sounds/dog_sound.wav","key_press":null,"block":1,"trial_type":"audio-keyboard-response","trial_index":128,"time_elapsed":2545203,"internal_node_id":"0.0-13.0-0.19","match_key":"a","participant_id":"COGS219_2020_33"},{"rt":null,"stimulus":"<p style=\"font-size: 48px;\">+</p>","key_press":null,"block":1,"trial_type":"html-keyboard-response","trial_index":129,"time_elapsed":2546197,"internal_node_id":"0.0-13.0-1.19","match_key":"a","participant_id":"COGS219_2020_33"},{"rt":860.1650000782683,"stimulus":"Images/dog_1.png","key_press":65,"stim_onset":1583001893788,"block":1,"match_type":"match","image_category":"dog","sound_category":"dog","audio_type":"sound","phase":"test","trial_type":"image-keyboard-response","trial_index":130,"time_elapsed":2547059,"internal_node_id":"0.0-13.0-2.19","match_key":"a","participant_id":"COGS219_2020_33","correct":true},{"rt":null,"stimulus":"Sounds/correct.wav","key_press":null,"block":1,"trial_type":"audio-keyboard-response","trial_index":131,"time_elapsed":2549067,"internal_node_id":"0.0-13.0-3.19","match_key":"a","participant_id":"COGS219_2020_33"},{"rt":null,"stimulus":"Sounds/frog_sound.wav","key_press":null,"block":1,"trial_type":"audio-keyboard-response","trial_index":132,"time_elapsed":2549983,"internal_node_id":"0.0-13.0-0.20","match_key":"a","participant_id":"COGS219_2020_33"},{"rt":null,"stimulus":"<p style=\"font-size: 48px;\">+</p>","key_press":null,"block":1,"trial_type":"html-keyboard-response","trial_index":133,"time_elapsed":2550981,"internal_node_id":"0.0-13.0-1.20","match_key":"a","participant_id":"COGS219_2020_33"},{"rt":796.875,"stimulus":"Images/frog_cartoon.png","key_press":65,"stim_onset":1583001898571,"block":1,"match_type":"match","image_category":"frog","sound_category":"frog","audio_type":"sound","phase":"test","trial_type":"image-keyboard-response","trial_index":134,"time_elapsed":2551779,"internal_node_id":"0.0-13.0-2.20","match_key":"a","participant_id":"COGS219_2020_33","correct":true},{"rt":null,"stimulus":"Sounds/correct.wav","key_press":null,"block":1,"trial_type":"audio-keyboard-response","trial_index":135,"time_elapsed":2553789,"internal_node_id":"0.0-13.0-3.20","match_key":"a","participant_id":"COGS219_2020_33"},{"rt":null,"stimulus":"Sounds/rooster_label.wav","key_press":null,"block":1,"trial_type":"audio-keyboard-response","trial_index":136,"time_elapsed":2554483,"internal_node_id":"0.0-13.0-0.21","match_key":"a","participant_id":"COGS219_2020_33"},{"rt":null,"stimulus":"<p style=\"font-size: 48px;\">+</p>","key_press":null,"block":1,"trial_type":"html-keyboard-response","trial_index":137,"time_elapsed":2555481,"internal_node_id":"0.0-13.0-1.21","match_key":"a","participant_id":"COGS219_2020_33"},{"rt":848.9749999716878,"stimulus":"Images/rooster_1.png","key_press":65,"stim_onset":1583001903071,"block":1,"match_type":"match","image_category":"rooster","sound_category":"rooster","audio_type":"label","phase":"test","trial_type":"image-keyboard-response","trial_index":138,"time_elapsed":2556331,"internal_node_id":"0.0-13.0-2.21","match_key":"a","participant_id":"COGS219_2020_33","correct":true},{"rt":null,"stimulus":"Sounds/correct.wav","key_press":null,"block":1,"trial_type":"audio-keyboard-response","trial_index":139,"time_elapsed":2558338,"internal_node_id":"0.0-13.0-3.21","match_key":"a","participant_id":"COGS219_2020_33"},{"rt":null,"stimulus":"Sounds/cat_label.wav","key_press":null,"block":1,"trial_type":"audio-keyboard-response","trial_index":140,"time_elapsed":2559183,"internal_node_id":"0.0-13.0-0.22","match_key":"a","participant_id":"COGS219_2020_33"},{"rt":null,"stimulus":"<p style=\"font-size: 48px;\">+</p>","key_press":null,"block":1,"trial_type":"html-keyboard-response","trial_index":141,"time_elapsed":2560181,"internal_node_id":"0.0-13.0-1.22","match_key":"a","participant_id":"COGS219_2020_33"},{"rt":868.4900000225753,"stimulus":"Images/cat_cartoon.png","key_press":65,"stim_onset":1583001907771,"block":1,"match_type":"match","image_category":"cat","sound_category":"cat","audio_type":"label","phase":"test","trial_type":"image-keyboard-response","trial_index":142,"time_elapsed":2561051,"internal_node_id":"0.0-13.0-2.22","match_key":"a","participant_id":"COGS219_2020_33","correct":true},{"rt":null,"stimulus":"Sounds/correct.wav","key_press":null,"block":1,"trial_type":"audio-keyboard-response","trial_index":143,"time_elapsed":2563054,"internal_node_id":"0.0-13.0-3.22","match_key":"a","participant_id":"COGS219_2020_33"},{"rt":null,"stimulus":"Sounds/dog_sound.wav","key_press":null,"block":1,"trial_type":"audio-keyboard-response","trial_index":144,"time_elapsed":2563763,"internal_node_id":"0.0-13.0-0.23","match_key":"a","participant_id":"COGS219_2020_33"},{"rt":null,"stimulus":"<p style=\"font-size: 48px;\">+</p>","key_press":null,"block":1,"trial_type":"html-keyboard-response","trial_index":145,"time_elapsed":2564781,"internal_node_id":"0.0-13.0-1.23","match_key":"a","participant_id":"COGS219_2020_33"},{"rt":692.5300000002608,"stimulus":"Images/train_3.png","key_press":76,"stim_onset":1583001912372,"block":1,"match_type":"non-match","image_category":"train","sound_category":"dog","audio_type":"sound","phase":"test","trial_type":"image-keyboard-response","trial_index":146,"time_elapsed":2565475,"internal_node_id":"0.0-13.0-2.23","match_key":"a","participant_id":"COGS219_2020_33","correct":true},{"rt":null,"stimulus":"Sounds/correct.wav","key_press":null,"block":1,"trial_type":"audio-keyboard-response","trial_index":147,"time_elapsed":2567486,"internal_node_id":"0.0-13.0-3.23","match_key":"a","participant_id":"COGS219_2020_33"},{"rt":null,"stimulus":"Sounds/gun_label.wav","key_press":null,"block":1,"trial_type":"audio-keyboard-response","trial_index":148,"time_elapsed":2568063,"internal_node_id":"0.0-13.0-0.24","match_key":"a","participant_id":"COGS219_2020_33"},{"rt":null,"stimulus":"<p style=\"font-size: 48px;\">+</p>","key_press":null,"block":1,"trial_type":"html-keyboard-response","trial_index":149,"time_elapsed":2569081,"internal_node_id":"0.0-13.0-1.24","match_key":"a","participant_id":"COGS219_2020_33"},{"rt":936.9449999649078,"stimulus":"Images/gun_1.png","key_press":65,"stim_onset":1583001916671,"block":1,"match_type":"match","image_category":"gun","sound_category":"gun","audio_type":"label","phase":"test","trial_type":"image-keyboard-response","trial_index":150,"time_elapsed":2570019,"internal_node_id":"0.0-13.0-2.24","match_key":"a","participant_id":"COGS219_2020_33","correct":true},{"rt":null,"stimulus":"Sounds/correct.wav","key_press":null,"block":1,"trial_type":"audio-keyboard-response","trial_index":151,"time_elapsed":2572021,"internal_node_id":"0.0-13.0-3.24","match_key":"a","participant_id":"COGS219_2020_33"},{"rt":null,"stimulus":"Sounds/car_label.wav","key_press":null,"block":1,"trial_type":"audio-keyboard-response","trial_index":152,"time_elapsed":2573103,"internal_node_id":"0.0-13.0-0.25","match_key":"a","participant_id":"COGS219_2020_33"},{"rt":null,"stimulus":"<p style=\"font-size: 48px;\">+</p>","key_press":null,"block":1,"trial_type":"html-keyboard-response","trial_index":153,"time_elapsed":2574098,"internal_node_id":"0.0-13.0-1.25","match_key":"a","participant_id":"COGS219_2020_33"},{"rt":815.7600000267848,"stimulus":"Images/train_orig.png","key_press":76,"stim_onset":1583001921688,"block":1,"match_type":"non-match","image_category":"train","sound_category":"car","audio_type":"label","phase":"test","trial_type":"image-keyboard-response","trial_index":154,"time_elapsed":2574915,"internal_node_id":"0.0-13.0-2.25","match_key":"a","participant_id":"COGS219_2020_33","correct":true},{"rt":null,"stimulus":"Sounds/correct.wav","key_press":null,"block":1,"trial_type":"audio-keyboard-response","trial_index":155,"time_elapsed":2576920,"internal_node_id":"0.0-13.0-3.25","match_key":"a","participant_id":"COGS219_2020_33"},{"rt":null,"stimulus":"Sounds/cat_label.wav","key_press":null,"block":1,"trial_type":"audio-keyboard-response","trial_index":156,"time_elapsed":2577743,"internal_node_id":"0.0-13.0-0.26","match_key":"a","participant_id":"COGS219_2020_33"},{"rt":null,"stimulus":"<p style=\"font-size: 48px;\">+</p>","key_press":null,"block":1,"trial_type":"html-keyboard-response","trial_index":157,"time_elapsed":2578748,"internal_node_id":"0.0-13.0-1.26","match_key":"a","participant_id":"COGS219_2020_33"},{"rt":1109.305000049062,"stimulus":"Images/cat_3.png","key_press":65,"stim_onset":1583001926338,"block":1,"match_type":"match","image_category":"cat","sound_category":"cat","audio_type":"label","phase":"test","trial_type":"image-keyboard-response","trial_index":158,"time_elapsed":2579859,"internal_node_id":"0.0-13.0-2.26","match_key":"a","participant_id":"COGS219_2020_33","correct":true},{"rt":null,"stimulus":"Sounds/correct.wav","key_press":null,"block":1,"trial_type":"audio-keyboard-response","trial_index":159,"time_elapsed":2581868,"internal_node_id":"0.0-13.0-3.26","match_key":"a","participant_id":"COGS219_2020_33"},{"rt":null,"stimulus":"Sounds/whistle_label.wav","key_press":null,"block":1,"trial_type":"audio-keyboard-response","trial_index":160,"time_elapsed":2582563,"internal_node_id":"0.0-13.0-0.27","match_key":"a","participant_id":"COGS219_2020_33"},{"rt":null,"stimulus":"<p style=\"font-size: 48px;\">+</p>","key_press":null,"block":1,"trial_type":"html-keyboard-response","trial_index":161,"time_elapsed":2583581,"internal_node_id":"0.0-13.0-1.27","match_key":"a","participant_id":"COGS219_2020_33"},{"rt":1060.7549999840558,"stimulus":"Images/frog_cartoon.png","key_press":76,"stim_onset":1583001931171,"block":1,"match_type":"non-match","image_category":"frog","sound_category":"whistle","audio_type":"label","phase":"test","trial_type":"image-keyboard-response","trial_index":162,"time_elapsed":2584643,"internal_node_id":"0.0-13.0-2.27","match_key":"a","participant_id":"COGS219_2020_33","correct":true},{"rt":null,"stimulus":"Sounds/correct.wav","key_press":null,"block":1,"trial_type":"audio-keyboard-response","trial_index":163,"time_elapsed":2586652,"internal_node_id":"0.0-13.0-3.27","match_key":"a","participant_id":"COGS219_2020_33"},{"rt":null,"stimulus":"Sounds/frog_label.wav","key_press":null,"block":1,"trial_type":"audio-keyboard-response","trial_index":164,"time_elapsed":2587543,"internal_node_id":"0.0-13.0-0.28","match_key":"a","participant_id":"COGS219_2020_33"},{"rt":null,"stimulus":"<p style=\"font-size: 48px;\">+</p>","key_press":null,"block":1,"trial_type":"html-keyboard-response","trial_index":165,"time_elapsed":2588531,"internal_node_id":"0.0-13.0-1.28","match_key":"a","participant_id":"COGS219_2020_33"},{"rt":510.41999994777143,"stimulus":"Images/frog_3.png","key_press":65,"stim_onset":1583001936122,"block":1,"match_type":"match","image_category":"frog","sound_category":"frog","audio_type":"label","phase":"test","trial_type":"image-keyboard-response","trial_index":166,"time_elapsed":2589043,"internal_node_id":"0.0-13.0-2.28","match_key":"a","participant_id":"COGS219_2020_33","correct":true},{"rt":null,"stimulus":"Sounds/correct.wav","key_press":null,"block":1,"trial_type":"audio-keyboard-response","trial_index":167,"time_elapsed":2591053,"internal_node_id":"0.0-13.0-3.28","match_key":"a","participant_id":"COGS219_2020_33"},{"rt":null,"stimulus":"Sounds/car_sound.wav","key_press":null,"block":1,"trial_type":"audio-keyboard-response","trial_index":168,"time_elapsed":2592123,"internal_node_id":"0.0-13.0-0.29","match_key":"a","participant_id":"COGS219_2020_33"},{"rt":null,"stimulus":"<p style=\"font-size: 48px;\">+</p>","key_press":null,"block":1,"trial_type":"html-keyboard-response","trial_index":169,"time_elapsed":2593115,"internal_node_id":"0.0-13.0-1.29","match_key":"a","participant_id":"COGS219_2020_33"},{"rt":942.159999976866,"stimulus":"Images/whistle_orig.png","key_press":76,"stim_onset":1583001940705,"block":1,"match_type":"non-match","image_category":"whistle","sound_category":"car","audio_type":"sound","phase":"test","trial_type":"image-keyboard-response","trial_index":170,"time_elapsed":2594059,"internal_node_id":"0.0-13.0-2.29","match_key":"a","participant_id":"COGS219_2020_33","correct":true},{"rt":null,"stimulus":"Sounds/correct.wav","key_press":null,"block":1,"trial_type":"audio-keyboard-response","trial_index":171,"time_elapsed":2596069,"internal_node_id":"0.0-13.0-3.29","match_key":"a","participant_id":"COGS219_2020_33"},{"rt":null,"stimulus":"Sounds/dog_label.wav","key_press":null,"block":1,"trial_type":"audio-keyboard-response","trial_index":172,"time_elapsed":2596723,"internal_node_id":"0.0-13.0-0.30","match_key":"a","participant_id":"COGS219_2020_33"},{"rt":null,"stimulus":"<p style=\"font-size: 48px;\">+</p>","key_press":null,"block":1,"trial_type":"html-keyboard-response","trial_index":173,"time_elapsed":2597715,"internal_node_id":"0.0-13.0-1.30","match_key":"a","participant_id":"COGS219_2020_33"},{"rt":639.1600000206381,"stimulus":"Images/dog_cartoon.png","key_press":65,"stim_onset":1583001945305,"block":1,"match_type":"match","image_category":"dog","sound_category":"dog","audio_type":"label","phase":"test","trial_type":"image-keyboard-response","trial_index":174,"time_elapsed":2598355,"internal_node_id":"0.0-13.0-2.30","match_key":"a","participant_id":"COGS219_2020_33","correct":true},{"rt":null,"stimulus":"Sounds/correct.wav","key_press":null,"block":1,"trial_type":"audio-keyboard-response","trial_index":175,"time_elapsed":2600368,"internal_node_id":"0.0-13.0-3.30","match_key":"a","participant_id":"COGS219_2020_33"},{"rt":null,"stimulus":"Sounds/cow_label.wav","key_press":null,"block":1,"trial_type":"audio-keyboard-response","trial_index":176,"time_elapsed":2601383,"internal_node_id":"0.0-13.0-0.31","match_key":"a","participant_id":"COGS219_2020_33"},{"rt":null,"stimulus":"<p style=\"font-size: 48px;\">+</p>","key_press":null,"block":1,"trial_type":"html-keyboard-response","trial_index":177,"time_elapsed":2602381,"internal_node_id":"0.0-13.0-1.31","match_key":"a","participant_id":"COGS219_2020_33"},{"rt":748.2349999481812,"stimulus":"Images/cat_2.png","key_press":76,"stim_onset":1583001949972,"block":1,"match_type":"non-match","image_category":"cat","sound_category":"cow","audio_type":"label","phase":"test","trial_type":"image-keyboard-response","trial_index":178,"time_elapsed":2603131,"internal_node_id":"0.0-13.0-2.31","match_key":"a","participant_id":"COGS219_2020_33","correct":true},{"rt":null,"stimulus":"Sounds/correct.wav","key_press":null,"block":1,"trial_type":"audio-keyboard-response","trial_index":179,"time_elapsed":2605138,"internal_node_id":"0.0-13.0-3.31","match_key":"a","participant_id":"COGS219_2020_33"},{"rt":null,"stimulus":"Sounds/car_label.wav","key_press":null,"block":1,"trial_type":"audio-keyboard-response","trial_index":180,"time_elapsed":2606223,"internal_node_id":"0.0-13.0-0.32","match_key":"a","participant_id":"COGS219_2020_33"},{"rt":null,"stimulus":"<p style=\"font-size: 48px;\">+</p>","key_press":null,"block":1,"trial_type":"html-keyboard-response","trial_index":181,"time_elapsed":2607215,"internal_node_id":"0.0-13.0-1.32","match_key":"a","participant_id":"COGS219_2020_33"},{"rt":682.5950000202283,"stimulus":"Images/cat_orig.png","key_press":76,"stim_onset":1583001954805,"block":1,"match_type":"non-match","image_category":"cat","sound_category":"car","audio_type":"label","phase":"test","trial_type":"image-keyboard-response","trial_index":182,"time_elapsed":2607899,"internal_node_id":"0.0-13.0-2.32","match_key":"a","participant_id":"COGS219_2020_33","correct":true},{"rt":null,"stimulus":"Sounds/correct.wav","key_press":null,"block":1,"trial_type":"audio-keyboard-response","trial_index":183,"time_elapsed":2609904,"internal_node_id":"0.0-13.0-3.32","match_key":"a","participant_id":"COGS219_2020_33"},{"rt":null,"stimulus":"Sounds/car_sound.wav","key_press":null,"block":1,"trial_type":"audio-keyboard-response","trial_index":184,"time_elapsed":2610983,"internal_node_id":"0.0-13.0-0.33","match_key":"a","participant_id":"COGS219_2020_33"},{"rt":null,"stimulus":"<p style=\"font-size: 48px;\">+</p>","key_press":null,"block":1,"trial_type":"html-keyboard-response","trial_index":185,"time_elapsed":2611982,"internal_node_id":"0.0-13.0-1.33","match_key":"a","participant_id":"COGS219_2020_33"},{"rt":812.294999952428,"stimulus":"Images/car_1.png","key_press":65,"stim_onset":1583001959572,"block":1,"match_type":"match","image_category":"car","sound_category":"car","audio_type":"sound","phase":"test","trial_type":"image-keyboard-response","trial_index":186,"time_elapsed":2612795,"internal_node_id":"0.0-13.0-2.33","match_key":"a","participant_id":"COGS219_2020_33","correct":true},{"rt":null,"stimulus":"Sounds/correct.wav","key_press":null,"block":1,"trial_type":"audio-keyboard-response","trial_index":187,"time_elapsed":2614804,"internal_node_id":"0.0-13.0-3.33","match_key":"a","participant_id":"COGS219_2020_33"},{"rt":null,"stimulus":"Sounds/whistle_label.wav","key_press":null,"block":1,"trial_type":"audio-keyboard-response","trial_index":188,"time_elapsed":2615503,"internal_node_id":"0.0-13.0-0.34","match_key":"a","participant_id":"COGS219_2020_33"},{"rt":null,"stimulus":"<p style=\"font-size: 48px;\">+</p>","key_press":null,"block":1,"trial_type":"html-keyboard-response","trial_index":189,"time_elapsed":2616498,"internal_node_id":"0.0-13.0-1.34","match_key":"a","participant_id":"COGS219_2020_33"},{"rt":951.3199999928474,"stimulus":"Images/dog_orig.png","key_press":76,"stim_onset":1583001964088,"block":1,"match_type":"non-match","image_category":"dog","sound_category":"whistle","audio_type":"label","phase":"test","trial_type":"image-keyboard-response","trial_index":190,"time_elapsed":2617451,"internal_node_id":"0.0-13.0-2.34","match_key":"a","participant_id":"COGS219_2020_33","correct":true},{"rt":null,"stimulus":"Sounds/correct.wav","key_press":null,"block":1,"trial_type":"audio-keyboard-response","trial_index":191,"time_elapsed":2619455,"internal_node_id":"0.0-13.0-3.34","match_key":"a","participant_id":"COGS219_2020_33"},{"rt":null,"stimulus":"Sounds/motorcycle_sound.wav","key_press":null,"block":1,"trial_type":"audio-keyboard-response","trial_index":192,"time_elapsed":2620583,"internal_node_id":"0.0-13.0-0.35","match_key":"a","participant_id":"COGS219_2020_33"},{"rt":null,"stimulus":"<p style=\"font-size: 48px;\">+</p>","key_press":null,"block":1,"trial_type":"html-keyboard-response","trial_index":193,"time_elapsed":2621582,"internal_node_id":"0.0-13.0-1.35","match_key":"a","participant_id":"COGS219_2020_33"},{"rt":956.110000028275,"stimulus":"Images/motorcycle_orig.png","key_press":65,"stim_onset":1583001969172,"block":1,"match_type":"match","image_category":"motorcycle","sound_category":"motorcycle","audio_type":"sound","phase":"test","trial_type":"image-keyboard-response","trial_index":194,"time_elapsed":2622539,"internal_node_id":"0.0-13.0-2.35","match_key":"a","participant_id":"COGS219_2020_33","correct":true},{"rt":null,"stimulus":"Sounds/correct.wav","key_press":null,"block":1,"trial_type":"audio-keyboard-response","trial_index":195,"time_elapsed":2624553,"internal_node_id":"0.0-13.0-3.35","match_key":"a","participant_id":"COGS219_2020_33"},{"rt":null,"stimulus":"Sounds/train_sound.wav","key_press":null,"block":1,"trial_type":"audio-keyboard-response","trial_index":196,"time_elapsed":2625844,"internal_node_id":"0.0-13.0-0.36","match_key":"a","participant_id":"COGS219_2020_33"},{"rt":null,"stimulus":"<p style=\"font-size: 48px;\">+</p>","key_press":null,"block":1,"trial_type":"html-keyboard-response","trial_index":197,"time_elapsed":2626849,"internal_node_id":"0.0-13.0-1.36","match_key":"a","participant_id":"COGS219_2020_33"},{"rt":849.0749999182299,"stimulus":"Images/train_orig.png","key_press":65,"stim_onset":1583001974439,"block":1,"match_type":"match","image_category":"train","sound_category":"train","audio_type":"sound","phase":"test","trial_type":"image-keyboard-response","trial_index":198,"time_elapsed":2627699,"internal_node_id":"0.0-13.0-2.36","match_key":"a","participant_id":"COGS219_2020_33","correct":true},{"rt":null,"stimulus":"Sounds/correct.wav","key_press":null,"block":1,"trial_type":"audio-keyboard-response","trial_index":199,"time_elapsed":2629709,"internal_node_id":"0.0-13.0-3.36","match_key":"a","participant_id":"COGS219_2020_33"},{"rt":null,"stimulus":"Sounds/gun_label.wav","key_press":null,"block":1,"trial_type":"audio-keyboard-response","trial_index":200,"time_elapsed":2630284,"internal_node_id":"0.0-13.0-0.37","match_key":"a","participant_id":"COGS219_2020_33"},{"rt":null,"stimulus":"<p style=\"font-size: 48px;\">+</p>","key_press":null,"block":1,"trial_type":"html-keyboard-response","trial_index":201,"time_elapsed":2631282,"internal_node_id":"0.0-13.0-1.37","match_key":"a","participant_id":"COGS219_2020_33"},{"rt":894.2800000077114,"stimulus":"Images/gun_2.png","key_press":65,"stim_onset":1583001978873,"block":1,"match_type":"match","image_category":"gun","sound_category":"gun","audio_type":"label","phase":"test","trial_type":"image-keyboard-response","trial_index":202,"time_elapsed":2632179,"internal_node_id":"0.0-13.0-2.37","match_key":"a","participant_id":"COGS219_2020_33","correct":true},{"rt":null,"stimulus":"Sounds/correct.wav","key_press":null,"block":1,"trial_type":"audio-keyboard-response","trial_index":203,"time_elapsed":2634188,"internal_node_id":"0.0-13.0-3.37","match_key":"a","participant_id":"COGS219_2020_33"},{"rt":null,"stimulus":"Sounds/car_label.wav","key_press":null,"block":1,"trial_type":"audio-keyboard-response","trial_index":204,"time_elapsed":2635264,"internal_node_id":"0.0-13.0-0.38","match_key":"a","participant_id":"COGS219_2020_33"},{"rt":null,"stimulus":"<p style=\"font-size: 48px;\">+</p>","key_press":null,"block":1,"trial_type":"html-keyboard-response","trial_index":205,"time_elapsed":2636266,"internal_node_id":"0.0-13.0-1.38","match_key":"a","participant_id":"COGS219_2020_33"},{"rt":720.365000073798,"stimulus":"Images/cow_3.png","key_press":76,"stim_onset":1583001983856,"block":1,"match_type":"non-match","image_category":"cow","sound_category":"car","audio_type":"label","phase":"test","trial_type":"image-keyboard-response","trial_index":206,"time_elapsed":2636987,"internal_node_id":"0.0-13.0-2.38","match_key":"a","participant_id":"COGS219_2020_33","correct":true},{"rt":null,"stimulus":"Sounds/correct.wav","key_press":null,"block":1,"trial_type":"audio-keyboard-response","trial_index":207,"time_elapsed":2639003,"internal_node_id":"0.0-13.0-3.38","match_key":"a","participant_id":"COGS219_2020_33"},{"rt":null,"stimulus":"Sounds/frog_sound.wav","key_press":null,"block":1,"trial_type":"audio-keyboard-response","trial_index":208,"time_elapsed":2639904,"internal_node_id":"0.0-13.0-0.39","match_key":"a","participant_id":"COGS219_2020_33"},{"rt":null,"stimulus":"<p style=\"font-size: 48px;\">+</p>","key_press":null,"block":1,"trial_type":"html-keyboard-response","trial_index":209,"time_elapsed":2640899,"internal_node_id":"0.0-13.0-1.39","match_key":"a","participant_id":"COGS219_2020_33"},{"rt":839.2299999250099,"stimulus":"Images/rooster_cartoon.png","key_press":76,"stim_onset":1583001988489,"block":1,"match_type":"non-match","image_category":"rooster","sound_category":"frog","audio_type":"sound","phase":"test","trial_type":"image-keyboard-response","trial_index":210,"time_elapsed":2641739,"internal_node_id":"0.0-13.0-2.39","match_key":"a","participant_id":"COGS219_2020_33","correct":true},{"rt":null,"stimulus":"Sounds/correct.wav","key_press":null,"block":1,"trial_type":"audio-keyboard-response","trial_index":211,"time_elapsed":2643753,"internal_node_id":"0.0-13.0-3.39","match_key":"a","participant_id":"COGS219_2020_33"},{"rt":null,"stimulus":"Sounds/train_label.wav","key_press":null,"block":1,"trial_type":"audio-keyboard-response","trial_index":212,"time_elapsed":2645024,"internal_node_id":"0.0-13.0-0.40","match_key":"a","participant_id":"COGS219_2020_33"},{"rt":null,"stimulus":"<p style=\"font-size: 48px;\">+</p>","key_press":null,"block":1,"trial_type":"html-keyboard-response","trial_index":213,"time_elapsed":2646016,"internal_node_id":"0.0-13.0-1.40","match_key":"a","participant_id":"COGS219_2020_33"},{"rt":930.2899999311194,"stimulus":"Images/train_cartoon.png","key_press":65,"stim_onset":1583001993606,"block":1,"match_type":"match","image_category":"train","sound_category":"train","audio_type":"label","phase":"test","trial_type":"image-keyboard-response","trial_index":214,"time_elapsed":2646947,"internal_node_id":"0.0-13.0-2.40","match_key":"a","participant_id":"COGS219_2020_33","correct":true},{"rt":null,"stimulus":"Sounds/correct.wav","key_press":null,"block":1,"trial_type":"audio-keyboard-response","trial_index":215,"time_elapsed":2648955,"internal_node_id":"0.0-13.0-3.40","match_key":"a","participant_id":"COGS219_2020_33"},{"rt":null,"stimulus":"Sounds/rooster_label.wav","key_press":null,"block":1,"trial_type":"audio-keyboard-response","trial_index":216,"time_elapsed":2649644,"internal_node_id":"0.0-13.0-0.41","match_key":"a","participant_id":"COGS219_2020_33"},{"rt":null,"stimulus":"<p style=\"font-size: 48px;\">+</p>","key_press":null,"block":1,"trial_type":"html-keyboard-response","trial_index":217,"time_elapsed":2650633,"internal_node_id":"0.0-13.0-1.41","match_key":"a","participant_id":"COGS219_2020_33"},{"rt":809.5650000032037,"stimulus":"Images/whistle_1.png","key_press":76,"stim_onset":1583001998223,"block":1,"match_type":"non-match","image_category":"whistle","sound_category":"rooster","audio_type":"label","phase":"test","trial_type":"image-keyboard-response","trial_index":218,"time_elapsed":2651443,"internal_node_id":"0.0-13.0-2.41","match_key":"a","participant_id":"COGS219_2020_33","correct":true},{"rt":null,"stimulus":"Sounds/correct.wav","key_press":null,"block":1,"trial_type":"audio-keyboard-response","trial_index":219,"time_elapsed":2653452,"internal_node_id":"0.0-13.0-3.41","match_key":"a","participant_id":"COGS219_2020_33"},{"rt":null,"stimulus":"Sounds/frog_label.wav","key_press":null,"block":1,"trial_type":"audio-keyboard-response","trial_index":220,"time_elapsed":2654344,"internal_node_id":"0.0-13.0-0.42","match_key":"a","participant_id":"COGS219_2020_33"},{"rt":null,"stimulus":"<p style=\"font-size: 48px;\">+</p>","key_press":null,"block":1,"trial_type":"html-keyboard-response","trial_index":221,"time_elapsed":2655332,"internal_node_id":"0.0-13.0-1.42","match_key":"a","participant_id":"COGS219_2020_33"},{"rt":621.8499999959022,"stimulus":"Images/cow_cartoon.png","key_press":76,"stim_onset":1583002002923,"block":1,"match_type":"non-match","image_category":"cow","sound_category":"frog","audio_type":"label","phase":"test","trial_type":"image-keyboard-response","trial_index":222,"time_elapsed":2655955,"internal_node_id":"0.0-13.0-2.42","match_key":"a","participant_id":"COGS219_2020_33","correct":true},{"rt":null,"stimulus":"Sounds/correct.wav","key_press":null,"block":1,"trial_type":"audio-keyboard-response","trial_index":223,"time_elapsed":2657970,"internal_node_id":"0.0-13.0-3.42","match_key":"a","participant_id":"COGS219_2020_33"},{"rt":null,"stimulus":"Sounds/cat_sound.wav","key_press":null,"block":1,"trial_type":"audio-keyboard-response","trial_index":224,"time_elapsed":2658804,"internal_node_id":"0.0-13.0-0.43","match_key":"a","participant_id":"COGS219_2020_33"},{"rt":null,"stimulus":"<p style=\"font-size: 48px;\">+</p>","key_press":null,"block":1,"trial_type":"html-keyboard-response","trial_index":225,"time_elapsed":2659799,"internal_node_id":"0.0-13.0-1.43","match_key":"a","participant_id":"COGS219_2020_33"},{"rt":594.8400000343099,"stimulus":"Images/gun_2.png","key_press":76,"stim_onset":1583002007389,"block":1,"match_type":"non-match","image_category":"gun","sound_category":"cat","audio_type":"sound","phase":"test","trial_type":"image-keyboard-response","trial_index":226,"time_elapsed":2660395,"internal_node_id":"0.0-13.0-2.43","match_key":"a","participant_id":"COGS219_2020_33","correct":true},{"rt":null,"stimulus":"Sounds/correct.wav","key_press":null,"block":1,"trial_type":"audio-keyboard-response","trial_index":227,"time_elapsed":2662406,"internal_node_id":"0.0-13.0-3.43","match_key":"a","participant_id":"COGS219_2020_33"},{"rt":null,"stimulus":"Sounds/train_sound.wav","key_press":null,"block":1,"trial_type":"audio-keyboard-response","trial_index":228,"time_elapsed":2663704,"internal_node_id":"0.0-13.0-0.44","match_key":"a","participant_id":"COGS219_2020_33"},{"rt":null,"stimulus":"<p style=\"font-size: 48px;\">+</p>","key_press":null,"block":1,"trial_type":"html-keyboard-response","trial_index":229,"time_elapsed":2664699,"internal_node_id":"0.0-13.0-1.44","match_key":"a","participant_id":"COGS219_2020_33"},{"rt":886.7850000970066,"stimulus":"Images/dog_3.png","key_press":76,"stim_onset":1583002012289,"block":1,"match_type":"non-match","image_category":"dog","sound_category":"train","audio_type":"sound","phase":"test","trial_type":"image-keyboard-response","trial_index":230,"time_elapsed":2665587,"internal_node_id":"0.0-13.0-2.44","match_key":"a","participant_id":"COGS219_2020_33","correct":true},{"rt":null,"stimulus":"Sounds/correct.wav","key_press":null,"block":1,"trial_type":"audio-keyboard-response","trial_index":231,"time_elapsed":2667595,"internal_node_id":"0.0-13.0-3.44","match_key":"a","participant_id":"COGS219_2020_33"},{"rt":null,"stimulus":"Sounds/gun_label.wav","key_press":null,"block":1,"trial_type":"audio-keyboard-response","trial_index":232,"time_elapsed":2668184,"internal_node_id":"0.0-13.0-0.45","match_key":"a","participant_id":"COGS219_2020_33"},{"rt":null,"stimulus":"<p style=\"font-size: 48px;\">+</p>","key_press":null,"block":1,"trial_type":"html-keyboard-response","trial_index":233,"time_elapsed":2669183,"internal_node_id":"0.0-13.0-1.45","match_key":"a","participant_id":"COGS219_2020_33"},{"rt":803.4149999730289,"stimulus":"Images/cat_1.png","key_press":76,"stim_onset":1583002016773,"block":1,"match_type":"non-match","image_category":"cat","sound_category":"gun","audio_type":"label","phase":"test","trial_type":"image-keyboard-response","trial_index":234,"time_elapsed":2669988,"internal_node_id":"0.0-13.0-2.45","match_key":"a","participant_id":"COGS219_2020_33","correct":true},{"rt":null,"stimulus":"Sounds/correct.wav","key_press":null,"block":1,"trial_type":"audio-keyboard-response","trial_index":235,"time_elapsed":2671990,"internal_node_id":"0.0-13.0-3.45","match_key":"a","participant_id":"COGS219_2020_33"},{"rt":null,"stimulus":"Sounds/cat_sound.wav","key_press":null,"block":1,"trial_type":"audio-keyboard-response","trial_index":236,"time_elapsed":2672804,"internal_node_id":"0.0-13.0-0.46","match_key":"a","participant_id":"COGS219_2020_33"},{"rt":null,"stimulus":"<p style=\"font-size: 48px;\">+</p>","key_press":null,"block":1,"trial_type":"html-keyboard-response","trial_index":237,"time_elapsed":2673799,"internal_node_id":"0.0-13.0-1.46","match_key":"a","participant_id":"COGS219_2020_33"},{"rt":1466.605000081472,"stimulus":"Images/dog_1.png","key_press":76,"stim_onset":1583002021390,"block":1,"match_type":"non-match","image_category":"dog","sound_category":"cat","audio_type":"sound","phase":"test","trial_type":"image-keyboard-response","trial_index":238,"time_elapsed":2675267,"internal_node_id":"0.0-13.0-2.46","match_key":"a","participant_id":"COGS219_2020_33","correct":true},{"rt":null,"stimulus":"Sounds/correct.wav","key_press":null,"block":1,"trial_type":"audio-keyboard-response","trial_index":239,"time_elapsed":2677277,"internal_node_id":"0.0-13.0-3.46","match_key":"a","participant_id":"COGS219_2020_33"},{"rt":null,"stimulus":"Sounds/rooster_label.wav","key_press":null,"block":1,"trial_type":"audio-keyboard-response","trial_index":240,"time_elapsed":2677984,"internal_node_id":"0.0-13.0-0.47","match_key":"a","participant_id":"COGS219_2020_33"},{"rt":null,"stimulus":"<p style=\"font-size: 48px;\">+</p>","key_press":null,"block":1,"trial_type":"html-keyboard-response","trial_index":241,"time_elapsed":2678983,"internal_node_id":"0.0-13.0-1.47","match_key":"a","participant_id":"COGS219_2020_33"},{"rt":907.1700000204146,"stimulus":"Images/rooster_cartoon.png","key_press":65,"stim_onset":1583002026573,"block":1,"match_type":"match","image_category":"rooster","sound_category":"rooster","audio_type":"label","phase":"test","trial_type":"image-keyboard-response","trial_index":242,"time_elapsed":2679891,"internal_node_id":"0.0-13.0-2.47","match_key":"a","participant_id":"COGS219_2020_33","correct":true},{"rt":null,"stimulus":"Sounds/correct.wav","key_press":null,"block":1,"trial_type":"audio-keyboard-response","trial_index":243,"time_elapsed":2681904,"internal_node_id":"0.0-13.0-3.47","match_key":"a","participant_id":"COGS219_2020_33"},{"rt":null,"stimulus":"Sounds/train_sound.wav","key_press":null,"block":1,"trial_type":"audio-keyboard-response","trial_index":244,"time_elapsed":2683184,"internal_node_id":"0.0-13.0-0.48","match_key":"a","participant_id":"COGS219_2020_33"},{"rt":null,"stimulus":"<p style=\"font-size: 48px;\">+</p>","key_press":null,"block":1,"trial_type":"html-keyboard-response","trial_index":245,"time_elapsed":2684183,"internal_node_id":"0.0-13.0-1.48","match_key":"a","participant_id":"COGS219_2020_33"},{"rt":955.3999999770895,"stimulus":"Images/motorcycle_cartoon.png","key_press":76,"stim_onset":1583002031773,"block":1,"match_type":"non-match","image_category":"motorcycle","sound_category":"train","audio_type":"sound","phase":"test","trial_type":"image-keyboard-response","trial_index":246,"time_elapsed":2685140,"internal_node_id":"0.0-13.0-2.48","match_key":"a","participant_id":"COGS219_2020_33","correct":true},{"rt":null,"stimulus":"Sounds/correct.wav","key_press":null,"block":1,"trial_type":"audio-keyboard-response","trial_index":247,"time_elapsed":2687154,"internal_node_id":"0.0-13.0-3.48","match_key":"a","participant_id":"COGS219_2020_33"},{"rt":null,"stimulus":"Sounds/cat_label.wav","key_press":null,"block":1,"trial_type":"audio-keyboard-response","trial_index":248,"time_elapsed":2688004,"internal_node_id":"0.0-13.0-0.49","match_key":"a","participant_id":"COGS219_2020_33"},{"rt":null,"stimulus":"<p style=\"font-size: 48px;\">+</p>","key_press":null,"block":1,"trial_type":"html-keyboard-response","trial_index":249,"time_elapsed":2689000,"internal_node_id":"0.0-13.0-1.49","match_key":"a","participant_id":"COGS219_2020_33"},{"rt":522.5899999495596,"stimulus":"Images/cat_1.png","key_press":65,"stim_onset":1583002036590,"block":1,"match_type":"match","image_category":"cat","sound_category":"cat","audio_type":"label","phase":"test","trial_type":"image-keyboard-response","trial_index":250,"time_elapsed":2689523,"internal_node_id":"0.0-13.0-2.49","match_key":"a","participant_id":"COGS219_2020_33","correct":true},{"rt":null,"stimulus":"Sounds/correct.wav","key_press":null,"block":1,"trial_type":"audio-keyboard-response","trial_index":251,"time_elapsed":2691541,"internal_node_id":"0.0-13.0-3.49","match_key":"a","participant_id":"COGS219_2020_33"},{"rt":null,"stimulus":"Sounds/train_sound.wav","key_press":null,"block":1,"trial_type":"audio-keyboard-response","trial_index":252,"time_elapsed":2692804,"internal_node_id":"0.0-13.0-0.50","match_key":"a","participant_id":"COGS219_2020_33"},{"rt":null,"stimulus":"<p style=\"font-size: 48px;\">+</p>","key_press":null,"block":1,"trial_type":"html-keyboard-response","trial_index":253,"time_elapsed":2693800,"internal_node_id":"0.0-13.0-1.50","match_key":"a","participant_id":"COGS219_2020_33"},{"rt":866.3999999407679,"stimulus":"Images/train_3.png","key_press":65,"stim_onset":1583002041390,"block":1,"match_type":"match","image_category":"train","sound_category":"train","audio_type":"sound","phase":"test","trial_type":"image-keyboard-response","trial_index":254,"time_elapsed":2694667,"internal_node_id":"0.0-13.0-2.50","match_key":"a","participant_id":"COGS219_2020_33","correct":true},{"rt":null,"stimulus":"Sounds/correct.wav","key_press":null,"block":1,"trial_type":"audio-keyboard-response","trial_index":255,"time_elapsed":2696672,"internal_node_id":"0.0-13.0-3.50","match_key":"a","participant_id":"COGS219_2020_33"},{"rt":null,"stimulus":"Sounds/motorcycle_label.wav","key_press":null,"block":1,"trial_type":"audio-keyboard-response","trial_index":256,"time_elapsed":2697804,"internal_node_id":"0.0-13.0-0.51","match_key":"a","participant_id":"COGS219_2020_33"},{"rt":null,"stimulus":"<p style=\"font-size: 48px;\">+</p>","key_press":null,"block":1,"trial_type":"html-keyboard-response","trial_index":257,"time_elapsed":2698800,"internal_node_id":"0.0-13.0-1.51","match_key":"a","participant_id":"COGS219_2020_33"},{"rt":850.6650000344962,"stimulus":"Images/rooster_2.png","key_press":76,"stim_onset":1583002046390,"block":1,"match_type":"non-match","image_category":"rooster","sound_category":"motorcycle","audio_type":"label","phase":"test","trial_type":"image-keyboard-response","trial_index":258,"time_elapsed":2699652,"internal_node_id":"0.0-13.0-2.51","match_key":"a","participant_id":"COGS219_2020_33","correct":true},{"rt":null,"stimulus":"Sounds/correct.wav","key_press":null,"block":1,"trial_type":"audio-keyboard-response","trial_index":259,"time_elapsed":2701656,"internal_node_id":"0.0-13.0-3.51","match_key":"a","participant_id":"COGS219_2020_33"},{"rt":null,"stimulus":"Sounds/cat_sound.wav","key_press":null,"block":1,"trial_type":"audio-keyboard-response","trial_index":260,"time_elapsed":2702484,"internal_node_id":"0.0-13.0-0.52","match_key":"a","participant_id":"COGS219_2020_33"},{"rt":null,"stimulus":"<p style=\"font-size: 48px;\">+</p>","key_press":null,"block":1,"trial_type":"html-keyboard-response","trial_index":261,"time_elapsed":2703483,"internal_node_id":"0.0-13.0-1.52","match_key":"a","participant_id":"COGS219_2020_33"},{"rt":735.0350000197068,"stimulus":"Images/train_cartoon.png","key_press":76,"stim_onset":1583002051074,"block":1,"match_type":"non-match","image_category":"train","sound_category":"cat","audio_type":"sound","phase":"test","trial_type":"image-keyboard-response","trial_index":262,"time_elapsed":2704220,"internal_node_id":"0.0-13.0-2.52","match_key":"a","participant_id":"COGS219_2020_33","correct":true},{"rt":null,"stimulus":"Sounds/correct.wav","key_press":null,"block":1,"trial_type":"audio-keyboard-response","trial_index":263,"time_elapsed":2706231,"internal_node_id":"0.0-13.0-3.52","match_key":"a","participant_id":"COGS219_2020_33"},{"rt":null,"stimulus":"Sounds/whistle_sound.wav","key_press":null,"block":1,"trial_type":"audio-keyboard-response","trial_index":264,"time_elapsed":2706924,"internal_node_id":"0.0-13.0-0.53","match_key":"a","participant_id":"COGS219_2020_33"},{"rt":null,"stimulus":"<p style=\"font-size: 48px;\">+</p>","key_press":null,"block":1,"trial_type":"html-keyboard-response","trial_index":265,"time_elapsed":2707917,"internal_node_id":"0.0-13.0-1.53","match_key":"a","participant_id":"COGS219_2020_33"},{"rt":437.7600000007078,"stimulus":"Images/whistle_1.png","key_press":65,"stim_onset":1583002055507,"block":1,"match_type":"match","image_category":"whistle","sound_category":"whistle","audio_type":"sound","phase":"test","trial_type":"image-keyboard-response","trial_index":266,"time_elapsed":2708355,"internal_node_id":"0.0-13.0-2.53","match_key":"a","participant_id":"COGS219_2020_33","correct":true},{"rt":null,"stimulus":"Sounds/correct.wav","key_press":null,"block":1,"trial_type":"audio-keyboard-response","trial_index":267,"time_elapsed":2710370,"internal_node_id":"0.0-13.0-3.53","match_key":"a","participant_id":"COGS219_2020_33"},{"rt":null,"stimulus":"Sounds/cow_label.wav","key_press":null,"block":1,"trial_type":"audio-keyboard-response","trial_index":268,"time_elapsed":2711384,"internal_node_id":"0.0-13.0-0.54","match_key":"a","participant_id":"COGS219_2020_33"},{"rt":null,"stimulus":"<p style=\"font-size: 48px;\">+</p>","key_press":null,"block":1,"trial_type":"html-keyboard-response","trial_index":269,"time_elapsed":2712383,"internal_node_id":"0.0-13.0-1.54","match_key":"a","participant_id":"COGS219_2020_33"},{"rt":811.4650000352412,"stimulus":"Images/whistle_cartoon.png","key_press":76,"stim_onset":1583002059974,"block":1,"match_type":"non-match","image_category":"whistle","sound_category":"cow","audio_type":"label","phase":"test","trial_type":"image-keyboard-response","trial_index":270,"time_elapsed":2713196,"internal_node_id":"0.0-13.0-2.54","match_key":"a","participant_id":"COGS219_2020_33","correct":true},{"rt":null,"stimulus":"Sounds/correct.wav","key_press":null,"block":1,"trial_type":"audio-keyboard-response","trial_index":271,"time_elapsed":2715207,"internal_node_id":"0.0-13.0-3.54","match_key":"a","participant_id":"COGS219_2020_33"},{"rt":null,"stimulus":"Sounds/dog_sound.wav","key_press":null,"block":1,"trial_type":"audio-keyboard-response","trial_index":272,"time_elapsed":2715924,"internal_node_id":"0.0-13.0-0.55","match_key":"a","participant_id":"COGS219_2020_33"},{"rt":null,"stimulus":"<p style=\"font-size: 48px;\">+</p>","key_press":null,"block":1,"trial_type":"html-keyboard-response","trial_index":273,"time_elapsed":2716917,"internal_node_id":"0.0-13.0-1.55","match_key":"a","participant_id":"COGS219_2020_33"},{"rt":677.6049999753013,"stimulus":"Images/dog_3.png","key_press":65,"stim_onset":1583002064507,"block":1,"match_type":"match","image_category":"dog","sound_category":"dog","audio_type":"sound","phase":"test","trial_type":"image-keyboard-response","trial_index":274,"time_elapsed":2717596,"internal_node_id":"0.0-13.0-2.55","match_key":"a","participant_id":"COGS219_2020_33","correct":true},{"rt":null,"stimulus":"Sounds/correct.wav","key_press":null,"block":1,"trial_type":"audio-keyboard-response","trial_index":275,"time_elapsed":2719605,"internal_node_id":"0.0-13.0-3.55","match_key":"a","participant_id":"COGS219_2020_33"},{"rt":null,"stimulus":"Sounds/cow_label.wav","key_press":null,"block":1,"trial_type":"audio-keyboard-response","trial_index":276,"time_elapsed":2720604,"internal_node_id":"0.0-13.0-0.56","match_key":"a","participant_id":"COGS219_2020_33"},{"rt":null,"stimulus":"<p style=\"font-size: 48px;\">+</p>","key_press":null,"block":1,"trial_type":"html-keyboard-response","trial_index":277,"time_elapsed":2721600,"internal_node_id":"0.0-13.0-1.56","match_key":"a","participant_id":"COGS219_2020_33"},{"rt":730.5499999783933,"stimulus":"Images/cow_1.png","key_press":65,"stim_onset":1583002069190,"block":1,"match_type":"match","image_category":"cow","sound_category":"cow","audio_type":"label","phase":"test","trial_type":"image-keyboard-response","trial_index":278,"time_elapsed":2722333,"internal_node_id":"0.0-13.0-2.56","match_key":"a","participant_id":"COGS219_2020_33","correct":true},{"rt":null,"stimulus":"Sounds/correct.wav","key_press":null,"block":1,"trial_type":"audio-keyboard-response","trial_index":279,"time_elapsed":2724339,"internal_node_id":"0.0-13.0-3.56","match_key":"a","participant_id":"COGS219_2020_33"},{"rt":null,"stimulus":"Sounds/rooster_label.wav","key_press":null,"block":1,"trial_type":"audio-keyboard-response","trial_index":280,"time_elapsed":2725044,"internal_node_id":"0.0-13.0-0.57","match_key":"a","participant_id":"COGS219_2020_33"},{"rt":null,"stimulus":"<p style=\"font-size: 48px;\">+</p>","key_press":null,"block":1,"trial_type":"html-keyboard-response","trial_index":281,"time_elapsed":2726033,"internal_node_id":"0.0-13.0-1.57","match_key":"a","participant_id":"COGS219_2020_33"},{"rt":729.3549999594688,"stimulus":"Images/car_2.png","key_press":76,"stim_onset":1583002073624,"block":1,"match_type":"non-match","image_category":"car","sound_category":"rooster","audio_type":"label","phase":"test","trial_type":"image-keyboard-response","trial_index":282,"time_elapsed":2726764,"internal_node_id":"0.0-13.0-2.57","match_key":"a","participant_id":"COGS219_2020_33","correct":true},{"rt":null,"stimulus":"Sounds/correct.wav","key_press":null,"block":1,"trial_type":"audio-keyboard-response","trial_index":283,"time_elapsed":2728773,"internal_node_id":"0.0-13.0-3.57","match_key":"a","participant_id":"COGS219_2020_33"},{"rt":null,"stimulus":"Sounds/rooster_label.wav","key_press":null,"block":1,"trial_type":"audio-keyboard-response","trial_index":284,"time_elapsed":2729444,"internal_node_id":"0.0-13.0-0.58","match_key":"a","participant_id":"COGS219_2020_33"},{"rt":null,"stimulus":"<p style=\"font-size: 48px;\">+</p>","key_press":null,"block":1,"trial_type":"html-keyboard-response","trial_index":285,"time_elapsed":2730433,"internal_node_id":"0.0-13.0-1.58","match_key":"a","participant_id":"COGS219_2020_33"},{"rt":697.0449999207631,"stimulus":"Images/gun_orig.png","key_press":76,"stim_onset":1583002078024,"block":1,"match_type":"non-match","image_category":"gun","sound_category":"rooster","audio_type":"label","phase":"test","trial_type":"image-keyboard-response","trial_index":286,"time_elapsed":2731132,"internal_node_id":"0.0-13.0-2.58","match_key":"a","participant_id":"COGS219_2020_33","correct":true},{"rt":null,"stimulus":"Sounds/correct.wav","key_press":null,"block":1,"trial_type":"audio-keyboard-response","trial_index":287,"time_elapsed":2733139,"internal_node_id":"0.0-13.0-3.58","match_key":"a","participant_id":"COGS219_2020_33"},{"rt":null,"stimulus":"Sounds/cat_sound.wav","key_press":null,"block":1,"trial_type":"audio-keyboard-response","trial_index":288,"time_elapsed":2733984,"internal_node_id":"0.0-13.0-0.59","match_key":"a","participant_id":"COGS219_2020_33"},{"rt":null,"stimulus":"<p style=\"font-size: 48px;\">+</p>","key_press":null,"block":1,"trial_type":"html-keyboard-response","trial_index":289,"time_elapsed":2734984,"internal_node_id":"0.0-13.0-1.59","match_key":"a","participant_id":"COGS219_2020_33"},{"rt":1466.2049999460578,"stimulus":"Images/rooster_orig.png","key_press":76,"stim_onset":1583002082574,"block":1,"match_type":"non-match","image_category":"rooster","sound_category":"cat","audio_type":"sound","phase":"test","trial_type":"image-keyboard-response","trial_index":290,"time_elapsed":2736451,"internal_node_id":"0.0-13.0-2.59","match_key":"a","participant_id":"COGS219_2020_33","correct":true},{"rt":null,"stimulus":"Sounds/correct.wav","key_press":null,"block":1,"trial_type":"audio-keyboard-response","trial_index":291,"time_elapsed":2738458,"internal_node_id":"0.0-13.0-3.59","match_key":"a","participant_id":"COGS219_2020_33"},{"rt":null,"stimulus":"Sounds/motorcycle_sound.wav","key_press":null,"block":1,"trial_type":"audio-keyboard-response","trial_index":292,"time_elapsed":2739584,"internal_node_id":"0.0-13.0-0.60","match_key":"a","participant_id":"COGS219_2020_33"},{"rt":null,"stimulus":"<p style=\"font-size: 48px;\">+</p>","key_press":null,"block":1,"trial_type":"html-keyboard-response","trial_index":293,"time_elapsed":2740583,"internal_node_id":"0.0-13.0-1.60","match_key":"a","participant_id":"COGS219_2020_33"},{"rt":635.3200000012293,"stimulus":"Images/gun_1.png","key_press":76,"stim_onset":1583002088174,"block":1,"match_type":"non-match","image_category":"gun","sound_category":"motorcycle","audio_type":"sound","phase":"test","trial_type":"image-keyboard-response","trial_index":294,"time_elapsed":2741220,"internal_node_id":"0.0-13.0-2.60","match_key":"a","participant_id":"COGS219_2020_33","correct":true},{"rt":null,"stimulus":"Sounds/correct.wav","key_press":null,"block":1,"trial_type":"audio-keyboard-response","trial_index":295,"time_elapsed":2743222,"internal_node_id":"0.0-13.0-3.60","match_key":"a","participant_id":"COGS219_2020_33"},{"rt":null,"stimulus":"Sounds/cow_sound.wav","key_press":null,"block":1,"trial_type":"audio-keyboard-response","trial_index":296,"time_elapsed":2744244,"internal_node_id":"0.0-13.0-0.61","match_key":"a","participant_id":"COGS219_2020_33"},{"rt":null,"stimulus":"<p style=\"font-size: 48px;\">+</p>","key_press":null,"block":1,"trial_type":"html-keyboard-response","trial_index":297,"time_elapsed":2745234,"internal_node_id":"0.0-13.0-1.61","match_key":"a","participant_id":"COGS219_2020_33"},{"rt":664.8999999742955,"stimulus":"Images/cow_2.png","key_press":65,"stim_onset":1583002092825,"block":1,"match_type":"match","image_category":"cow","sound_category":"cow","audio_type":"sound","phase":"test","trial_type":"image-keyboard-response","trial_index":298,"time_elapsed":2745900,"internal_node_id":"0.0-13.0-2.61","match_key":"a","participant_id":"COGS219_2020_33","correct":true},{"rt":null,"stimulus":"Sounds/correct.wav","key_press":null,"block":1,"trial_type":"audio-keyboard-response","trial_index":299,"time_elapsed":2747907,"internal_node_id":"0.0-13.0-3.61","match_key":"a","participant_id":"COGS219_2020_33"},{"rt":null,"stimulus":"Sounds/train_sound.wav","key_press":null,"block":1,"trial_type":"audio-keyboard-response","trial_index":300,"time_elapsed":2749204,"internal_node_id":"0.0-13.0-0.62","match_key":"a","participant_id":"COGS219_2020_33"},{"rt":null,"stimulus":"<p style=\"font-size: 48px;\">+</p>","key_press":null,"block":1,"trial_type":"html-keyboard-response","trial_index":301,"time_elapsed":2750201,"internal_node_id":"0.0-13.0-1.62","match_key":"a","participant_id":"COGS219_2020_33"},{"rt":810.204999987036,"stimulus":"Images/rooster_1.png","key_press":76,"stim_onset":1583002097791,"block":1,"match_type":"non-match","image_category":"rooster","sound_category":"train","audio_type":"sound","phase":"test","trial_type":"image-keyboard-response","trial_index":302,"time_elapsed":2751012,"internal_node_id":"0.0-13.0-2.62","match_key":"a","participant_id":"COGS219_2020_33","correct":true},{"rt":null,"stimulus":"Sounds/correct.wav","key_press":null,"block":1,"trial_type":"audio-keyboard-response","trial_index":303,"time_elapsed":2753023,"internal_node_id":"0.0-13.0-3.62","match_key":"a","participant_id":"COGS219_2020_33"},{"rt":null,"stimulus":"Sounds/gun_sound.wav","key_press":null,"block":1,"trial_type":"audio-keyboard-response","trial_index":304,"time_elapsed":2753604,"internal_node_id":"0.0-13.0-0.63","match_key":"a","participant_id":"COGS219_2020_33"},{"rt":null,"stimulus":"<p style=\"font-size: 48px;\">+</p>","key_press":null,"block":1,"trial_type":"html-keyboard-response","trial_index":305,"time_elapsed":2754601,"internal_node_id":"0.0-13.0-1.63","match_key":"a","participant_id":"COGS219_2020_33"},{"rt":666.0449999617413,"stimulus":"Images/gun_orig.png","key_press":65,"stim_onset":1583002102191,"block":1,"match_type":"match","image_category":"gun","sound_category":"gun","audio_type":"sound","phase":"test","trial_type":"image-keyboard-response","trial_index":306,"time_elapsed":2755268,"internal_node_id":"0.0-13.0-2.63","match_key":"a","participant_id":"COGS219_2020_33","correct":true},{"rt":null,"stimulus":"Sounds/correct.wav","key_press":null,"block":1,"trial_type":"audio-keyboard-response","trial_index":307,"time_elapsed":2757273,"internal_node_id":"0.0-13.0-3.63","match_key":"a","participant_id":"COGS219_2020_33"},{"rt":null,"stimulus":"Sounds/motorcycle_sound.wav","key_press":null,"block":1,"trial_type":"audio-keyboard-response","trial_index":308,"time_elapsed":2758384,"internal_node_id":"0.0-13.0-0.64","match_key":"a","participant_id":"COGS219_2020_33"},{"rt":null,"stimulus":"<p style=\"font-size: 48px;\">+</p>","key_press":null,"block":1,"trial_type":"html-keyboard-response","trial_index":309,"time_elapsed":2759384,"internal_node_id":"0.0-13.0-1.64","match_key":"a","participant_id":"COGS219_2020_33"},{"rt":930.3400000790134,"stimulus":"Images/motorcycle_cartoon.png","key_press":65,"stim_onset":1583002106975,"block":1,"match_type":"match","image_category":"motorcycle","sound_category":"motorcycle","audio_type":"sound","phase":"test","trial_type":"image-keyboard-response","trial_index":310,"time_elapsed":2760316,"internal_node_id":"0.0-13.0-2.64","match_key":"a","participant_id":"COGS219_2020_33","correct":true},{"rt":null,"stimulus":"Sounds/correct.wav","key_press":null,"block":1,"trial_type":"audio-keyboard-response","trial_index":311,"time_elapsed":2762323,"internal_node_id":"0.0-13.0-3.64","match_key":"a","participant_id":"COGS219_2020_33"},{"rt":null,"stimulus":"Sounds/motorcycle_sound.wav","key_press":null,"block":1,"trial_type":"audio-keyboard-response","trial_index":312,"time_elapsed":2763424,"internal_node_id":"0.0-13.0-0.65","match_key":"a","participant_id":"COGS219_2020_33"},{"rt":null,"stimulus":"<p style=\"font-size: 48px;\">+</p>","key_press":null,"block":1,"trial_type":"html-keyboard-response","trial_index":313,"time_elapsed":2764418,"internal_node_id":"0.0-13.0-1.65","match_key":"a","participant_id":"COGS219_2020_33"},{"rt":617.2250000527129,"stimulus":"Images/motorcycle_2.png","key_press":65,"stim_onset":1583002112008,"block":1,"match_type":"match","image_category":"motorcycle","sound_category":"motorcycle","audio_type":"sound","phase":"test","trial_type":"image-keyboard-response","trial_index":314,"time_elapsed":2765036,"internal_node_id":"0.0-13.0-2.65","match_key":"a","participant_id":"COGS219_2020_33","correct":true},{"rt":null,"stimulus":"Sounds/correct.wav","key_press":null,"block":1,"trial_type":"audio-keyboard-response","trial_index":315,"time_elapsed":2767040,"internal_node_id":"0.0-13.0-3.65","match_key":"a","participant_id":"COGS219_2020_33"},{"rt":null,"stimulus":"Sounds/rooster_label.wav","key_press":null,"block":1,"trial_type":"audio-keyboard-response","trial_index":316,"time_elapsed":2767745,"internal_node_id":"0.0-13.0-0.66","match_key":"a","participant_id":"COGS219_2020_33"},{"rt":null,"stimulus":"<p style=\"font-size: 48px;\">+</p>","key_press":null,"block":1,"trial_type":"html-keyboard-response","trial_index":317,"time_elapsed":2768735,"internal_node_id":"0.0-13.0-1.66","match_key":"a","participant_id":"COGS219_2020_33"},{"rt":756.5500000491738,"stimulus":"Images/rooster_orig.png","key_press":65,"stim_onset":1583002116325,"block":1,"match_type":"match","image_category":"rooster","sound_category":"rooster","audio_type":"label","phase":"test","trial_type":"image-keyboard-response","trial_index":318,"time_elapsed":2769492,"internal_node_id":"0.0-13.0-2.66","match_key":"a","participant_id":"COGS219_2020_33","correct":true},{"rt":null,"stimulus":"Sounds/correct.wav","key_press":null,"block":1,"trial_type":"audio-keyboard-response","trial_index":319,"time_elapsed":2771506,"internal_node_id":"0.0-13.0-3.66","match_key":"a","participant_id":"COGS219_2020_33"},{"rt":null,"stimulus":"Sounds/rooster_sound.wav","key_press":null,"block":1,"trial_type":"audio-keyboard-response","trial_index":320,"time_elapsed":2772204,"internal_node_id":"0.0-13.0-0.67","match_key":"a","participant_id":"COGS219_2020_33"},{"rt":null,"stimulus":"<p style=\"font-size: 48px;\">+</p>","key_press":null,"block":1,"trial_type":"html-keyboard-response","trial_index":321,"time_elapsed":2773201,"internal_node_id":"0.0-13.0-1.67","match_key":"a","participant_id":"COGS219_2020_33"},{"rt":457.6600000727922,"stimulus":"Images/rooster_2.png","key_press":65,"stim_onset":1583002120792,"block":1,"match_type":"match","image_category":"rooster","sound_category":"rooster","audio_type":"sound","phase":"test","trial_type":"image-keyboard-response","trial_index":322,"time_elapsed":2773660,"internal_node_id":"0.0-13.0-2.67","match_key":"a","participant_id":"COGS219_2020_33","correct":true},{"rt":null,"stimulus":"Sounds/correct.wav","key_press":null,"block":1,"trial_type":"audio-keyboard-response","trial_index":323,"time_elapsed":2775672,"internal_node_id":"0.0-13.0-3.67","match_key":"a","participant_id":"COGS219_2020_33"},{"rt":null,"stimulus":"Sounds/cow_sound.wav","key_press":null,"block":1,"trial_type":"audio-keyboard-response","trial_index":324,"time_elapsed":2776684,"internal_node_id":"0.0-13.0-0.68","match_key":"a","participant_id":"COGS219_2020_33"},{"rt":null,"stimulus":"<p style=\"font-size: 48px;\">+</p>","key_press":null,"block":1,"trial_type":"html-keyboard-response","trial_index":325,"time_elapsed":2777685,"internal_node_id":"0.0-13.0-1.68","match_key":"a","participant_id":"COGS219_2020_33"},{"rt":814.394999993965,"stimulus":"Images/cow_cartoon.png","key_press":65,"stim_onset":1583002125275,"block":1,"match_type":"match","image_category":"cow","sound_category":"cow","audio_type":"sound","phase":"test","trial_type":"image-keyboard-response","trial_index":326,"time_elapsed":2778500,"internal_node_id":"0.0-13.0-2.68","match_key":"a","participant_id":"COGS219_2020_33","correct":true},{"rt":null,"stimulus":"Sounds/correct.wav","key_press":null,"block":1,"trial_type":"audio-keyboard-response","trial_index":327,"time_elapsed":2780510,"internal_node_id":"0.0-13.0-3.68","match_key":"a","participant_id":"COGS219_2020_33"},{"rt":null,"stimulus":"Sounds/frog_label.wav","key_press":null,"block":1,"trial_type":"audio-keyboard-response","trial_index":328,"time_elapsed":2781404,"internal_node_id":"0.0-13.0-0.69","match_key":"a","participant_id":"COGS219_2020_33"},{"rt":null,"stimulus":"<p style=\"font-size: 48px;\">+</p>","key_press":null,"block":1,"trial_type":"html-keyboard-response","trial_index":329,"time_elapsed":2782401,"internal_node_id":"0.0-13.0-1.69","match_key":"a","participant_id":"COGS219_2020_33"},{"rt":561.7899999488145,"stimulus":"Images/frog_orig.png","key_press":65,"stim_onset":1583002129992,"block":1,"match_type":"match","image_category":"frog","sound_category":"frog","audio_type":"label","phase":"test","trial_type":"image-keyboard-response","trial_index":330,"time_elapsed":2782964,"internal_node_id":"0.0-13.0-2.69","match_key":"a","participant_id":"COGS219_2020_33","correct":true},{"rt":null,"stimulus":"Sounds/correct.wav","key_press":null,"block":1,"trial_type":"audio-keyboard-response","trial_index":331,"time_elapsed":2784973,"internal_node_id":"0.0-13.0-3.69","match_key":"a","participant_id":"COGS219_2020_33"},{"rt":null,"stimulus":"Sounds/gun_sound.wav","key_press":null,"block":1,"trial_type":"audio-keyboard-response","trial_index":332,"time_elapsed":2785544,"internal_node_id":"0.0-13.0-0.70","match_key":"a","participant_id":"COGS219_2020_33"},{"rt":null,"stimulus":"<p style=\"font-size: 48px;\">+</p>","key_press":null,"block":1,"trial_type":"html-keyboard-response","trial_index":333,"time_elapsed":2786535,"internal_node_id":"0.0-13.0-1.70","match_key":"a","participant_id":"COGS219_2020_33"},{"rt":660.1699999300763,"stimulus":"Images/gun_3.png","key_press":65,"stim_onset":1583002134125,"block":1,"match_type":"match","image_category":"gun","sound_category":"gun","audio_type":"sound","phase":"test","trial_type":"image-keyboard-response","trial_index":334,"time_elapsed":2787196,"internal_node_id":"0.0-13.0-2.70","match_key":"a","participant_id":"COGS219_2020_33","correct":true},{"rt":null,"stimulus":"Sounds/correct.wav","key_press":null,"block":1,"trial_type":"audio-keyboard-response","trial_index":335,"time_elapsed":2789205,"internal_node_id":"0.0-13.0-3.70","match_key":"a","participant_id":"COGS219_2020_33"},{"rt":null,"stimulus":"Sounds/car_sound.wav","key_press":null,"block":1,"trial_type":"audio-keyboard-response","trial_index":336,"time_elapsed":2790284,"internal_node_id":"0.0-13.0-0.71","match_key":"a","participant_id":"COGS219_2020_33"},{"rt":null,"stimulus":"<p style=\"font-size: 48px;\">+</p>","key_press":null,"block":1,"trial_type":"html-keyboard-response","trial_index":337,"time_elapsed":2791285,"internal_node_id":"0.0-13.0-1.71","match_key":"a","participant_id":"COGS219_2020_33"},{"rt":662.3550000367686,"stimulus":"Images/car_2.png","key_press":65,"stim_onset":1583002138875,"block":1,"match_type":"match","image_category":"car","sound_category":"car","audio_type":"sound","phase":"test","trial_type":"image-keyboard-response","trial_index":338,"time_elapsed":2791948,"internal_node_id":"0.0-13.0-2.71","match_key":"a","participant_id":"COGS219_2020_33","correct":true},{"rt":null,"stimulus":"Sounds/correct.wav","key_press":null,"block":1,"trial_type":"audio-keyboard-response","trial_index":339,"time_elapsed":2793957,"internal_node_id":"0.0-13.0-3.71","match_key":"a","participant_id":"COGS219_2020_33"},{"rt":null,"stimulus":"Sounds/cow_sound.wav","key_press":null,"block":1,"trial_type":"audio-keyboard-response","trial_index":340,"time_elapsed":2794965,"internal_node_id":"0.0-13.0-0.72","match_key":"a","participant_id":"COGS219_2020_33"},{"rt":null,"stimulus":"<p style=\"font-size: 48px;\">+</p>","key_press":null,"block":1,"trial_type":"html-keyboard-response","trial_index":341,"time_elapsed":2795968,"internal_node_id":"0.0-13.0-1.72","match_key":"a","participant_id":"COGS219_2020_33"},{"rt":779.0950000053272,"stimulus":"Images/motorcycle_2.png","key_press":76,"stim_onset":1583002143559,"block":1,"match_type":"non-match","image_category":"motorcycle","sound_category":"cow","audio_type":"sound","phase":"test","trial_type":"image-keyboard-response","trial_index":342,"time_elapsed":2796748,"internal_node_id":"0.0-13.0-2.72","match_key":"a","participant_id":"COGS219_2020_33","correct":true},{"rt":null,"stimulus":"Sounds/correct.wav","key_press":null,"block":1,"trial_type":"audio-keyboard-response","trial_index":343,"time_elapsed":2798758,"internal_node_id":"0.0-13.0-3.72","match_key":"a","participant_id":"COGS219_2020_33"},{"rt":null,"stimulus":"Sounds/whistle_sound.wav","key_press":null,"block":1,"trial_type":"audio-keyboard-response","trial_index":344,"time_elapsed":2799464,"internal_node_id":"0.0-13.0-0.73","match_key":"a","participant_id":"COGS219_2020_33"},{"rt":null,"stimulus":"<p style=\"font-size: 48px;\">+</p>","key_press":null,"block":1,"trial_type":"html-keyboard-response","trial_index":345,"time_elapsed":2800468,"internal_node_id":"0.0-13.0-1.73","match_key":"a","participant_id":"COGS219_2020_33"},{"rt":582.9199999570847,"stimulus":"Images/whistle_cartoon.png","key_press":65,"stim_onset":1583002148058,"block":1,"match_type":"match","image_category":"whistle","sound_category":"whistle","audio_type":"sound","phase":"test","trial_type":"image-keyboard-response","trial_index":346,"time_elapsed":2801052,"internal_node_id":"0.0-13.0-2.73","match_key":"a","participant_id":"COGS219_2020_33","correct":true},{"rt":null,"stimulus":"Sounds/correct.wav","key_press":null,"block":1,"trial_type":"audio-keyboard-response","trial_index":347,"time_elapsed":2803060,"internal_node_id":"0.0-13.0-3.73","match_key":"a","participant_id":"COGS219_2020_33"},{"rt":null,"stimulus":"Sounds/cow_sound.wav","key_press":null,"block":1,"trial_type":"audio-keyboard-response","trial_index":348,"time_elapsed":2804045,"internal_node_id":"0.0-13.0-0.74","match_key":"a","participant_id":"COGS219_2020_33"},{"rt":null,"stimulus":"<p style=\"font-size: 48px;\">+</p>","key_press":null,"block":1,"trial