[{"rt":21655.945000005886,"responses":"{\"Q0\":\"COGS219_2020_03\"}","trial_type":"survey-text","trial_index":0,"time_elapsed":21701,"internal_node_id":"0.0-0.0","match_key":"l","participant_id":"COGS219_2020_03"},{"rt":124545.03999999724,"stimulus":"<p>Use KEYBOARD 1 (match RIGHT)</p><p>Press MATCH to continue.</p>","key_press":76,"trial_type":"html-keyboard-response","trial_index":1,"time_elapsed":146291,"internal_node_id":"0.0-1.0","match_key":"l","participant_id":"COGS219_2020_03"},{"rt":3535180.784999975,"stimulus":"<p>Welcome to the experiment.</p>","key_press":32,"trial_type":"html-keyboard-response","trial_index":2,"time_elapsed":3681687,"internal_node_id":"0.0-2.0","match_key":"l","participant_id":"COGS219_2020_03"},{"rt":12043.790000025183,"stimulus":"<p>Thank you for agreeing to participate in this study.</p><p>If during any part of the procedure you must stop for any reason, please inform the researcher that you do not wish to continue.</p>","key_press":32,"trial_type":"html-keyboard-response","trial_index":3,"time_elapsed":3693735,"internal_node_id":"0.0-3.0","match_key":"l","participant_id":"COGS219_2020_03"},{"rt":21647.35499996459,"stimulus":"<p>In this experiment, you will hear various words or sounds and see pictures of various animals and objects.</p><p>Most of the images will be of common everyday objects, such as cars, cats, cows, firearms, frogs, chickens, whistles, trains, motorcycles, and dogs.</p><p>Some of the images will be real-life stills, while others will be cartoons.</p>","key_press":32,"trial_type":"html-keyboard-response","trial_index":4,"time_elapsed":3715384,"internal_node_id":"0.0-4.0","match_key":"l","participant_id":"COGS219_2020_03"},{"rt":16030.05000000121,"stimulus":"<p>Sometimes, the word/sound will match the picture, for example you'll hear a meowing sound and see a cat.</p><p>Other times, the picture will not match the sound or word.</p><p>Your task is to decide as quickly as possible if the word/sound matches the picture or not. </p>","key_press":32,"trial_type":"html-keyboard-response","trial_index":5,"time_elapsed":3731415,"internal_node_id":"0.0-5.0","match_key":"l","participant_id":"COGS219_2020_03"},{"rt":13951.330000010785,"stimulus":"<p>For example, if you hear the word \"cat\" or hear a meowing sound, and then see a picture of a cat, you should press the MATCH key.</p><p> If the sound and image do not match, press the NOT-MATCH key to indicate that there is not a match.</p>","key_press":32,"trial_type":"html-keyboard-response","trial_index":6,"time_elapsed":3745357,"internal_node_id":"0.0-6.0","match_key":"l","participant_id":"COGS219_2020_03"},{"rt":12942.565000033937,"stimulus":"<p>If you make a mistake, you will hear a buzzing sound instead of a more pleasant sound.</p><p> Try to respond as quickly as possible, while making as few errors as possible. If you are making mistakes, you are probably rushing.</p>","key_press":32,"trial_type":"html-keyboard-response","trial_index":7,"time_elapsed":3758301,"internal_node_id":"0.0-7.0","match_key":"l","participant_id":"COGS219_2020_03"},{"rt":13070.739999995567,"stimulus":"<p>Please try to not move or blink your eyes during the presentation of the images. You can move and blink between images.</p><p>During the experiment there will be some breaks during which you can rest your eyes.</p>","key_press":32,"trial_type":"html-keyboard-response","trial_index":8,"time_elapsed":3771373,"internal_node_id":"0.0-8.0","match_key":"l","participant_id":"COGS219_2020_03"},{"rt":15247.180000005756,"stimulus":"<p>We will begin with 10 practice trials. Please let the experimenter know if you have any questions.</p>","key_press":32,"trial_type":"html-keyboard-response","trial_index":9,"time_elapsed":3786621,"internal_node_id":"0.0-9.0","match_key":"l","participant_id":"COGS219_2020_03"},{"rt":null,"stimulus":"Sounds/gun_label.wav","key_press":null,"block":0,"trial_type":"audio-keyboard-response","trial_index":10,"time_elapsed":3787274,"internal_node_id":"0.0-10.0-0.0","match_key":"l","participant_id":"COGS219_2020_03"},{"rt":null,"stimulus":"<p style=\"font-size: 48px;\">+</p>","key_press":null,"block":0,"trial_type":"html-keyboard-response","trial_index":11,"time_elapsed":3788265,"internal_node_id":"0.0-10.0-1.0","match_key":"l","participant_id":"COGS219_2020_03"},{"rt":1713.4649999788962,"stimulus":"Images/gun_orig.png","key_press":76,"stim_onset":1581275184085,"block":0,"match_type":"match","image_category":"gun","sound_category":"gun","audio_type":"label","phase":"practice","trial_type":"image-keyboard-response","trial_index":12,"time_elapsed":3789980,"internal_node_id":"0.0-10.0-2.0","match_key":"l","participant_id":"COGS219_2020_03","correct":true},{"rt":null,"stimulus":"Sounds/correct.wav","key_press":null,"block":0,"trial_type":"audio-keyboard-response","trial_index":13,"time_elapsed":3791990,"internal_node_id":"0.0-10.0-3.0","match_key":"l","participant_id":"COGS219_2020_03"},{"rt":null,"stimulus":"Sounds/motorcycle_sound.wav","key_press":null,"block":0,"trial_type":"audio-keyboard-response","trial_index":14,"time_elapsed":3793114,"internal_node_id":"0.0-10.0-0.1","match_key":"l","participant_id":"COGS219_2020_03"},{"rt":null,"stimulus":"<p style=\"font-size: 48px;\">+</p>","key_press":null,"block":0,"trial_type":"html-keyboard-response","trial_index":15,"time_elapsed":3794115,"internal_node_id":"0.0-10.0-1.1","match_key":"l","participant_id":"COGS219_2020_03"},{"rt":920.0399999972433,"stimulus":"Images/frog_3.png","key_press":65,"stim_onset":1581275189935,"block":0,"match_type":"non-match","image_category":"frog","sound_category":"motorcycle","audio_type":"sound","phase":"practice","trial_type":"image-keyboard-response","trial_index":16,"time_elapsed":3795036,"internal_node_id":"0.0-10.0-2.1","match_key":"l","participant_id":"COGS219_2020_03","correct":true},{"rt":null,"stimulus":"Sounds/correct.wav","key_press":null,"block":0,"trial_type":"audio-keyboard-response","trial_index":17,"time_elapsed":3797052,"internal_node_id":"0.0-10.0-3.1","match_key":"l","participant_id":"COGS219_2020_03"},{"rt":null,"stimulus":"Sounds/dog_sound.wav","key_press":null,"block":0,"trial_type":"audio-keyboard-response","trial_index":18,"time_elapsed":3797754,"internal_node_id":"0.0-10.0-0.2","match_key":"l","participant_id":"COGS219_2020_03"},{"rt":null,"stimulus":"<p style=\"font-size: 48px;\">+</p>","key_press":null,"block":0,"trial_type":"html-keyboard-response","trial_index":19,"time_elapsed":3798748,"internal_node_id":"0.0-10.0-1.2","match_key":"l","participant_id":"COGS219_2020_03"},{"rt":479.0599999832921,"stimulus":"Images/dog_2.png","key_press":76,"stim_onset":1581275194568,"block":0,"match_type":"match","image_category":"dog","sound_category":"dog","audio_type":"sound","phase":"practice","trial_type":"image-keyboard-response","trial_index":20,"time_elapsed":3799228,"internal_node_id":"0.0-10.0-2.2","match_key":"l","participant_id":"COGS219_2020_03","correct":true},{"rt":null,"stimulus":"Sounds/correct.wav","key_press":null,"block":0,"trial_type":"audio-keyboard-response","trial_index":21,"time_elapsed":3801236,"internal_node_id":"0.0-10.0-3.2","match_key":"l","participant_id":"COGS219_2020_03"},{"rt":null,"stimulus":"Sounds/car_label.wav","key_press":null,"block":0,"trial_type":"audio-keyboard-response","trial_index":22,"time_elapsed":3802314,"internal_node_id":"0.0-10.0-0.3","match_key":"l","participant_id":"COGS219_2020_03"},{"rt":null,"stimulus":"<p style=\"font-size: 48px;\">+</p>","key_press":null,"block":0,"trial_type":"html-keyboard-response","trial_index":23,"time_elapsed":3803315,"internal_node_id":"0.0-10.0-1.3","match_key":"l","participant_id":"COGS219_2020_03"},{"rt":632.1549999993294,"stimulus":"Images/car_cartoon.png","key_press":76,"stim_onset":1581275199135,"block":0,"match_type":"match","image_category":"car","sound_category":"car","audio_type":"label","phase":"practice","trial_type":"image-keyboard-response","trial_index":24,"time_elapsed":3803948,"internal_node_id":"0.0-10.0-2.3","match_key":"l","participant_id":"COGS219_2020_03","correct":true},{"rt":null,"stimulus":"Sounds/correct.wav","key_press":null,"block":0,"trial_type":"audio-keyboard-response","trial_index":25,"time_elapsed":3805964,"internal_node_id":"0.0-10.0-3.3","match_key":"l","participant_id":"COGS219_2020_03"},{"rt":null,"stimulus":"Sounds/dog_sound.wav","key_press":null,"block":0,"trial_type":"audio-keyboard-response","trial_index":26,"time_elapsed":3806665,"internal_node_id":"0.0-10.0-0.4","match_key":"l","participant_id":"COGS219_2020_03"},{"rt":null,"stimulus":"<p style=\"font-size: 48px;\">+</p>","key_press":null,"block":0,"trial_type":"html-keyboard-response","trial_index":27,"time_elapsed":3807659,"internal_node_id":"0.0-10.0-1.4","match_key":"l","participant_id":"COGS219_2020_03"},{"rt":602.820000029169,"stimulus":"Images/dog_1.png","key_press":76,"stim_onset":1581275203479,"block":0,"match_type":"match","image_category":"dog","sound_category":"dog","audio_type":"sound","phase":"practice","trial_type":"image-keyboard-response","trial_index":28,"time_elapsed":3808263,"internal_node_id":"0.0-10.0-2.4","match_key":"l","participant_id":"COGS219_2020_03","correct":true},{"rt":null,"stimulus":"Sounds/correct.wav","key_press":null,"block":0,"trial_type":"audio-keyboard-response","trial_index":29,"time_elapsed":3810280,"internal_node_id":"0.0-10.0-3.4","match_key":"l","participant_id":"COGS219_2020_03"},{"rt":null,"stimulus":"Sounds/whistle_sound.wav","key_press":null,"block":0,"trial_type":"audio-keyboard-response","trial_index":30,"time_elapsed":3810985,"internal_node_id":"0.0-10.0-0.5","match_key":"l","participant_id":"COGS219_2020_03"},{"rt":null,"stimulus":"<p style=\"font-size: 48px;\">+</p>","key_press":null,"block":0,"trial_type":"html-keyboard-response","trial_index":31,"time_elapsed":3811976,"internal_node_id":"0.0-10.0-1.5","match_key":"l","participant_id":"COGS219_2020_03"},{"rt":781.9449999951757,"stimulus":"Images/car_3.png","key_press":65,"stim_onset":1581275207796,"block":0,"match_type":"non-match","image_category":"car","sound_category":"whistle","audio_type":"sound","phase":"practice","trial_type":"image-keyboard-response","trial_index":32,"time_elapsed":3812759,"internal_node_id":"0.0-10.0-2.5","match_key":"l","participant_id":"COGS219_2020_03","correct":true},{"rt":null,"stimulus":"Sounds/correct.wav","key_press":null,"block":0,"trial_type":"audio-keyboard-response","trial_index":33,"time_elapsed":3814764,"internal_node_id":"0.0-10.0-3.5","match_key":"l","participant_id":"COGS219_2020_03"},{"rt":null,"stimulus":"Sounds/cow_sound.wav","key_press":null,"block":0,"trial_type":"audio-keyboard-response","trial_index":34,"time_elapsed":3815785,"internal_node_id":"0.0-10.0-0.6","match_key":"l","participant_id":"COGS219_2020_03"},{"rt":null,"stimulus":"<p style=\"font-size: 48px;\">+</p>","key_press":null,"block":0,"trial_type":"html-keyboard-response","trial_index":35,"time_elapsed":3816776,"internal_node_id":"0.0-10.0-1.6","match_key":"l","participant_id":"COGS219_2020_03"},{"rt":509.9749999935739,"stimulus":"Images/gun_orig.png","key_press":65,"stim_onset":1581275212596,"block":0,"match_type":"non-match","image_category":"gun","sound_category":"cow","audio_type":"sound","phase":"practice","trial_type":"image-keyboard-response","trial_index":36,"time_elapsed":3817287,"internal_node_id":"0.0-10.0-2.6","match_key":"l","participant_id":"COGS219_2020_03","correct":true},{"rt":null,"stimulus":"Sounds/correct.wav","key_press":null,"block":0,"trial_type":"audio-keyboard-response","trial_index":37,"time_elapsed":3819296,"internal_node_id":"0.0-10.0-3.6","match_key":"l","participant_id":"COGS219_2020_03"},{"rt":null,"stimulus":"Sounds/rooster_label.wav","key_press":null,"block":0,"trial_type":"audio-keyboard-response","trial_index":38,"time_elapsed":3819985,"internal_node_id":"0.0-10.0-0.7","match_key":"l","participant_id":"COGS219_2020_03"},{"rt":null,"stimulus":"<p style=\"font-size: 48px;\">+</p>","key_press":null,"block":0,"trial_type":"html-keyboard-response","trial_index":39,"time_elapsed":3820976,"internal_node_id":"0.0-10.0-1.7","match_key":"l","participant_id":"COGS219_2020_03"},{"rt":710.1499999989755,"stimulus":"Images/rooster_orig.png","key_press":76,"stim_onset":1581275216796,"block":0,"match_type":"match","image_category":"rooster","sound_category":"rooster","audio_type":"label","phase":"practice","trial_type":"image-keyboard-response","trial_index":40,"time_elapsed":3821687,"internal_node_id":"0.0-10.0-2.7","match_key":"l","participant_id":"COGS219_2020_03","correct":true},{"rt":null,"stimulus":"Sounds/correct.wav","key_press":null,"block":0,"trial_type":"audio-keyboard-response","trial_index":41,"time_elapsed":3823691,"internal_node_id":"0.0-10.0-3.7","match_key":"l","participant_id":"COGS219_2020_03"},{"rt":null,"stimulus":"Sounds/car_label.wav","key_press":null,"block":0,"trial_type":"audio-keyboard-response","trial_index":42,"time_elapsed":3824765,"internal_node_id":"0.0-10.0-0.8","match_key":"l","participant_id":"COGS219_2020_03"},{"rt":null,"stimulus":"<p style=\"font-size: 48px;\">+</p>","key_press":null,"block":0,"trial_type":"html-keyboard-response","trial_index":43,"time_elapsed":3825759,"internal_node_id":"0.0-10.0-1.8","match_key":"l","participant_id":"COGS219_2020_03"},{"rt":502.7649999829009,"stimulus":"Images/car_3.png","key_press":76,"stim_onset":1581275221579,"block":0,"match_type":"match","image_category":"car","sound_category":"car","audio_type":"label","phase":"practice","trial_type":"image-keyboard-response","trial_index":44,"time_elapsed":3826263,"internal_node_id":"0.0-10.0-2.8","match_key":"l","participant_id":"COGS219_2020_03","correct":true},{"rt":null,"stimulus":"Sounds/correct.wav","key_press":null,"block":0,"trial_type":"audio-keyboard-response","trial_index":45,"time_elapsed":3828280,"internal_node_id":"0.0-10.0-3.8","match_key":"l","participant_id":"COGS219_2020_03"},{"rt":null,"stimulus":"Sounds/frog_sound.wav","key_press":null,"block":0,"trial_type":"audio-keyboard-response","trial_index":46,"time_elapsed":3829185,"internal_node_id":"0.0-10.0-0.9","match_key":"l","participant_id":"COGS219_2020_03"},{"rt":null,"stimulus":"<p style=\"font-size: 48px;\">+</p>","key_press":null,"block":0,"trial_type":"html-keyboard-response","trial_index":47,"time_elapsed":3830176,"internal_node_id":"0.0-10.0-1.9","match_key":"l","participant_id":"COGS219_2020_03"},{"rt":486.0200000111945,"stimulus":"Images/frog_3.png","key_press":65,"stim_onset":1581275225996,"block":0,"match_type":"match","image_category":"frog","sound_category":"frog","audio_type":"sound","phase":"practice","trial_type":"image-keyboard-response","trial_index":48,"time_elapsed":3830663,"internal_node_id":"0.0-10.0-2.9","match_key":"l","participant_id":"COGS219_2020_03","correct":false},{"rt":null,"stimulus":"Sounds/incorrect.wav","key_press":null,"block":0,"trial_type":"audio-keyboard-response","trial_index":49,"time_elapsed":3832680,"internal_node_id":"0.0-10.0-3.9","match_key":"l","participant_id":"COGS219_2020_03"},{"rt":30655.320000019856,"stimulus":"<p>The rest of the experiment is divided into five blocks with 100 trials in each block. It will take about 45 minutes to complete.</p><p>The experimenter will be in the outer room and you can communicate with them through the monitor if you have any questions or wish to stop the experiment.</p>","key_press":32,"trial_type":"html-keyboard-response","trial_index":50,"time_elapsed":3863336,"internal_node_id":"0.0-11.0","match_key":"l","participant_id":"COGS219_2020_03"},{"rt":2845.644999993965,"stimulus":"<p>Remember, please try not to move or blink your eyes during the presentation of the images. </p><p>At the end of the experiment, we will show you your scores on the task so you can see how you did.</p><p>The experiment will start on the next screen.</p>","key_press":32,"trial_type":"html-keyboard-response","trial_index":51,"time_elapsed":3866175,"internal_node_id":"0.0-12.0","match_key":"l","participant_id":"COGS219_2020_03"},{"rt":null,"stimulus":"Sounds/gun_label.wav","key_press":null,"block":1,"trial_type":"audio-keyboard-response","trial_index":52,"time_elapsed":3868779,"internal_node_id":"0.0-13.0-0.0","match_key":"l","participant_id":"COGS219_2020_03"},{"rt":null,"stimulus":"<p style=\"font-size: 48px;\">+</p>","key_press":null,"block":1,"trial_type":"html-keyboard-response","trial_index":53,"time_elapsed":3869768,"internal_node_id":"0.0-13.0-1.0","match_key":"l","participant_id":"COGS219_2020_03"},{"rt":453.4550000098534,"stimulus":"Images/gun_2.png","key_press":76,"stim_onset":1581275265588,"block":1,"match_type":"match","image_category":"gun","sound_category":"gun","audio_type":"label","phase":"test","trial_type":"image-keyboard-response","trial_index":54,"time_elapsed":3870223,"internal_node_id":"0.0-13.0-2.0","match_key":"l","participant_id":"COGS219_2020_03","correct":true},{"rt":null,"stimulus":"Sounds/correct.wav","key_press":null,"block":1,"trial_type":"audio-keyboard-response","trial_index":55,"time_elapsed":3872239,"internal_node_id":"0.0-13.0-3.0","match_key":"l","participant_id":"COGS219_2020_03"},{"rt":null,"stimulus":"Sounds/motorcycle_sound.wav","key_press":null,"block":1,"trial_type":"audio-keyboard-response","trial_index":56,"time_elapsed":3873360,"internal_node_id":"0.0-13.0-0.1","match_key":"l","participant_id":"COGS219_2020_03"},{"rt":null,"stimulus":"<p style=\"font-size: 48px;\">+</p>","key_press":null,"block":1,"trial_type":"html-keyboard-response","trial_index":57,"time_elapsed":3874351,"internal_node_id":"0.0-13.0-1.1","match_key":"l","participant_id":"COGS219_2020_03"},{"rt":622.4949999595992,"stimulus":"Images/motorcycle_2.png","key_press":76,"stim_onset":1581275270172,"block":1,"match_type":"match","image_category":"motorcycle","sound_category":"motorcycle","audio_type":"sound","phase":"test","trial_type":"image-keyboard-response","trial_index":58,"time_elapsed":3874975,"internal_node_id":"0.0-13.0-2.1","match_key":"l","participant_id":"COGS219_2020_03","correct":true},{"rt":null,"stimulus":"Sounds/correct.wav","key_press":null,"block":1,"trial_type":"audio-keyboard-response","trial_index":59,"time_elapsed":3876993,"internal_node_id":"0.0-13.0-3.1","match_key":"l","participant_id":"COGS219_2020_03"},{"rt":null,"stimulus":"Sounds/car_sound.wav","key_press":null,"block":1,"trial_type":"audio-keyboard-response","trial_index":60,"time_elapsed":3878079,"internal_node_id":"0.0-13.0-0.2","match_key":"l","participant_id":"COGS219_2020_03"},{"rt":null,"stimulus":"<p style=\"font-size: 48px;\">+</p>","key_press":null,"block":1,"trial_type":"html-keyboard-response","trial_index":61,"time_elapsed":3879085,"internal_node_id":"0.0-13.0-1.2","match_key":"l","participant_id":"COGS219_2020_03"},{"rt":560.5499999946915,"stimulus":"Images/car_orig.png","key_press":76,"stim_onset":1581275274905,"block":1,"match_type":"match","image_category":"car","sound_category":"car","audio_type":"sound","phase":"test","trial_type":"image-keyboard-response","trial_index":62,"time_elapsed":3879647,"internal_node_id":"0.0-13.0-2.2","match_key":"l","participant_id":"COGS219_2020_03","correct":true},{"rt":null,"stimulus":"Sounds/correct.wav","key_press":null,"block":1,"trial_type":"audio-keyboard-response","trial_index":63,"time_elapsed":3881657,"internal_node_id":"0.0-13.0-3.2","match_key":"l","participant_id":"COGS219_2020_03"},{"rt":null,"stimulus":"Sounds/motorcycle_sound.wav","key_press":null,"block":1,"trial_type":"audio-keyboard-response","trial_index":64,"time_elapsed":3882739,"internal_node_id":"0.0-13.0-0.3","match_key":"l","participant_id":"COGS219_2020_03"},{"rt":null,"stimulus":"<p style=\"font-size: 48px;\">+</p>","key_press":null,"block":1,"trial_type":"html-keyboard-response","trial_index":65,"time_elapsed":3883735,"internal_node_id":"0.0-13.0-1.3","match_key":"l","participant_id":"COGS219_2020_03"},{"rt":566.6450000135228,"stimulus":"Images/cat_cartoon.png","key_press":65,"stim_onset":1581275279555,"block":1,"match_type":"non-match","image_category":"cat","sound_category":"motorcycle","audio_type":"sound","phase":"test","trial_type":"image-keyboard-response","trial_index":66,"time_elapsed":3884303,"internal_node_id":"0.0-13.0-2.3","match_key":"l","participant_id":"COGS219_2020_03","correct":true},{"rt":null,"stimulus":"Sounds/correct.wav","key_press":null,"block":1,"trial_type":"audio-keyboard-response","trial_index":67,"time_elapsed":3886308,"internal_node_id":"0.0-13.0-3.3","match_key":"l","participant_id":"COGS219_2020_03"},{"rt":null,"stimulus":"Sounds/dog_sound.wav","key_press":null,"block":1,"trial_type":"audio-keyboard-response","trial_index":68,"time_elapsed":3887019,"internal_node_id":"0.0-13.0-0.4","match_key":"l","participant_id":"COGS219_2020_03"},{"rt":null,"stimulus":"<p style=\"font-size: 48px;\">+</p>","key_press":null,"block":1,"trial_type":"html-keyboard-response","trial_index":69,"time_elapsed":3888019,"internal_node_id":"0.0-13.0-1.4","match_key":"l","participant_id":"COGS219_2020_03"},{"rt":425.1149999909103,"stimulus":"Images/dog_3.png","key_press":76,"stim_onset":1581275283839,"block":1,"match_type":"match","image_category":"dog","sound_category":"dog","audio_type":"sound","phase":"test","trial_type":"image-keyboard-response","trial_index":70,"time_elapsed":3888447,"internal_node_id":"0.0-13.0-2.4","match_key":"l","participant_id":"COGS219_2020_03","correct":true},{"rt":null,"stimulus":"Sounds/correct.wav","key_press":null,"block":1,"trial_type":"audio-keyboard-response","trial_index":71,"time_elapsed":3890457,"internal_node_id":"0.0-13.0-3.4","match_key":"l","participant_id":"COGS219_2020_03"},{"rt":null,"stimulus":"Sounds/dog_label.wav","key_press":null,"block":1,"trial_type":"audio-keyboard-response","trial_index":72,"time_elapsed":3891119,"internal_node_id":"0.0-13.0-0.5","match_key":"l","participant_id":"COGS219_2020_03"},{"rt":null,"stimulus":"<p style=\"font-size: 48px;\">+</p>","key_press":null,"block":1,"trial_type":"html-keyboard-response","trial_index":73,"time_elapsed":3892118,"internal_node_id":"0.0-13.0-1.5","match_key":"l","participant_id":"COGS219_2020_03"},{"rt":375.3199999919161,"stimulus":"Images/dog_2.png","key_press":76,"stim_onset":1581275287938,"block":1,"match_type":"match","image_category":"dog","sound_category":"dog","audio_type":"label","phase":"test","trial_type":"image-keyboard-response","trial_index":74,"time_elapsed":3892495,"internal_node_id":"0.0-13.0-2.5","match_key":"l","participant_id":"COGS219_2020_03","correct":true},{"rt":null,"stimulus":"Sounds/correct.wav","key_press":null,"block":1,"trial_type":"audio-keyboard-response","trial_index":75,"time_elapsed":3894506,"internal_node_id":"0.0-13.0-3.5","match_key":"l","participant_id":"COGS219_2020_03"},{"rt":null,"stimulus":"Sounds/cat_label.wav","key_press":null,"block":1,"trial_type":"audio-keyboard-response","trial_index":76,"time_elapsed":3895339,"internal_node_id":"0.0-13.0-0.6","match_key":"l","participant_id":"COGS219_2020_03"},{"rt":null,"stimulus":"<p style=\"font-size: 48px;\">+</p>","key_press":null,"block":1,"trial_type":"html-keyboard-response","trial_index":77,"time_elapsed":3896335,"internal_node_id":"0.0-13.0-1.6","match_key":"l","participant_id":"COGS219_2020_03"},{"rt":590.4350000200793,"stimulus":"Images/car_2.png","key_press":65,"stim_onset":1581275292155,"block":1,"match_type":"non-match","image_category":"car","sound_category":"cat","audio_type":"label","phase":"test","trial_type":"image-keyboard-response","trial_index":78,"time_elapsed":3896926,"internal_node_id":"0.0-13.0-2.6","match_key":"l","participant_id":"COGS219_2020_03","correct":true},{"rt":null,"stimulus":"Sounds/correct.wav","key_press":null,"block":1,"trial_type":"audio-keyboard-response","trial_index":79,"time_elapsed":3898941,"internal_node_id":"0.0-13.0-3.6","match_key":"l","participant_id":"COGS219_2020_03"},{"rt":null,"stimulus":"Sounds/gun_label.wav","key_press":null,"block":1,"trial_type":"audio-keyboard-response","trial_index":80,"time_elapsed":3899519,"internal_node_id":"0.0-13.0-0.7","match_key":"l","participant_id":"COGS219_2020_03"},{"rt":null,"stimulus":"<p style=\"font-size: 48px;\">+</p>","key_press":null,"block":1,"trial_type":"html-keyboard-response","trial_index":81,"time_elapsed":3900519,"internal_node_id":"0.0-13.0-1.7","match_key":"l","participant_id":"COGS219_2020_03"},{"rt":551.3499999651685,"stimulus":"Images/gun_1.png","key_press":76,"stim_onset":1581275296339,"block":1,"match_type":"match","image_category":"gun","sound_category":"gun","audio_type":"label","phase":"test","trial_type":"image-keyboard-response","trial_index":82,"time_elapsed":3901071,"internal_node_id":"0.0-13.0-2.7","match_key":"l","participant_id":"COGS219_2020_03","correct":true},{"rt":null,"stimulus":"Sounds/correct.wav","key_press":null,"block":1,"trial_type":"audio-keyboard-response","trial_index":83,"time_elapsed":3903076,"internal_node_id":"0.0-13.0-3.7","match_key":"l","participant_id":"COGS219_2020_03"},{"rt":null,"stimulus":"Sounds/rooster_label.wav","key_press":null,"block":1,"trial_type":"audio-keyboard-response","trial_index":84,"time_elapsed":3903779,"internal_node_id":"0.0-13.0-0.8","match_key":"l","participant_id":"COGS219_2020_03"},{"rt":null,"stimulus":"<p style=\"font-size: 48px;\">+</p>","key_press":null,"block":1,"trial_type":"html-keyboard-response","trial_index":85,"time_elapsed":3904768,"internal_node_id":"0.0-13.0-1.8","match_key":"l","participant_id":"COGS219_2020_03"},{"rt":525.3549999906681,"stimulus":"Images/cow_1.png","key_press":65,"stim_onset":1581275300589,"block":1,"match_type":"non-match","image_category":"cow","sound_category":"rooster","audio_type":"label","phase":"test","trial_type":"image-keyboard-response","trial_index":86,"time_elapsed":3905295,"internal_node_id":"0.0-13.0-2.8","match_key":"l","participant_id":"COGS219_2020_03","correct":true},{"rt":null,"stimulus":"Sounds/correct.wav","key_press":null,"block":1,"trial_type":"audio-keyboard-response","trial_index":87,"time_elapsed":3907305,"internal_node_id":"0.0-13.0-3.8","match_key":"l","participant_id":"COGS219_2020_03"},{"rt":null,"stimulus":"Sounds/cow_label.wav","key_press":null,"block":1,"trial_type":"audio-keyboard-response","trial_index":88,"time_elapsed":3908319,"internal_node_id":"0.0-13.0-0.9","match_key":"l","participant_id":"COGS219_2020_03"},{"rt":null,"stimulus":"<p style=\"font-size: 48px;\">+</p>","key_press":null,"block":1,"trial_type":"html-keyboard-response","trial_index":89,"time_elapsed":3909319,"internal_node_id":"0.0-13.0-1.9","match_key":"l","participant_id":"COGS219_2020_03"},{"rt":582.799999974668,"stimulus":"Images/cow_orig.png","key_press":76,"stim_onset":1581275305139,"block":1,"match_type":"match","image_category":"cow","sound_category":"cow","audio_type":"label","phase":"test","trial_type":"image-keyboard-response","trial_index":90,"time_elapsed":3909903,"internal_node_id":"0.0-13.0-2.9","match_key":"l","participant_id":"COGS219_2020_03","correct":true},{"rt":null,"stimulus":"Sounds/correct.wav","key_press":null,"block":1,"trial_type":"audio-keyboard-response","trial_index":91,"time_elapsed":3911907,"internal_node_id":"0.0-13.0-3.9","match_key":"l","participant_id":"COGS219_2020_03"},{"rt":null,"stimulus":"Sounds/cow_sound.wav","key_press":null,"block":1,"trial_type":"audio-keyboard-response","trial_index":92,"time_elapsed":3912919,"internal_node_id":"0.0-13.0-0.10","match_key":"l","participant_id":"COGS219_2020_03"},{"rt":null,"stimulus":"<p style=\"font-size: 48px;\">+</p>","key_press":null,"block":1,"trial_type":"html-keyboard-response","trial_index":93,"time_elapsed":3913919,"internal_node_id":"0.0-13.0-1.10","match_key":"l","participant_id":"COGS219_2020_03"},{"rt":447.22000003093854,"stimulus":"Images/rooster_orig.png","key_press":65,"stim_onset":1581275309739,"block":1,"match_type":"non-match","image_category":"rooster","sound_category":"cow","audio_type":"sound","phase":"test","trial_type":"image-keyboard-response","trial_index":94,"time_elapsed":3914367,"internal_node_id":"0.0-13.0-2.10","match_key":"l","participant_id":"COGS219_2020_03","correct":true},{"rt":null,"stimulus":"Sounds/correct.wav","key_press":null,"block":1,"trial_type":"audio-keyboard-response","trial_index":95,"time_elapsed":3916374,"internal_node_id":"0.0-13.0-3.10","match_key":"l","participant_id":"COGS219_2020_03"},{"rt":null,"stimulus":"Sounds/cow_sound.wav","key_press":null,"block":1,"trial_type":"audio-keyboard-response","trial_index":96,"time_elapsed":3917359,"internal_node_id":"0.0-13.0-0.11","match_key":"l","participant_id":"COGS219_2020_03"},{"rt":null,"stimulus":"<p style=\"font-size: 48px;\">+</p>","key_press":null,"block":1,"trial_type":"html-keyboard-response","trial_index":97,"time_elapsed":3918352,"internal_node_id":"0.0-13.0-1.11","match_key":"l","participant_id":"COGS219_2020_03"},{"rt":509.84000001335517,"stimulus":"Images/dog_orig.png","key_press":76,"stim_onset":1581275314172,"block":1,"match_type":"non-match","image_category":"dog","sound_category":"cow","audio_type":"sound","phase":"test","trial_type":"image-keyboard-response","trial_index":98,"time_elapsed":3918863,"internal_node_id":"0.0-13.0-2.11","match_key":"l","participant_id":"COGS219_2020_03","correct":false},{"rt":null,"stimulus":"Sounds/incorrect.wav","key_press":null,"block":1,"trial_type":"audio-keyboard-response","trial_index":99,"time_elapsed":3920872,"internal_node_id":"0.0-13.0-3.11","match_key":"l","participant_id":"COGS219_2020_03"},{"rt":null,"stimulus":"Sounds/gun_label.wav","key_press":null,"block":1,"trial_type":"audio-keyboard-response","trial_index":100,"time_elapsed":3921439,"internal_node_id":"0.0-13.0-0.12","match_key":"l","participant_id":"COGS219_2020_03"},{"rt":null,"stimulus":"<p style=\"font-size: 48px;\">+</p>","key_press":null,"block":1,"trial_type":"html-keyboard-response","trial_index":101,"time_elapsed":3922435,"internal_node_id":"0.0-13.0-1.12","match_key":"l","participant_id":"COGS219_2020_03"},{"rt":506.24999997671694,"stimulus":"Images/train_orig.png","key_press":65,"stim_onset":1581275318255,"block":1,"match_type":"non-match","image_category":"train","sound_category":"gun","audio_type":"label","phase":"test","trial_type":"image-keyboard-response","trial_index":102,"time_elapsed":3922943,"internal_node_id":"0.0-13.0-2.12","match_key":"l","participant_id":"COGS219_2020_03","correct":true},{"rt":null,"stimulus":"Sounds/correct.wav","key_press":null,"block":1,"trial_type":"audio-keyboard-response","trial_index":103,"time_elapsed":3924944,"internal_node_id":"0.0-13.0-3.12","match_key":"l","participant_id":"COGS219_2020_03"},{"rt":null,"stimulus":"Sounds/cat_sound.wav","key_press":null,"block":1,"trial_type":"audio-keyboard-response","trial_index":104,"time_elapsed":3925779,"internal_node_id":"0.0-13.0-0.13","match_key":"l","participant_id":"COGS219_2020_03"},{"rt":null,"stimulus":"<p style=\"font-size: 48px;\">+</p>","key_press":null,"block":1,"trial_type":"html-keyboard-response","trial_index":105,"time_elapsed":3926778,"internal_node_id":"0.0-13.0-1.13","match_key":"l","participant_id":"COGS219_2020_03"},{"rt":525.4100000020117,"stimulus":"Images/cat_3.png","key_press":76,"stim_onset":1581275322598,"block":1,"match_type":"match","image_category":"cat","sound_category":"cat","audio_type":"sound","phase":"test","trial_type":"image-keyboard-response","trial_index":106,"time_elapsed":3927304,"internal_node_id":"0.0-13.0-2.13","match_key":"l","participant_id":"COGS219_2020_03","correct":true},{"rt":null,"stimulus":"Sounds/correct.wav","key_press":null,"block":1,"trial_type":"audio-keyboard-response","trial_index":107,"time_elapsed":3929314,"internal_node_id":"0.0-13.0-3.13","match_key":"l","participant_id":"COGS219_2020_03"},{"rt":null,"stimulus":"Sounds/cat_sound.wav","key_press":null,"block":1,"trial_type":"audio-keyboard-response","trial_index":108,"time_elapsed":3930128,"internal_node_id":"0.0-13.0-0.14","match_key":"l","participant_id":"COGS219_2020_03"},{"rt":null,"stimulus":"<p style=\"font-size: 48px;\">+</p>","key_press":null,"block":1,"trial_type":"html-keyboard-response","trial_index":109,"time_elapsed":3931128,"internal_node_id":"0.0-13.0-1.14","match_key":"l","participant_id":"COGS219_2020_03"},{"rt":431.26500002108514,"stimulus":"Images/dog_2.png","key_press":65,"stim_onset":1581275326948,"block":1,"match_type":"non-match","image_category":"dog","sound_category":"cat","audio_type":"sound","phase":"test","trial_type":"image-keyboard-response","trial_index":110,"time_elapsed":3931560,"internal_node_id":"0.0-13.0-2.14","match_key":"l","participant_id":"COGS219_2020_03","correct":true},{"rt":null,"stimulus":"Sounds/correct.wav","key_press":null,"block":1,"trial_type":"audio-keyboard-response","trial_index":111,"time_elapsed":3933567,"internal_node_id":"0.0-13.0-3.14","match_key":"l","participant_id":"COGS219_2020_03"},{"rt":null,"stimulus":"Sounds/frog_sound.wav","key_press":null,"block":1,"trial_type":"audio-keyboard-response","trial_index":112,"time_elapsed":3934468,"internal_node_id":"0.0-13.0-0.15","match_key":"l","participant_id":"COGS219_2020_03"},{"rt":null,"stimulus":"<p style=\"font-size: 48px;\">+</p>","key_press":null,"block":1,"trial_type":"html-keyboard-response","trial_index":113,"time_elapsed":3935461,"internal_node_id":"0.0-13.0-1.15","match_key":"l","participant_id":"COGS219_2020_03"},{"rt":705.5099999997765,"stimulus":"Images/frog_cartoon.png","key_press":76,"stim_onset":1581275331282,"block":1,"match_type":"match","image_category":"frog","sound_category":"frog","audio_type":"sound","phase":"test","trial_type":"image-keyboard-response","trial_index":114,"time_elapsed":3936168,"internal_node_id":"0.0-13.0-2.15","match_key":"l","participant_id":"COGS219_2020_03","correct":true},{"rt":null,"stimulus":"Sounds/correct.wav","key_press":null,"block":1,"trial_type":"audio-keyboard-response","trial_index":115,"time_elapsed":3938182,"internal_node_id":"0.0-13.0-3.15","match_key":"l","participant_id":"COGS219_2020_03"},{"rt":null,"stimulus":"Sounds/car_label.wav","key_press":null,"block":1,"trial_type":"audio-keyboard-response","trial_index":116,"time_elapsed":3939268,"internal_node_id":"0.0-13.0-0.16","match_key":"l","participant_id":"COGS219_2020_03"},{"rt":null,"stimulus":"<p style=\"font-size: 48px;\">+</p>","key_press":null,"block":1,"trial_type":"html-keyboard-response","trial_index":117,"time_elapsed":3940261,"internal_node_id":"0.0-13.0-1.16","match_key":"l","participant_id":"COGS219_2020_03"},{"rt":609.775000018999,"stimulus":"Images/gun_3.png","key_press":65,"stim_onset":1581275336082,"block":1,"match_type":"non-match","image_category":"gun","sound_category":"car","audio_type":"label","phase":"test","trial_type":"image-keyboard-response","trial_index":118,"time_elapsed":3940872,"internal_node_id":"0.0-13.0-2.16","match_key":"l","participant_id":"COGS219_2020_03","correct":true},{"rt":null,"stimulus":"Sounds/correct.wav","key_press":null,"block":1,"trial_type":"audio-keyboard-response","trial_index":119,"time_elapsed":3942883,"internal_node_id":"0.0-13.0-3.16","match_key":"l","participant_id":"COGS219_2020_03"},{"rt":null,"stimulus":"Sounds/train_label.wav","key_press":null,"block":1,"trial_type":"audio-keyboard-response","trial_index":120,"time_elapsed":3944168,"internal_node_id":"0.0-13.0-0.17","match_key":"l","participant_id":"COGS219_2020_03"},{"rt":null,"stimulus":"<p style=\"font-size: 48px;\">+</p>","key_press":null,"block":1,"trial_type":"html-keyboard-response","trial_index":121,"time_elapsed":3945161,"internal_node_id":"0.0-13.0-1.17","match_key":"l","participant_id":"COGS219_2020_03"},{"rt":493.69500001193956,"stimulus":"Images/car_3.png","key_press":65,"stim_onset":1581275340982,"block":1,"match_type":"non-match","image_category":"car","sound_category":"train","audio_type":"label","phase":"test","trial_type":"image-keyboard-response","trial_index":122,"time_elapsed":3945656,"internal_node_id":"0.0-13.0-2.17","match_key":"l","participant_id":"COGS219_2020_03","correct":true},{"rt":null,"stimulus":"Sounds/correct.wav","key_press":null,"block":1,"trial_type":"audio-keyboard-response","trial_index":123,"time_elapsed":3947666,"internal_node_id":"0.0-13.0-3.17","match_key":"l","participant_id":"COGS219_2020_03"},{"rt":null,"stimulus":"Sounds/rooster_label.wav","key_press":null,"block":1,"trial_type":"audio-keyboard-response","trial_index":124,"time_elapsed":3948368,"internal_node_id":"0.0-13.0-0.18","match_key":"l","participant_id":"COGS219_2020_03"},{"rt":null,"stimulus":"<p style=\"font-size: 48px;\">+</p>","key_press":null,"block":1,"trial_type":"html-keyboard-response","trial_index":125,"time_elapsed":3949362,"internal_node_id":"0.0-13.0-1.18","match_key":"l","participant_id":"COGS219_2020_03"},{"rt":531.3099999912083,"stimulus":"Images/rooster_1.png","key_press":76,"stim_onset":1581275345182,"block":1,"match_type":"match","image_category":"rooster","sound_category":"rooster","audio_type":"label","phase":"test","trial_type":"image-keyboard-response","trial_index":126,"time_elapsed":3949896,"internal_node_id":"0.0-13.0-2.18","match_key":"l","participant_id":"COGS219_2020_03","correct":true},{"rt":null,"stimulus":"Sounds/correct.wav","key_press":null,"block":1,"trial_type":"audio-keyboard-response","trial_index":127,"time_elapsed":3951900,"internal_node_id":"0.0-13.0-3.18","match_key":"l","participant_id":"COGS219_2020_03"},{"rt":null,"stimulus":"Sounds/car_label.wav","key_press":null,"block":1,"trial_type":"audio-keyboard-response","trial_index":128,"time_elapsed":3952948,"internal_node_id":"0.0-13.0-0.19","match_key":"l","participant_id":"COGS219_2020_03"},{"rt":null,"stimulus":"<p style=\"font-size: 48px;\">+</p>","key_press":null,"block":1,"trial_type":"html-keyboard-response","trial_index":129,"time_elapsed":3953945,"internal_node_id":"0.0-13.0-1.19","match_key":"l","participant_id":"COGS219_2020_03"},{"rt":478.3149999566376,"stimulus":"Images/dog_1.png","key_press":65,"stim_onset":1581275349765,"block":1,"match_type":"non-match","image_category":"dog","sound_category":"car","audio_type":"label","phase":"test","trial_type":"image-keyboard-response","trial_index":130,"time_elapsed":3954424,"internal_node_id":"0.0-13.0-2.19","match_key":"l","participant_id":"COGS219_2020_03","correct":true},{"rt":null,"stimulus":"Sounds/correct.wav","key_press":null,"block":1,"trial_type":"audio-keyboard-response","trial_index":131,"time_elapsed":3956433,"internal_node_id":"0.0-13.0-3.19","match_key":"l","participant_id":"COGS219_2020_03"},{"rt":null,"stimulus":"Sounds/cat_label.wav","key_press":null,"block":1,"trial_type":"audio-keyboard-response","trial_index":132,"time_elapsed":3957268,"internal_node_id":"0.0-13.0-0.20","match_key":"l","participant_id":"COGS219_2020_03"},{"rt":null,"stimulus":"<p style=\"font-size: 48px;\">+</p>","key_press":null,"block":1,"trial_type":"html-keyboard-response","trial_index":133,"time_elapsed":3958262,"internal_node_id":"0.0-13.0-1.20","match_key":"l","participant_id":"COGS219_2020_03"},{"rt":433.39999997988343,"stimulus":"Images/cat_orig.png","key_press":76,"stim_onset":1581275354082,"block":1,"match_type":"match","image_category":"cat","sound_category":"cat","audio_type":"label","phase":"test","trial_type":"image-keyboard-response","trial_index":134,"time_elapsed":3958696,"internal_node_id":"0.0-13.0-2.20","match_key":"l","participant_id":"COGS219_2020_03","correct":true},{"rt":null,"stimulus":"Sounds/correct.wav","key_press":null,"block":1,"trial_type":"audio-keyboard-response","trial_index":135,"time_elapsed":3960701,"internal_node_id":"0.0-13.0-3.20","match_key":"l","participant_id":"COGS219_2020_03"},{"rt":null,"stimulus":"Sounds/train_sound.wav","key_press":null,"block":1,"trial_type":"audio-keyboard-response","trial_index":136,"time_elapsed":3962008,"internal_node_id":"0.0-13.0-0.21","match_key":"l","participant_id":"COGS219_2020_03"},{"rt":null,"stimulus":"<p style=\"font-size: 48px;\">+</p>","key_press":null,"block":1,"trial_type":"html-keyboard-response","trial_index":137,"time_elapsed":3963012,"internal_node_id":"0.0-13.0-1.21","match_key":"l","participant_id":"COGS219_2020_03"},{"rt":531.3800000003539,"stimulus":"Images/whistle_2.png","key_press":65,"stim_onset":1581275358832,"block":1,"match_type":"non-match","image_category":"whistle","sound_category":"train","audio_type":"sound","phase":"test","trial_type":"image-keyboard-response","trial_index":138,"time_elapsed":3963544,"internal_node_id":"0.0-13.0-2.21","match_key":"l","participant_id":"COGS219_2020_03","correct":true},{"rt":null,"stimulus":"Sounds/correct.wav","key_press":null,"block":1,"trial_type":"audio-keyboard-response","trial_index":139,"time_elapsed":3965553,"internal_node_id":"0.0-13.0-3.21","match_key":"l","participant_id":"COGS219_2020_03"},{"rt":null,"stimulus":"Sounds/cat_label.wav","key_press":null,"block":1,"trial_type":"audio-keyboard-response","trial_index":140,"time_elapsed":3966368,"internal_node_id":"0.0-13.0-0.22","match_key":"l","participant_id":"COGS219_2020_03"},{"rt":null,"stimulus":"<p style=\"font-size: 48px;\">+</p>","key_press":null,"block":1,"trial_type":"html-keyboard-response","trial_index":141,"time_elapsed":3967362,"internal_node_id":"0.0-13.0-1.22","match_key":"l","participant_id":"COGS219_2020_03"},{"rt":437.54999997327104,"stimulus":"Images/cat_1.png","key_press":76,"stim_onset":1581275363182,"block":1,"match_type":"match","image_category":"cat","sound_category":"cat","audio_type":"label","phase":"test","trial_type":"image-keyboard-response","trial_index":142,"time_elapsed":3967800,"internal_node_id":"0.0-13.0-2.22","match_key":"l","participant_id":"COGS219_2020_03","correct":true},{"rt":null,"stimulus":"Sounds/correct.wav","key_press":null,"block":1,"trial_type":"audio-keyboard-response","trial_index":143,"time_elapsed":3969816,"internal_node_id":"0.0-13.0-3.22","match_key":"l","participant_id":"COGS219_2020_03"},{"rt":null,"stimulus":"Sounds/motorcycle_label.wav","key_press":null,"block":1,"trial_type":"audio-keyboard-response","trial_index":144,"time_elapsed":3970948,"internal_node_id":"0.0-13.0-0.23","match_key":"l","participant_id":"COGS219_2020_03"},{"rt":null,"stimulus":"<p style=\"font-size: 48px;\">+</p>","key_press":null,"block":1,"trial_type":"html-keyboard-response","trial_index":145,"time_elapsed":3971945,"internal_node_id":"0.0-13.0-1.23","match_key":"l","participant_id":"COGS219_2020_03"},{"rt":477.8450000449084,"stimulus":"Images/whistle_orig.png","key_press":65,"stim_onset":1581275367765,"block":1,"match_type":"non-match","image_category":"whistle","sound_category":"motorcycle","audio_type":"label","phase":"test","trial_type":"image-keyboard-response","trial_index":146,"time_elapsed":3972424,"internal_node_id":"0.0-13.0-2.23","match_key":"l","participant_id":"COGS219_2020_03","correct":true},{"rt":null,"stimulus":"Sounds/correct.wav","key_press":null,"block":1,"trial_type":"audio-keyboard-response","trial_index":147,"time_elapsed":3974433,"internal_node_id":"0.0-13.0-3.23","match_key":"l","participant_id":"COGS219_2020_03"},{"rt":null,"stimulus":"Sounds/whistle_sound.wav","key_press":null,"block":1,"trial_type":"audio-keyboard-response","trial_index":148,"time_elapsed":3975128,"internal_node_id":"0.0-13.0-0.24","match_key":"l","participant_id":"COGS219_2020_03"},{"rt":null,"stimulus":"<p style=\"font-size: 48px;\">+</p>","key_press":null,"block":1,"trial_type":"html-keyboard-response","trial_index":149,"time_elapsed":3976128,"internal_node_id":"0.0-13.0-1.24","match_key":"l","participant_id":"COGS219_2020_03"},{"rt":470.424999948591,"stimulus":"Images/train_2.png","key_press":65,"stim_onset":1581275371949,"block":1,"match_type":"non-match","image_category":"train","sound_category":"whistle","audio_type":"sound","phase":"test","trial_type":"image-keyboard-response","trial_index":150,"time_elapsed":3976600,"internal_node_id":"0.0-13.0-2.24","match_key":"l","participant_id":"COGS219_2020_03","correct":true},{"rt":null,"stimulus":"Sounds/correct.wav","key_press":null,"block":1,"trial_type":"audio-keyboard-response","trial_index":151,"time_elapsed":3978616,"internal_node_id":"0.0-13.0-3.24","match_key":"l","participant_id":"COGS219_2020_03"},{"rt":null,"stimulus":"Sounds/whistle_sound.wav","key_press":null,"block":1,"trial_type":"audio-keyboard-response","trial_index":152,"time_elapsed":3979288,"internal_node_id":"0.0-13.0-0.25","match_key":"l","participant_id":"COGS219_2020_03"},{"rt":null,"stimulus":"<p style=\"font-size: 48px;\">+</p>","key_press":null,"block":1,"trial_type":"html-keyboard-response","trial_index":153,"time_elapsed":3980279,"internal_node_id":"0.0-13.0-1.25","match_key":"l","participant_id":"COGS219_2020_03"},{"rt":560.4999999632128,"stimulus":"Images/gun_cartoon.png","key_press":65,"stim_onset":1581275376099,"block":1,"match_type":"non-match","image_category":"gun","sound_category":"whistle","audio_type":"sound","phase":"test","trial_type":"image-keyboard-response","trial_index":154,"time_elapsed":3980840,"internal_node_id":"0.0-13.0-2.25","match_key":"l","participant_id":"COGS219_2020_03","correct":true},{"rt":null,"stimulus":"Sounds/correct.wav","key_press":null,"block":1,"trial_type":"audio-keyboard-response","trial_index":155,"time_elapsed":3982849,"internal_node_id":"0.0-13.0-3.25","match_key":"l","participant_id":"COGS219_2020_03"},{"rt":null,"stimulus":"Sounds/frog_sound.wav","key_press":null,"block":1,"trial_type":"audio-keyboard-response","trial_index":156,"time_elapsed":3983768,"internal_node_id":"0.0-13.0-0.26","match_key":"l","participant_id":"COGS219_2020_03"},{"rt":null,"stimulus":"<p style=\"font-size: 48px;\">+</p>","key_press":null,"block":1,"trial_type":"html-keyboard-response","trial_index":157,"time_elapsed":3984762,"internal_node_id":"0.0-13.0-1.26","match_key":"l","participant_id":"COGS219_2020_03"},{"rt":493.0649999878369,"stimulus":"Images/motorcycle_cartoon.png","key_press":65,"stim_onset":1581275380582,"block":1,"match_type":"non-match","image_category":"motorcycle","sound_category":"frog","audio_type":"sound","phase":"test","trial_type":"image-keyboard-response","trial_index":158,"time_elapsed":3985256,"internal_node_id":"0.0-13.0-2.26","match_key":"l","participant_id":"COGS219_2020_03","correct":true},{"rt":null,"stimulus":"Sounds/correct.wav","key_press":null,"block":1,"trial_type":"audio-keyboard-response","trial_index":159,"time_elapsed":3987267,"internal_node_id":"0.0-13.0-3.26","match_key":"l","participant_id":"COGS219_2020_03"},{"rt":null,"stimulus":"Sounds/frog_sound.wav","key_press":null,"block":1,"trial_type":"audio-keyboard-response","trial_index":160,"time_elapsed":3988150,"internal_node_id":"0.0-13.0-0.27","match_key":"l","participant_id":"COGS219_2020_03"},{"rt":null,"stimulus":"<p style=\"font-size: 48px;\">+</p>","key_press":null,"block":1,"trial_type":"html-keyboard-response","trial_index":161,"time_elapsed":3989147,"internal_node_id":"0.0-13.0-1.27","match_key":"l","participant_id":"COGS219_2020_03"},{"rt":558.214999968186,"stimulus":"Images/dog_3.png","key_press":65,"stim_onset":1581275384967,"block":1,"match_type":"non-match","image_category":"dog","sound_category":"frog","audio_type":"sound","phase":"test","trial_type":"image-keyboard-response","trial_index":162,"time_elapsed":3989706,"internal_node_id":"0.0-13.0-2.27","match_key":"l","participant_id":"COGS219_2020_03","correct":true},{"rt":null,"stimulus":"Sounds/correct.wav","key_press":null,"block":1,"trial_type":"audio-keyboard-response","trial_index":163,"time_elapsed":3991718,"internal_node_id":"0.0-13.0-3.27","match_key":"l","participant_id":"COGS219_2020_03"},{"rt":null,"stimulus":"Sounds/dog_label.wav","key_press":null,"block":1,"trial_type":"audio-keyboard-response","trial_index":164,"time_elapsed":3992370,"internal_node_id":"0.0-13.0-0.28","match_key":"l","participant_id":"COGS219_2020_03"},{"rt":null,"stimulus":"<p style=\"font-size: 48px;\">+</p>","key_press":null,"block":1,"trial_type":"html-keyboard-response","trial_index":165,"time_elapsed":3993364,"internal_node_id":"0.0-13.0-1.28","match_key":"l","participant_id":"COGS219_2020_03"},{"rt":597.0199999865144,"stimulus":"Images/frog_1.png","key_press":65,"stim_onset":1581275389184,"block":1,"match_type":"non-match","image_category":"frog","sound_category":"dog","audio_type":"label","phase":"test","trial_type":"image-keyboard-response","trial_index":166,"time_elapsed":3993962,"internal_node_id":"0.0-13.0-2.28","match_key":"l","participant_id":"COGS219_2020_03","correct":true},{"rt":null,"stimulus":"Sounds/correct.wav","key_press":null,"block":1,"trial_type":"audio-keyboard-response","trial_index":167,"time_elapsed":3995969,"internal_node_id":"0.0-13.0-3.28","match_key":"l","participant_id":"COGS219_2020_03"},{"rt":null,"stimulus":"Sounds/car_label.wav","key_press":null,"block":1,"trial_type":"audio-keyboard-response","trial_index":168,"time_elapsed":3997050,"internal_node_id":"0.0-13.0-0.29","match_key":"l","participant_id":"COGS219_2020_03"},{"rt":null,"stimulus":"<p style=\"font-size: 48px;\">+</p>","key_press":null,"block":1,"trial_type":"html-keyboard-response","trial_index":169,"time_elapsed":3998047,"internal_node_id":"0.0-13.0-1.29","match_key":"l","participant_id":"COGS219_2020_03"},{"rt":537.609999999404,"stimulus":"Images/train_cartoon.png","key_press":65,"stim_onset":1581275393867,"block":1,"match_type":"non-match","image_category":"train","sound_category":"car","audio_type":"label","phase":"test","trial_type":"image-keyboard-response","trial_index":170,"time_elapsed":3998586,"internal_node_id":"0.0-13.0-2.29","match_key":"l","participant_id":"COGS219_2020_03","correct":true},{"rt":null,"stimulus":"Sounds/correct.wav","key_press":null,"block":1,"trial_type":"audio-keyboard-response","trial_index":171,"time_elapsed":4000601,"internal_node_id":"0.0-13.0-3.29","match_key":"l","participant_id":"COGS219_2020_03"},{"rt":null,"stimulus":"Sounds/whistle_label.wav","key_press":null,"block":1,"trial_type":"audio-keyboard-response","trial_index":172,"time_elapsed":4001290,"internal_node_id":"0.0-13.0-0.30","match_key":"l","participant_id":"COGS219_2020_03"},{"rt":null,"stimulus":"<p style=\"font-size: 48px;\">+</p>","key_press":null,"block":1,"trial_type":"html-keyboard-response","trial_index":173,"time_elapsed":4002281,"internal_node_id":"0.0-13.0-1.30","match_key":"l","participant_id":"COGS219_2020_03"},{"rt":448.06000002427027,"stimulus":"Images/whistle_orig.png","key_press":76,"stim_onset":1581275398101,"block":1,"match_type":"match","image_category":"whistle","sound_category":"whistle","audio_type":"label","phase":"test","trial_type":"image-keyboard-response","trial_index":174,"time_elapsed":4002730,"internal_node_id":"0.0-13.0-2.30","match_key":"l","participant_id":"COGS219_2020_03","correct":true},{"rt":null,"stimulus":"Sounds/correct.wav","key_press":null,"block":1,"trial_type":"audio-keyboard-response","trial_index":175,"time_elapsed":4004738,"internal_node_id":"0.0-13.0-3.30","match_key":"l","participant_id":"COGS219_2020_03"},{"rt":null,"stimulus":"Sounds/gun_label.wav","key_press":null,"block":1,"trial_type":"audio-keyboard-response","trial_index":176,"time_elapsed":4005310,"internal_node_id":"0.0-13.0-0.31","match_key":"l","participant_id":"COGS219_2020_03"},{"rt":null,"stimulus":"<p style=\"font-size: 48px;\">+</p>","key_press":null,"block":1,"trial_type":"html-keyboard-response","trial_index":177,"time_elapsed":4006314,"internal_node_id":"0.0-13.0-1.31","match_key":"l","participant_id":"COGS219_2020_03"},{"rt":478.8549999939278,"stimulus":"Images/gun_cartoon.png","key_press":76,"stim_onset":1581275402134,"block":1,"match_type":"match","image_category":"gun","sound_category":"gun","audio_type":"label","phase":"test","trial_type":"image-keyboard-response","trial_index":178,"time_elapsed":4006794,"internal_node_id":"0.0-13.0-2.31","match_key":"l","participant_id":"COGS219_2020_03","correct":true},{"rt":null,"stimulus":"Sounds/correct.wav","key_press":null,"block":1,"trial_type":"audio-keyboard-response","trial_index":179,"time_elapsed":4008803,"internal_node_id":"0.0-13.0-3.31","match_key":"l","participant_id":"COGS219_2020_03"},{"rt":null,"stimulus":"Sounds/car_sound.wav","key_press":null,"block":1,"trial_type":"audio-keyboard-response","trial_index":180,"time_elapsed":4009870,"internal_node_id":"0.0-13.0-0.32","match_key":"l","participant_id":"COGS219_2020_03"},{"rt":null,"stimulus":"<p style=\"font-size: 48px;\">+</p>","key_press":null,"block":1,"trial_type":"html-keyboard-response","trial_index":181,"time_elapsed":4010864,"internal_node_id":"0.0-13.0-1.32","match_key":"l","participant_id":"COGS219_2020_03"},{"rt":536.7500000284053,"stimulus":"Images/car_2.png","key_press":76,"stim_onset":1581275406684,"block":1,"match_type":"match","image_category":"car","sound_category":"car","audio_type":"sound","phase":"test","trial_type":"image-keyboard-response","trial_index":182,"time_elapsed":4011402,"internal_node_id":"0.0-13.0-2.32","match_key":"l","participant_id":"COGS219_2020_03","correct":true},{"rt":null,"stimulus":"Sounds/correct.wav","key_press":null,"block":1,"trial_type":"audio-keyboard-response","trial_index":183,"time_elapsed":4013404,"internal_node_id":"0.0-13.0-3.32","match_key":"l","participant_id":"COGS219_2020_03"},{"rt":null,"stimulus":"Sounds/car_label.wav","key_press":null,"block":1,"trial_type":"audio-keyboard-response","trial_index":184,"time_elapsed":4014450,"internal_node_id":"0.0-13.0-0.33","match_key":"l","participant_id":"COGS219_2020_03"},{"rt":null,"stimulus":"<p style=\"font-size: 48px;\">+</p>","key_press":null,"block":1,"trial_type":"html-keyboard-response","trial_index":185,"time_elapsed":4015448,"internal_node_id":"0.0-13.0-1.33","match_key":"l","participant_id":"COGS219_2020_03"},{"rt":513.5299999965355,"stimulus":"Images/whistle_3.png","key_press":65,"stim_onset":1581275411268,"block":1,"match_type":"non-match","image_category":"whistle","sound_category":"car","audio_type":"label","phase":"test","trial_type":"image-keyboard-response","trial_index":186,"time_elapsed":4015962,"internal_node_id":"0.0-13.0-2.33","match_key":"l","participant_id":"COGS219_2020_03","correct":true},{"rt":null,"stimulus":"Sounds/correct.wav","key_press":null,"block":1,"trial_type":"audio-keyboard-response","trial_index":187,"time_elapsed":4017971,"internal_node_id":"0.0-13.0-3.33","match_key":"l","participant_id":"COGS219_2020_03"},{"rt":null,"stimulus":"Sounds/whistle_label.wav","key_press":null,"block":1,"trial_type":"audio-keyboard-response","trial_index":188,"time_elapsed":4018650,"internal_node_id":"0.0-13.0-0.34","match_key":"l","participant_id":"COGS219_2020_03"},{"rt":null,"stimulus":"<p style=\"font-size: 48px;\">+</p>","key_press":null,"block":1,"trial_type":"html-keyboard-response","trial_index":189,"time_elapsed":4019647,"internal_node_id":"0.0-13.0-1.34","match_key":"l","participant_id":"COGS219_2020_03"},{"rt":489.6149999694899,"stimulus":"Images/cat_orig.png","key_press":65,"stim_onset":1581275415468,"block":1,"match_type":"non-match","image_category":"cat","sound_category":"whistle","audio_type":"label","phase":"test","trial_type":"image-keyboard-response","trial_index":190,"time_elapsed":4020138,"internal_node_id":"0.0-13.0-2.34","match_key":"l","participant_id":"COGS219_2020_03","correct":true},{"rt":null,"stimulus":"Sounds/correct.wav","key_press":null,"block":1,"trial_type":"audio-keyboard-response","trial_index":191,"time_elapsed":4022152,"internal_node_id":"0.0-13.0-3.34","match_key":"l","participant_id":"COGS219_2020_03"},{"rt":null,"stimulus":"Sounds/motorcycle_label.wav","key_press":null,"block":1,"trial_type":"audio-keyboard-response","trial_index":192,"time_elapsed":4023290,"internal_node_id":"0.0-13.0-0.35","match_key":"l","participant_id":"COGS219_2020_03"},{"rt":null,"stimulus":"<p style=\"font-size: 48px;\">+</p>","key_press":null,"block":1,"trial_type":"html-keyboard-response","trial_index":193,"time_elapsed":4024281,"internal_node_id":"0.0-13.0-1.35","match_key":"l","participant_id":"COGS219_2020_03"},{"rt":640.0350000476465,"stimulus":"Images/motorcycle_cartoon.png","key_press":76,"stim_onset":1581275420101,"block":1,"match_type":"match","image_category":"motorcycle","sound_category":"motorcycle","audio_type":"label","phase":"test","trial_type":"image-keyboard-response","trial_index":194,"time_elapsed":4024922,"internal_node_id":"0.0-13.0-2.35","match_key":"l","participant_id":"COGS219_2020_03","correct":true},{"rt":null,"stimulus":"Sounds/correct.wav","key_press":null,"block":1,"trial_type":"audio-keyboard-response","trial_index":195,"time_elapsed":4026935,"internal_node_id":"0.0-13.0-3.35","match_key":"l","participant_id":"COGS219_2020_03"},{"rt":null,"stimulus":"Sounds/frog_label.wav","key_press":null,"block":1,"trial_type":"audio-keyboard-response","trial_index":196,"time_elapsed":4027830,"internal_node_id":"0.0-13.0-0.36","match_key":"l","participant_id":"COGS219_2020_03"},{"rt":null,"stimulus":"<p style=\"font-size: 48px;\">+</p>","key_press":null,"block":1,"trial_type":"html-keyboard-response","trial_index":197,"time_elapsed":4028831,"internal_node_id":"0.0-13.0-1.36","match_key":"l","participant_id":"COGS219_2020_03"},{"rt":585.8750000479631,"stimulus":"Images/frog_3.png","key_press":76,"stim_onset":1581275424651,"block":1,"match_type":"match","image_category":"frog","sound_category":"frog","audio_type":"label","phase":"test","trial_type":"image-keyboard-response","trial_index":198,"time_elapsed":4029418,"internal_node_id":"0.0-13.0-2.36","match_key":"l","participant_id":"COGS219_2020_03","correct":true},{"rt":null,"stimulus":"Sounds/correct.wav","key_press":null,"block":1,"trial_type":"audio-keyboard-response","trial_index":199,"time_elapsed":4031433,"internal_node_id":"0.0-13.0-3.36","match_key":"l","participant_id":"COGS219_2020_03"},{"rt":null,"stimulus":"Sounds/dog_sound.wav","key_press":null,"block":1,"trial_type":"audio-keyboard-response","trial_index":200,"time_elapsed":4032150,"internal_node_id":"0.0-13.0-0.37","match_key":"l","participant_id":"COGS219_2020_03"},{"rt":null,"stimulus":"<p style=\"font-size: 48px;\">+</p>","key_press":null,"block":1,"trial_type":"html-keyboard-response","trial_index":201,"time_elapsed":4033148,"internal_node_id":"0.0-13.0-1.37","match_key":"l","participant_id":"COGS219_2020_03"},{"rt":477.42499999003485,"stimulus":"Images/dog_orig.png","key_press":76,"stim_onset":1581275428968,"block":1,"match_type":"match","image_category":"dog","sound_category":"dog","audio_type":"sound","phase":"test","trial_type":"image-keyboard-response","trial_index":202,"time_elapsed":4033626,"internal_node_id":"0.0-13.0-2.37","match_key":"l","participant_id":"COGS219_2020_03","correct":true},{"rt":null,"stimulus":"Sounds/correct.wav","key_press":null,"block":1,"trial_type":"audio-keyboard-response","trial_index":203,"time_elapsed":4035635,"internal_node_id":"0.0-13.0-3.37","match_key":"l","participant_id":"COGS219_2020_03"},{"rt":null,"stimulus":"Sounds/cat_label.wav","key_press":null,"block":1,"trial_type":"audio-keyboard-response","trial_index":204,"time_elapsed":4036470,"internal_node_id":"0.0-13.0-0.38","match_key":"l","participant_id":"COGS219_2020_03"},{"rt":null,"stimulus":"<p style=\"font-size: 48px;\">+</p>","key_press":null,"block":1,"trial_type":"html-keyboard-response","trial_index":205,"time_elapsed":4037464,"internal_node_id":"0.0-13.0-1.38","match_key":"l","participant_id":"COGS219_2020_03"},{"rt":448.2399999978952,"stimulus":"Images/frog_3.png","key_press":65,"stim_onset":1581275433284,"block":1,"match_type":"non-match","image_category":"frog","sound_category":"cat","audio_type":"label","phase":"test","trial_type":"image-keyboard-response","trial_index":206,"time_elapsed":4037914,"internal_node_id":"0.0-13.0-2.38","match_key":"l","participant_id":"COGS219_2020_03","correct":true},{"rt":null,"stimulus":"Sounds/correct.wav","key_press":null,"block":1,"trial_type":"audio-keyboard-response","trial_index":207,"time_elapsed":4039920,"internal_node_id":"0.0-13.0-3.38","match_key":"l","participant_id":"COGS219_2020_03"},{"rt":null,"stimulus":"Sounds/rooster_label.wav","key_press":null,"block":1,"trial_type":"audio-keyboard-response","trial_index":208,"time_elapsed":4040610,"internal_node_id":"0.0-13.0-0.39","match_key":"l","participant_id":"COGS219_2020_03"},{"rt":null,"stimulus":"<p style=\"font-size: 48px;\">+</p>","key_press":null,"block":1,"trial_type":"html-keyboard-response","trial_index":209,"time_elapsed":4041615,"internal_node_id":"0.0-13.0-1.39","match_key":"l","participant_id":"COGS219_2020_03"},{"rt":442.30499997502193,"stimulus":"Images/rooster_2.png","key_press":76,"stim_onset":1581275437435,"block":1,"match_type":"match","image_category":"rooster","sound_category":"rooster","audio_type":"label","phase":"test","trial_type":"image-keyboard-response","trial_index":210,"time_elapsed":4042058,"internal_node_id":"0.0-13.0-2.39","match_key":"l","participant_id":"COGS219_2020_03","correct":true},{"rt":null,"stimulus":"Sounds/correct.wav","key_press":null,"block":1,"trial_type":"audio-keyboard-response","trial_index":211,"time_elapsed":4044067,"internal_node_id":"0.0-13.0-3.39","match_key":"l","participant_id":"COGS219_2020_03"},{"rt":null,"stimulus":"Sounds/frog_label.wav","key_press":null,"block":1,"trial_type":"audio-keyboard-response","trial_index":212,"time_elapsed":4044930,"internal_node_id":"0.0-13.0-0.40","match_key":"l","participant_id":"COGS219_2020_03"},{"rt":null,"stimulus":"<p style=\"font-size: 48px;\">+</p>","key_press":null,"block":1,"trial_type":"html-keyboard-response","trial_index":213,"time_elapsed":4045948,"internal_node_id":"0.0-13.0-1.40","match_key":"l","participant_id":"COGS219_2020_03"},{"rt":413.1949999718927,"stimulus":"Images/car_cartoon.png","key_press":65,"stim_onset":1581275441768,"block":1,"match_type":"non-match","image_category":"car","sound_category":"frog","audio_type":"label","phase":"test","trial_type":"image-keyboard-response","trial_index":214,"time_elapsed":4046362,"internal_node_id":"0.0-13.0-2.40","match_key":"l","participant_id":"COGS219_2020_03","correct":true},{"rt":null,"stimulus":"Sounds/correct.wav","key_press":null,"block":1,"trial_type":"audio-keyboard-response","trial_index":215,"time_elapsed":4048373,"internal_node_id":"0.0-13.0-3.40","match_key":"l","participant_id":"COGS219_2020_03"},{"rt":null,"stimulus":"Sounds/dog_sound.wav","key_press":null,"block":1,"trial_type":"audio-keyboard-response","trial_index":216,"time_elapsed":4049072,"internal_node_id":"0.0-13.0-0.41","match_key":"l","participant_id":"COGS219_2020_03"},{"rt":null,"stimulus":"<p style=\"font-size: 48px;\">+</p>","key_press":null,"block":1,"trial_type":"html-keyboard-response","trial_index":217,"time_elapsed":4050066,"internal_node_id":"0.0-13.0-1.41","match_key":"l","participant_id":"COGS219_2020_03"},{"rt":440.2750000008382,"stimulus":"Images/cow_orig.png","key_press":65,"stim_onset":1581275445887,"block":1,"match_type":"non-match","image_category":"cow","sound_category":"dog","audio_type":"sound","phase":"test","trial_type":"image-keyboard-response","trial_index":218,"time_elapsed":4050508,"internal_node_id":"0.0-13.0-2.41","match_key":"l","participant_id":"COGS219_2020_03","correct":true},{"rt":null,"stimulus":"Sounds/correct.wav","key_press":null,"block":1,"trial_type":"audio-keyboard-response","trial_index":219,"time_elapsed":4052518,"internal_node_id":"0.0-13.0-3.41","match_key":"l","participant_id":"COGS219_2020_03"},{"rt":null,"stimulus":"Sounds/cow_sound.wav","key_press":null,"block":1,"trial_type":"audio-keyboard-response","trial_index":220,"time_elapsed":4053532,"internal_node_id":"0.0-13.0-0.42","match_key":"l","participant_id":"COGS219_2020_03"},{"rt":null,"stimulus":"<p style=\"font-size: 48px;\">+</p>","key_press":null,"block":1,"trial_type":"html-keyboard-response","trial_index":221,"time_elapsed":4054550,"internal_node_id":"0.0-13.0-1.42","match_key":"l","participant_id":"COGS219_2020_03"},{"rt":500.9800000116229,"stimulus":"Images/cow_2.png","key_press":76,"stim_onset":1581275450370,"block":1,"match_type":"match","image_category":"cow","sound_category":"cow","audio_type":"sound","phase":"test","trial_type":"image-keyboard-response","trial_index":222,"time_elapsed":4055052,"internal_node_id":"0.0-13.0-2.42","match_key":"l","participant_id":"COGS219_2020_03","correct":true},{"rt":null,"stimulus":"Sounds/correct.wav","key_press":null,"block":1,"trial_type":"audio-keyboard-response","trial_index":223,"time_elapsed":4057055,"internal_node_id":"0.0-13.0-3.42","match_key":"l","participant_id":"COGS219_2020_03"},{"rt":null,"stimulus":"Sounds/gun_sound.wav","key_press":null,"block":1,"trial_type":"audio-keyboard-response","trial_index":224,"time_elapsed":4057632,"internal_node_id":"0.0-13.0-0.43","match_key":"l","participant_id":"COGS219_2020_03"},{"rt":null,"stimulus":"<p style=\"font-size: 48px;\">+</p>","key_press":null,"block":1,"trial_type":"html-keyboard-response","trial_index":225,"time_elapsed":4058650,"internal_node_id":"0.0-13.0-1.43","match_key":"l","participant_id":"COGS219_2020_03"},{"rt":496.964999998454,"stimulus":"Images/whistle_1.png","key_press":65,"stim_onset":1581275454470,"block":1,"match_type":"non-match","image_category":"whistle","sound_category":"gun","audio_type":"sound","phase":"test","trial_type":"image-keyboard-response","trial_index":226,"time_elapsed":4059148,"internal_node_id":"0.0-13.0-2.43","match_key":"l","participant_id":"COGS219_2020_03","correct":true},{"rt":null,"stimulus":"Sounds/correct.wav","key_press":null,"block":1,"trial_type":"audio-keyboard-response","trial_index":227,"time_elapsed":4061155,"internal_node_id":"0.0-13.0-3.43","match_key":"l","participant_id":"COGS219_2020_03"},{"rt":null,"stimulus":"Sounds/gun_sound.wav","key_press":null,"block":1,"trial_type":"audio-keyboard-response","trial_index":228,"time_elapsed":4061712,"internal_node_id":"0.0-13.0-0.44","match_key":"l","participant_id":"COGS219_2020_03"},{"rt":null,"stimulus":"<p style=\"font-size: 48px;\">+</p>","key_press":null,"block":1,"trial_type":"html-keyboard-response","trial_index":229,"time_elapsed":4062717,"internal_node_id":"0.0-13.0-1.44","match_key":"l","participant_id":"COGS219_2020_03"},{"rt":413.98000001208857,"stimulus":"Images/gun_3.png","key_press":76,"stim_onset":1581275458537,"block":1,"match_type":"match","image_category":"gun","sound_category":"gun","audio_type":"sound","phase":"test","trial_type":"image-keyboard-response","trial_index":230,"time_elapsed":4063132,"internal_node_id":"0.0-13.0-2.44","match_key":"l","participant_id":"COGS219_2020_03","correct":true},{"rt":null,"stimulus":"Sounds/correct.wav","key_press":null,"block":1,"trial_type":"audio-keyboard-response","trial_index":231,"time_elapsed":4065139,"internal_node_id":"0.0-13.0-3.44","match_key":"l","participant_id":"COGS219_2020_03"},{"rt":null,"stimulus":"Sounds/dog_label.wav","key_press":null,"block":1,"trial_type":"audio-keyboard-response","trial_index":232,"time_elapsed":4065792,"internal_node_id":"0.0-13.0-0.45","match_key":"l","participant_id":"COGS219_2020_03"},{"rt":null,"stimulus":"<p style=\"font-size: 48px;\">+</p>","key_press":null,"block":1,"trial_type":"html-keyboard-response","trial_index":233,"time_elapsed":4066783,"internal_node_id":"0.0-13.0-1.45","match_key":"l","participant_id":"COGS219_2020_03"},{"rt":539.4949999754317,"stimulus":"Images/cat_2.png","key_press":65,"stim_onset":1581275462603,"block":1,"match_type":"non-match","image_category":"cat","sound_category":"dog","audio_type":"label","phase":"test","trial_type":"image-keyboard-response","trial_index":234,"time_elapsed":4067324,"internal_node_id":"0.0-13.0-2.45","match_key":"l","participant_id":"COGS219_2020_03","correct":true},{"rt":null,"stimulus":"Sounds/correct.wav","key_press":null,"block":1,"trial_type":"audio-keyboard-response","trial_index":235,"time_elapsed":4069337,"internal_node_id":"0.0-13.0-3.45","match_key":"l","participant_id":"COGS219_2020_03"},{"rt":null,"stimulus":"Sounds/rooster_label.wav","key_press":null,"block":1,"trial_type":"audio-keyboard-response","trial_index":236,"time_elapsed":4070032,"internal_node_id":"0.0-13.0-0.46","match_key":"l","participant_id":"COGS219_2020_03"},{"rt":null,"stimulus":"<p style=\"font-size: 48px;\">+</p>","key_press":null,"block":1,"trial_type":"html-keyboard-response","trial_index":237,"time_elapsed":4071050,"internal_node_id":"0.0-13.0-1.46","match_key":"l","participant_id":"COGS219_2020_03"},{"rt":417.03000001143664,"stimulus":"Images/frog_orig.png","key_press":65,"stim_onset":1581275466870,"block":1,"match_type":"non-match","image_category":"frog","sound_category":"rooster","audio_type":"label","phase":"test","trial_type":"image-keyboard-response","trial_index":238,"time_elapsed":4071468,"internal_node_id":"0.0-13.0-2.46","match_key":"l","participant_id":"COGS219_2020_03","correct":true},{"rt":null,"stimulus":"Sounds/correct.wav","key_press":null,"block":1,"trial_type":"audio-keyboard-response","trial_index":239,"time_elapsed":4073475,"internal_node_id":"0.0-13.0-3.46","match_key":"l","participant_id":"COGS219_2020_03"},{"rt":null,"stimulus":"Sounds/gun_sound.wav","key_press":null,"block":1,"trial_type":"audio-keyboard-response","trial_index":240,"time_elapsed":4074032,"internal_node_id":"0.0-13.0-0.47","match_key":"l","participant_id":"COGS219_2020_03"},{"rt":null,"stimulus":"<p style=\"font-size: 48px;\">+</p>","key_press":null,"block":1,"trial_type":"html-keyboard-response","trial_index":241,"time_elapsed":4075050,"internal_node_id":"0.0-13.0-1.47","match_key":"l","participant_id":"COGS219_2020_03"},{"rt":400.72500001406297,"stimulus":"Images/car_1.png","key_press":65,"stim_onset":1581275470870,"block":1,"match_type":"non-match","image_category":"car","sound_category":"gun","audio_type":"sound","phase":"test","trial_type":"image-keyboard-response","trial_index":242,"time_elapsed":4075452,"internal_node_id":"0.0-13.0-2.47","match_key":"l","participant_id":"COGS219_2020_03","correct":true},{"rt":null,"stimulus":"Sounds/correct.wav","key_press":null,"block":1,"trial_type":"audio-keyboard-response","trial_index":243,"time_elapsed":4077457,"internal_node_id":"0.0-13.0-3.47","match_key":"l","participant_id":"COGS219_2020_03"},{"rt":null,"stimulus":"Sounds/gun_sound.wav","key_press":null,"block":1,"trial_type":"audio-keyboard-response","trial_index":244,"time_elapsed":4078012,"internal_node_id":"0.0-13.0-0.48","match_key":"l","participant_id":"COGS219_2020_03"},{"rt":null,"stimulus":"<p style=\"font-size: 48px;\">+</p>","key_press":null,"block":1,"trial_type":"html-keyboard-response","trial_index":245,"time_elapsed":4079017,"internal_node_id":"0.0-13.0-1.48","match_key":"l","participant_id":"COGS219_2020_03"},{"rt":497.7500000386499,"stimulus":"Images/cow_3.png","key_press":65,"stim_onset":1581275474837,"block":1,"match_type":"non-match","image_category":"cow","sound_category":"gun","audio_type":"sound","phase":"test","trial_type":"image-keyboard-response","trial_index":246,"time_elapsed":4079516,"internal_node_id":"0.0-13.0-2.48","match_key":"l","participant_id":"COGS219_2020_03","correct":true},{"rt":null,"stimulus":"Sounds/correct.wav","key_press":null,"block":1,"trial_type":"audio-keyboard-response","trial_index":247,"time_elapsed":4081523,"internal_node_id":"0.0-13.0-3.48","match_key":"l","participant_id":"COGS219_2020_03"},{"rt":null,"stimulus":"Sounds/whistle_sound.wav","key_press":null,"block":1,"trial_type":"audio-keyboard-response","trial_index":248,"time_elapsed":4082232,"internal_node_id":"0.0-13.0-0.49","match_key":"l","participant_id":"COGS219_2020_03"},{"rt":null,"stimulus":"<p style=\"font-size: 48px;\">+</p>","key_press":null,"block":1,"trial_type":"html-keyboard-response","trial_index":249,"time_elapsed":4083250,"internal_node_id":"0.0-13.0-1.49","match_key":"l","participant_id":"COGS219_2020_03"},{"rt":456.92999998573214,"stimulus":"Images/cow_cartoon.png","key_press":65,"stim_onset":1581275479070,"block":1,"match_type":"non-match","image_category":"cow","sound_category":"whistle","audio_type":"sound","phase":"test","trial_type":"image-keyboard-response","trial_index":250,"time_elapsed":4083708,"internal_node_id":"0.0-13.0-2.49","match_key":"l","participant_id":"COGS219_2020_03","correct":true},{"rt":null,"stimulus":"Sounds/correct.wav","key_press":null,"block":1,"trial_type":"audio-keyboard-response","trial_index":251,"time_elapsed":4085721,"internal_node_id":"0.0-13.0-3.49","match_key":"l","participant_id":"COGS219_2020_03"},{"rt":null,"stimulus":"Sounds/dog_sound.wav","key_press":null,"block":1,"trial_type":"audio-keyboard-response","trial_index":252,"time_elapsed":4086432,"internal_node_id":"0.0-13.0-0.50","match_key":"l","participant_id":"COGS219_2020_03"},{"rt":null,"stimulus":"<p style=\"font-size: 48px;\">+</p>","key_press":null,"block":1,"trial_type":"html-keyboard-response","trial_index":253,"time_elapsed":4087450,"internal_node_id":"0.0-13.0-1.50","match_key":"l","participant_id":"COGS219_2020_03"},{"rt":464.76000000257045,"stimulus":"Images/dog_cartoon.png","key_press":76,"stim_onset":1581275483270,"block":1,"match_type":"match","image_category":"dog","sound_category":"dog","audio_type":"sound","phase":"test","trial_type":"image-keyboard-response","trial_index":254,"time_elapsed":4087916,"internal_node_id":"0.0-13.0-2.50","match_key":"l","participant_id":"COGS219_2020_03","correct":true},{"rt":null,"stimulus":"Sounds/correct.wav","key_press":null,"block":1,"trial_type":"audio-keyboard-response","trial_index":255,"time_elapsed":4089924,"internal_node_id":"0.0-13.0-3.50","match_key":"l","participant_id":"COGS219_2020_03"},{"rt":null,"stimulus":"Sounds/rooster_sound.wav","key_press":null,"block":1,"trial_type":"audio-keyboard-response","trial_index":256,"time_elapsed":4090632,"internal_node_id":"0.0-13.0-0.51","match_key":"l","participant_id":"COGS219_2020_03"},{"rt":null,"stimulus":"<p style=\"font-size: 48px;\">+</p>","key_press":null,"block":1,"trial_type":"html-keyboard-response","trial_index":257,"time_elapsed":4091650,"internal_node_id":"0.0-13.0-1.51","match_key":"l","participant_id":"COGS219_2020_03"},{"rt":376.52500002877787,"stimulus":"Images/rooster_cartoon.png","key_press":76,"stim_onset":1581275487470,"block":1,"match_type":"match","image_category":"rooster","sound_category":"rooster","audio_type":"sound","phase":"test","trial_type":"image-keyboard-response","trial_index":258,"time_elapsed":4092028,"internal_node_id":"0.0-13.0-2.51","match_key":"l","participant_id":"COGS219_2020_03","correct":true},{"rt":null,"stimulus":"Sounds/correct.wav","key_press":null,"block":1,"trial_type":"audio-keyboard-response","trial_index":259,"time_elapsed":4094036,"internal_node_id":"0.0-13.0-3.51","match_key":"l","participant_id":"COGS219_2020_03"},{"rt":null,"stimulus":"Sounds/train_sound.wav","key_press":null,"block":1,"trial_type":"audio-keyboard-response","trial_index":260,"time_elapsed":4095332,"internal_node_id":"0.0-13.0-0.52","match_key":"l","participant_id":"COGS219_2020_03"},{"rt":null,"stimulus":"<p style=\"font-size: 48px;\">+</p>","key_press":null,"block":1,"trial_type":"html-keyboard-response","trial_index":261,"time_elapsed":4096350,"internal_node_id":"0.0-13.0-1.52","match_key":"l","participant_id":"COGS219_2020_03"},{"rt":507.3149999952875,"stimulus":"Images/train_orig.png","key_press":65,"stim_onset":1581275492170,"block":1,"match_type":"match","image_category":"train","sound_category":"train","audio_type":"sound","phase":"test","trial_type":"image-keyboard-response","trial_index":262,"time_elapsed":4096860,"internal_node_id":"0.0-13.0-2.52","match_key":"l","participant_id":"COGS219_2020_03","correct":false},{"rt":null,"stimulus":"Sounds/incorrect.wav","key_press":null,"block":1,"trial_type":"audio-keyboard-response","trial_index":263,"time_elapsed":4098871,"internal_node_id":"0.0-13.0-3.52","match_key":"l","participant_id":"COGS219_2020_03"},{"rt":null,"stimulus":"Sounds/train_label.wav","key_press":null,"block":1,"trial_type":"audio-keyboard-response","trial_index":264,"time_elapsed":4100152,"internal_node_id":"0.0-13.0-0.53","match_key":"l","participant_id":"COGS219_2020_03"},{"rt":null,"stimulus":"<p style=\"font-size: 48px;\">+</p>","key_press":null,"block":1,"trial_type":"html-keyboard-response","trial_index":265,"time_elapsed":4101150,"internal_node_id":"0.0-13.0-1.53","match_key":"l","participant_id":"COGS219_2020_03"},{"rt":412.46000002138317,"stimulus":"Images/train_1.png","key_press":76,"stim_onset":1581275496970,"block":1,"match_type":"match","image_category":"train","sound_category":"train","audio_type":"label","phase":"test","trial_type":"image-keyboard-response","trial_index":266,"time_elapsed":4101564,"internal_node_id":"0.0-13.0-2.53","match_key":"l","participant_id":"COGS219_2020_03","correct":true},{"rt":null,"stimulus":"Sounds/correct.wav","key_press":null,"block":1,"trial_type":"audio-keyboard-response","trial_index":267,"time_elapsed":4103573,"internal_node_id":"0.0-13.0-3.53","match_key":"l","participant_id":"COGS219_2020_03"},{"rt":null,"stimulus":"Sounds/cat_label.wav","key_press":null,"block":1,"trial_type":"audio-keyboard-response","trial_index":268,"time_elapsed":4104412,"internal_node_id":"0.0-13.0-0.54","match_key":"l","participant_id":"COGS219_2020_03"},{"rt":null,"stimulus":"<p style=\"font-size: 48px;\">+</p>","key_press":null,"block":1,"trial_type":"html-keyboard-response","trial_index":269,"time_elapsed":4105400,"internal_node_id":"0.0-13.0-1.54","match_key":"l","participant_id":"COGS219_2020_03"},{"rt":514.5049999700859,"stimulus":"Images/cat_cartoon.png","key_press":76,"stim_onset":1581275501221,"block":1,"match_type":"match","image_category":"cat","sound_category":"cat","audio_type":"label","phase":"test","trial_type":"image-keyboard-response","trial_index":270,"time_elapsed":4105916,"internal_node_id":"0.0-13.0-2.54","match_key":"l","participant_id":"COGS219_2020_03","correct":true},{"rt":null,"stimulus":"Sounds/correct.wav","key_press":null,"block":1,"trial_type":"audio-keyboard-response","trial_index":271,"time_elapsed":4107923,"internal_node_id":"0.0-13.0-3.54","match_key":"l","participant_id":"COGS219_2020_03"},{"rt":null,"stimulus":"Sounds/rooster_sound.wav","key_press":null,"block":1,"trial_type":"audio-keyboard-response","trial_index":272,"time_elapsed":4108614,"internal_node_id":"0.0-13.0-0.55","match_key":"l","participant_id":"COGS219_2020_03"},{"rt":null,"stimulus":"<p style=\"font-size: 48px;\">+</p>","key_press":null,"block":1,"trial_type":"html-keyboard-response","trial_index":273,"time_elapsed":4109619,"internal_node_id":"0.0-13.0-1.55","match_key":"l","participant_id":"COGS219_2020_03"},{"rt":472.8599999798462,"stimulus":"Images/rooster_3.png","key_press":76,"stim_onset":1581275505439,"block":1,"match_type":"match","image_category":"rooster","sound_category":"rooster","audio_type":"sound","phase":"test","trial_type":"image-keyboard-response","trial_index":274,"time_elapsed":4110094,"internal_node_id":"0.0-13.0-2.55","match_key":"l","participant_id":"COGS219_2020_03","correct":true},{"rt":null,"stimulus":"Sounds/correct.wav","key_press":null,"block":1,"trial_type":"audio-keyboard-response","trial_index":275,"time_elapsed":4112107,"internal_node_id":"0.0-13.0-3.55","match_key":"l","participant_id":"COGS219_2020_03"},{"rt":null,"stimulus":"Sounds/car_label.wav","key_press":null,"block":1,"trial_type":"audio-keyboard-response","trial_index":276,"time_elapsed":4113194,"internal_node_id":"0.0-13.0-0.56","match_key":"l","participant_id":"COGS219_2020_03"},{"rt":null,"stimulus":"<p style=\"font-size: 48px;\">+</p>","key_press":null,"block":1,"trial_type":"html-keyboard-response","trial_index":277,"time_elapsed":4114186,"internal_node_id":"0.0-13.0-1.56","match_key":"l","participant_id":"COGS219_2020_03"},{"rt":435.01000001560897,"stimulus":"Images/car_3.png","key_press":76,"stim_onset":1581275510006,"block":1,"match_type":"match","image_category":"car","sound_category":"car","audio_type":"label","phase":"test","trial_type":"image-keyboard-response","trial_index":278,"time_elapsed":4114622,"internal_node_id":"0.0-13.0-2.56","match_key":"l","participant_id":"COGS219_2020_03","correct":true},{"rt":null,"stimulus":"Sounds/correct.wav","key_press":null,"block":1,"trial_type":"audio-keyboard-response","trial_index":279,"time_elapsed":4116634,"internal_node_id":"0.0-13.0-3.56","match_key":"l","participant_id":"COGS219_2020_03"},{"rt":null,"stimulus":"Sounds/cow_sound.wav","key_press":null,"block":1,"trial_type":"audio-keyboard-response","trial_index":280,"time_elapsed":4117654,"internal_node_id":"0.0-13.0-0.57","match_key":"l","participant_id":"COGS219_2020_03"},{"rt":null,"stimulus":"<p style=\"font-size: 48px;\">+</p>","key_press":null,"block":1,"trial_type":"html-keyboard-response","trial_index":281,"time_elapsed":4118652,"internal_node_id":"0.0-13.0-1.57","match_key":"l","participant_id":"COGS219_2020_03"},{"rt":448.2500000158325,"stimulus":"Images/cow_cartoon.png","key_press":76,"stim_onset":1581275514472,"block":1,"match_type":"match","image_category":"cow","sound_category":"cow","audio_type":"sound","phase":"test","trial_type":"image-keyboard-response","trial_index":282,"time_elapsed":4119102,"internal_node_id":"0.0-13.0-2.57","match_key":"l","participant_id":"COGS219_2020_03","correct":true},{"rt":null,"stimulus":"Sounds/correct.wav","key_press":null,"block":1,"trial_type":"audio-keyboard-response","trial_index":283,"time_elapsed":4121109,"internal_node_id":"0.0-13.0-3.57","match_key":"l","participant_id":"COGS219_2020_03"},{"rt":null,"stimulus":"Sounds/dog_sound.wav","key_press":null,"block":1,"trial_type":"audio-keyboard-response","trial_index":284,"time_elapsed":4121814,"internal_node_id":"0.0-13.0-0.58","match_key":"l","participant_id":"COGS219_2020_03"},{"rt":null,"stimulus":"<p style=\"font-size: 48px;\">+</p>","key_press":null,"block":1,"trial_type":"html-keyboard-response","trial_index":285,"time_elapsed":4122802,"internal_node_id":"0.0-13.0-1.58","match_key":"l","participant_id":"COGS219_2020_03"},{"rt":602.6449999772012,"stimulus":"Images/rooster_3.png","key_press":65,"stim_onset":1581275518623,"block":1,"match_type":"non-match","image_category":"rooster","sound_category":"dog","audio_type":"sound","phase":"test","trial_type":"image-keyboard-response","trial_index":286,"time_elapsed":4123406,"internal_node_id":"0.0-13.0-2.58","match_key":"l","participant_id":"COGS219_2020_03","correct":true},{"rt":null,"stimulus":"Sounds/correct.wav","key_press":null,"block":1,"trial_type":"audio-keyboard-response","trial_index":287,"time_elapsed":4125423,"internal_node_id":"0.0-13.0-3.58","match_key":"l","participant_id":"COGS219_2020_03"},{"rt":null,"stimulus":"Sounds/frog_sound.wav","key_press":null,"block":1,"trial_type":"audio-keyboard-response","trial_index":288,"time_elapsed":4126334,"internal_node_id":"0.0-13.0-0.59","match_key":"l","participant_id":"COGS219_2020_03"},{"rt":null,"stimulus":"<p style=\"font-size: 48px;\">+</p>","key_press":null,"block":1,"trial_type":"html-keyboard-response","trial_index":289,"time_elapsed":4127352,"internal_node_id":"0.0-13.0-1.59","match_key":"l","participant_id":"COGS219_2020_03"},{"rt":436.45000003743917,"stimulus":"Images/frog_2.png","key_press":76,"stim_onset":1581275523173,"block":1,"match_type":"match","image_category":"frog","sound_category":"frog","audio_type":"sound","phase":"test","trial_type":"image-keyboard-response","trial_index":290,"time_elapsed":4127790,"internal_node_id":"0.0-13.0-2.59","match_key":"l","participant_id":"COGS219_2020_03","correct":true},{"rt":null,"stimulus":"Sounds/correct.wav","key_press":null,"block":1,"trial_type":"audio-keyboard-response","trial_index":291,"time_elapsed":4129807,"internal_node_id":"0.0-13.0-3.59","match_key":"l","participant_id":"COGS219_2020_03"},{"rt":null,"stimulus":"Sounds/motorcycle_sound.wav","key_press":null,"block":1,"trial_type":"audio-keyboard-response","trial_index":292,"time_elapsed":4130934,"internal_node_id":"0.0-13.0-0.60","match_key":"l","participant_id":"COGS219_2020_03"},{"rt":null,"stimulus":"<p style=\"font-size: 48px;\">+</p>","key_press":null,"block":1,"trial_type":"html-keyboard-response","trial_index":293,"time_elapsed":4131953,"internal_node_id":"0.0-13.0-1.60","match_key":"l","participant_id":"COGS219_2020_03"},{"rt":492.1549999853596,"stimulus":"Images/dog_cartoon.png","key_press":76,"stim_onset":1581275527773,"block":1,"match_type":"non-match","image_category":"dog","sound_category":"motorcycle","audio_type":"sound","phase":"test","trial_type":"image-keyboard-response","trial_index":294,"time_elapsed":4132446,"internal_node_id":"0.0-13.0-2.60","match_key":"l","participant_id":"COGS219_2020_03","correct":false},{"rt":null,"stimulus":"Sounds/incorrect.wav","key_press":null,"block":1,"trial_type":"audio-keyboard-response","trial_index":295,"time_elapsed":4134456,"internal_node_id":"0.0-13.0-3.60","match_key":"l","participant_id":"COGS219_2020_03"},{"rt":null,"stimulus":"Sounds/cow_label.wav","key_press":null,"block":1,"trial_type":"audio-keyboard-response","trial_index":296,"time_elapsed":4135474,"internal_node_id":"0.0-13.0-0.61","match_key":"l","participant_id":"COGS219_2020_03"},{"rt":null,"stimulus":"<p style=\"font-size: 48px;\">+</p>","key_press":null,"block":1,"trial_type":"html-keyboard-response","trial_index":297,"time_elapsed":4136469,"internal_node_id":"0.0-13.0-1.61","match_key":"l","participant_id":"COGS219_2020_03"},{"rt":423.62000001594424,"stimulus":"Images/cow_1.png","key_press":76,"stim_onset":1581275532289,"block":1,"match_type":"match","image_category":"cow","sound_category":"cow","audio_type":"label","phase":"test","trial_type":"image-keyboard-response","trial_index":298,"time_elapsed":4136894,"internal_node_id":"0.0-13.0-2.61","match_key":"l","participant_id":"COGS219_2020_03","correct":true},{"rt":null,"stimulus":"Sounds/correct.wav","key_press":null,"block":1,"trial_type":"audio-keyboard-response","trial_index":299,"time_elapsed":4138907,"internal_node_id":"0.0-13.0-3.61","match_key":"l","participant_id":"COGS219_2020_03"},{"rt":null,"stimulus":"Sounds/whistle_label.wav","key_press":null,"block":1,"trial_type":"audio-keyboard-response","trial_index":300,"time_elapsed":4139614,"internal_node_id":"0.0-13.0-0.62","match_key":"l","participant_id":"COGS219_2020_03"},{"rt":null,"stimulus":"<p style=\"font-size: 48px;\">+</p>","key_press":null,"block":1,"trial_type":"html-keyboard-response","trial_index":301,"time_elapsed":4140603,"internal_node_id":"0.0-13.0-1.62","match_key":"l","participant_id":"COGS219_2020_03"},{"rt":465.94500000355765,"stimulus":"Images/whistle_2.png","key_press":76,"stim_onset":1581275536423,"block":1,"match_type":"match","image_category":"whistle","sound_category":"whistle","audio_type":"label","phase":"test","trial_type":"image-keyboard-response","trial_index":302,"time_elapsed":4141070,"internal_node_id":"0.0-13.0-2.62","match_key":"l","participant_id":"COGS219_2020_03","correct":true},{"rt":null,"stimulus":"Sounds/correct.wav","key_press":null,"block":1,"trial_type":"audio-keyboard-response","trial_index":303,"time_elapsed":4143074,"internal_node_id":"0.0-13.0-3.62","match_key":"l","participant_id":"COGS219_2020_03"},{"rt":null,"stimulus":"Sounds/dog_sound.wav","key_press":null,"block":1,"trial_type":"audio-keyboard-response","trial_index":304,"time_elapsed":4143774,"internal_node_id":"0.0-13.0-0.63","match_key":"l","participant_id":"COGS219_2020_03"},{"rt":null,"stimulus":"<p style=\"font-size: 48px;\">+</p>","key_press":null,"block":1,"trial_type":"html-keyboard-response","trial_index":305,"time_elapsed":4144769,"internal_node_id":"0.0-13.0-1.63","match_key":"l","participant_id":"COGS219_2020_03"},{"rt":475.4550000070594,"stimulus":"Images/motorcycle_2.png","key_press":65,"stim_onset":1581275540590,"block":1,"match_type":"non-match","image_category":"motorcycle","sound_category":"dog","audio_type":"sound","phase":"test","trial_type":"image-keyboard-response","trial_index":306,"time_elapsed":4145246,"internal_node_id":"0.0-13.0-2.63","match_key":"l","participant_id":"COGS219_2020_03","correct":true},{"rt":null,"stimulus":"Sounds/correct.wav","key_press":null,"block":1,"trial_type":"audio-keyboard-response","trial_index":307,"time_elapsed":4147256,"internal_node_id":"0.0-13.0-3.63","match_key":"l","participant_id":"COGS219_2020_03"},{"rt":null,"stimulus":"Sounds/cow_label.wav","key_press":null,"block":1,"trial_type":"audio-keyboard-response","trial_index":308,"time_elapsed":4148254,"internal_node_id":"0.0-13.0-0.64","match_key":"l","participant_id":"COGS219_2020_03"},{"rt":null,"stimulus":"<p style=\"font-size: 48px;\">+</p>","key_press":null,"block":1,"trial_type":"html-keyboard-response","trial_index":309,"time_elapsed":4149253,"internal_node_id":"0.0-13.0-1.64","match_key":"l","participant_id":"COGS219_2020_03"},{"rt":456.00499998545274,"stimulus":"Images/motorcycle_1.png","key_press":65,"stim_onset":1581275545073,"block":1,"match_type":"non-match","image_category":"motorcycle","sound_category":"cow","audio_type":"label","phase":"test","trial_type":"image-keyboard-response","trial_index":310,"time_elapsed":4149710,"internal_node_id":"0.0-13.0-2.64","match_key":"l","participant_id":"COGS219_2020_03","correct":true},{"rt":null,"stimulus":"Sounds/correct.wav","key_press":null,"block":1,"trial_type":"audio-keyboard-response","trial_index":311,"time_elapsed":4151724,"internal_node_id":"0.0-13.0-3.64","match_key":"l","participant_id":"COGS219_2020_03"},{"rt":null,"stimulus":"Sounds/car_label.wav","key_press":null,"block":1,"trial_type":"audio-keyboard-response","trial_index":312,"time_elapsed":4152814,"internal_node_id":"0.0-13.0-0.65","match_key":"l","participant_id":"COGS219_2020_03"},{"rt":null,"stimulus":"<p style=\"font-size: 48px;\">+</p>","key_press":null,"block":1,"trial_type":"html-keyboard-response","trial_index":313,"time_elapsed":4153820,"internal_node_id":"0.0-13.0-1.65","match_key":"l","participant_id":"COGS219_2020_03"},{"rt":464.9349999963306,"stimulus":"Images/cat_1.png","key_press":65,"stim_onset":1581275549639,"block":1,"match_type":"non-match","image_category":"cat","sound_category":"car","audio_type":"label","phase":"test","trial_type":"image-keyboard-response","trial_index":314,"time_elapsed":4154286,"internal_node_id":"0.0-13.0-2.65","match_key":"l","participant_id":"COGS219_2020_03","correct":true},{"rt":null,"stimulus":"Sounds/correct.wav","key_press":null,"block":1,"trial_type":"audio-keyboard-response","trial_index":315,"time_elapsed":4156292,"internal_node_id":"0.0-13.0-3.65","match_key":"l","participant_id":"COGS219_2020_03"},{"rt":null,"stimulus":"Sounds/car_label.wav","key_press":null,"block":1,"trial_type":"audio-keyboard-response","trial_index":316,"time_elapsed":4157354,"internal_node_id":"0.0-13.0-0.66","match_key":"l","participant_id":"COGS219_2020_03"},{"rt":null,"stimulus":"<p style=\"font-size: 48px;\">+</p>","key_press":null,"block":1,"trial_type":"html-keyboard-response","trial_index":317,"time_elapsed":4158353,"internal_node_id":"0.0-13.0-1.66","match_key":"l","participant_id":"COGS219_2020_03"},{"rt":538.7500000069849,"stimulus":"Images/car_cartoon.png","key_press":76,"stim_onset":1581275554173,"block":1,"match_type":"match","image_category":"car","sound_category":"car","audio_type":"label","phase":"test","trial_type":"image-keyboard-response","trial_index":318,"time_elapsed":4158894,"internal_node_id":"0.0-13.0-2.66","match_key":"l","participant_id":"COGS219_2020_03","correct":true},{"rt":null,"stimulus":"Sounds/correct.wav","key_press":null,"block":1,"trial_type":"audio-keyboard-response","trial_index":319,"time_elapsed":4160907,"internal_node_id":"0.0-13.0-3.66","match_key":"l","participant_id":"COGS219_2020_03"},{"rt":null,"stimulus":"Sounds/cat_label.wav","key_press":null,"block":1,"trial_type":"audio-keyboard-response","trial_index":320,"time_elapsed":4161754,"internal_node_id":"0.0-13.0-0.67","match_key":"l","participant_id":"COGS219_2020_03"},{"rt":null,"stimulus":"<p style=\"font-size: 48px;\">+</p>","key_press":null,"block":1,"trial_type":"html-keyboard-response","trial_index":321,"time_elapsed":4162753,"internal_node_id":"0.0-13.0-1.67","match_key":"l","participant_id":"COGS219_2020_03"},{"rt":539.9999999790452,"stimulus":"Images/rooster_1.png","key_press":65,"stim_onset":1581275558573,"block":1,"match_type":"non-match","image_category":"rooster","sound_category":"cat","audio_type":"label","phase":"test","trial_type":"image-keyboard-response","trial_index":322,"time_elapsed":4163294,"internal_node_id":"0.0-13.0-2.67","match_key":"l","participant_id":"COGS219_2020_03","correct":true},{"rt":null,"stimulus":"Sounds/correct.wav","key_press":null,"block":1,"trial_type":"audio-keyboard-response","trial_index":323,"time_elapsed":4165307,"internal_node_id":"0.0-13.0-3.67","match_key":"l","participant_id":"COGS219_2020_03"},{"rt":null,"stimulus":"Sounds/frog_label.wav","key_press":null,"block":1,"trial_type":"audio-keyboard-response","trial_index":324,"time_elapsed":4166214,"internal_node_id":"0.0-13.0-0.68","match_key":"l","participant_id":"COGS219_2020_03"},{"rt":null,"stimulus":"<p style=\"font-size: 48px;\">+</p>","key_press":null,"block":1,"trial_type":"html-keyboard-response","trial_index":325,"time_elapsed":4167203,"internal_node_id":"0.0-13.0-1.68","match_key":"l","participant_id":"COGS219_2020_03"},{"rt":425.79999996814877,"stimulus":"Images/frog_orig.png","key_press":76,"stim_onset":1581275563023,"block":1,"match_type":"match","image_category":"frog","sound_category":"frog","audio_type":"label","phase":"test","trial_type":"image-keyboard-response","trial_index":326,"time_elapsed":4167630,"internal_node_id":"0.0-13.0-2.68","match_key":"l","participant_id":"COGS219_2020_03","correct":true},{"rt":null,"stimulus":"Sounds/correct.wav","key_press":null,"block":1,"trial_type":"audio-keyboard-response","trial_index":327,"time_elapsed":4169643,"internal_node_id":"0.0-13.0-3.68","match_key":"l","participant_id":"COGS219_2020_03"},{"rt":null,"stimulus":"Sounds/whistle_label.wav","key_press":null,"block":1,"trial_type":"audio-keyboard-response","trial_index":328,"time_elapsed":4170336,"internal_node_id":"0.0-13.0-0.69","match_key":"l","participant_id":"COGS219_2020_03"},{"rt":null,"stimulus":"<p style=\"font-size: 48px;\">+</p>","key_press":null,"block":1,"trial_type":"html-keyboard-response","trial_index":329,"time_elapsed":4171338,"internal_node_id":"0.0-13.0-1.69","match_key":"l","participant_id":"COGS219_2020_03"},{"rt":436.3149999990128,"stimulus":"Images/whistle_cartoon.png","key_press":76,"stim_onset":1581275567158,"block":1,"match_type":"match","image_category":"whistle","sound_category":"whistle","audio_type":"label","phase":"test","trial_type":"image-keyboard-response","trial_index":330,"time_elapsed":4171776,"internal_node_id":"0.0-13.0-2.69","match_key":"l","participant_id":"COGS219_2020_03","correct":true},{"rt":null,"stimulus":"Sounds/correct.wav","key_press":null,"block":1,"trial_type":"audio-keyboard-response","trial_index":331,"time_elapsed":4173779,"internal_node_id":"0.0-13.0-3.69","match_key":"l","participant_id":"COGS219_2020_03"},{"rt":null,"stimulus":"Sounds/train_label.wav","key_press":null,"block":1,"trial_type":"audio-keyboard-response","trial_index":332,"time_elapsed":4175056,"internal_node_id":"0.0-13.0-0.70","match_key":"l","participant_id":"COGS219_2020_03"},{"rt":null,"stimulus":"<p style=\"font-size: 48px;\">+</p>","key_press":null,"block":1,"trial_type":"html-keyboard-response","trial_index":333,"time_elapsed":4176055,"internal_node_id":"0.0-13.0-1.70","match_key":"l","participant_id":"COGS219_2020_03"},{"rt":407.805000024382,"stimulus":"Images/cow_2.png","key_press":65,"stim_onset":1581275571875,"block":1,"match_type":"non-match","image_category":"cow","sound_category":"train","audio_type":"label","phase":"test","trial_type":"image-keyboard-response","trial_index":334,"time_elapsed":4176464,"internal_node_id":"0.0-13.0-2.70","match_key":"l","participant_id":"COGS219_2020_03","correct":true},{"rt":null,"stimulus":"Sounds/correct.wav","key_press":null,"block":1,"trial_type":"audio-keyboard-response","trial_index":335,"time_elapsed":4178476,"internal_node_id":"0.0-13.0-3.70","match_key":"l","participant_id":"COGS219_2020_03"},{"rt":null,"stimulus":"Sounds/gun_sound.wav","key_press":null,"block":1,"trial_type":"audio-keyboard-response","trial_index":336,"time_elapsed":4179056,"internal_node_id":"0.0-13.0-0.71","match_key":"l","participant_id":"COGS219_2020_03"},{"rt":null,"stimulus":"<p style=\"font-size: 48px;\">+</p>","key_press":null,"block":1,"trial_type":"html-keyboard-response","trial_index":337,"time_elapsed":4180055,"internal_node_id":"0.0-13.0-1.71","match_key":"l","participant_id":"COGS219_2020_03"},{"rt":391.58999995561317,"stimulus":"Images/motorcycle_orig.png","key_press":76,"stim_onset":1581275575875,"block":1,"match_type":"non-match","image_category":"motorcycle","sound_category":"gun","audio_type":"sound","phase":"test","trial_type":"image-keyboard-response","trial_index":338,"time_elapsed":4180448,"internal_node_id":"0.0-13.0-2.71","match_key":"l","participant_id":"COGS219_2020_03","correct":false},{"rt":null,"stimulus":"Sounds/incorrect.wav","key_press":null,"block":1,"trial_type":"audio-keyboard-response","trial_index":339,"time_elapsed":4182465,"internal_node_id":"0.0-13.0-3.71","match_key":"l","participant_id":"COGS219_2020_03"},{"rt":null,"stimulus":"Sounds/motorcycle_sound.wav","key_press":null,"block":1,"trial_type":"audio-keyboard-response","trial_index":340,"time_elapsed":4183576,"internal_node_id":"0.0-13.0-0.72","match_key":"l","participant_id":"COGS219_2020_03"},{"rt":null,"stimulus":"<p style=\"font-size: 48px;\">+</p>","key_press":null,"block":1,"trial_type":"html-keyboard-response","trial_index":341,"time_elapsed":4184572,"internal_node_id":"0.0-13.0-1.72","match_key":"l","participant_id":"COGS219_2020_03"},{"rt":483.01999998511747,"stimulus":"Images/gun_1.png","key_press":65,"stim_onset":1581275580392,"block":1,"match_type":"non-match","image_category":"gun","sound_category":"motorcycle","audio_type":"sound","phase":"test","trial_type":"image-keyboard-response","trial_index":342,"time_elapsed":4185056,"internal_node_id":"0.0-13.0-2.72","match_key":"l","participant_id":"COGS219_2020_03","correct":true},{"rt":null,"stimulus":"Sounds/correct.wav","key_press":null,"block":1,"trial_type":"audio-keyboard-response","trial_index":343,"time_elapsed":4187062,"internal_node_id":"0.0-13.0-3.72","match_key":"l","participant_id":"COGS219_2020_03"},{"rt":null,"stimulus":"Sounds/train_sound.wav","key_press":null,"block":1,"trial_type":"audio-keyboard-response","trial_index":344,"time_elapsed":4188356,"internal_node_id":"0.0-13.0-0.73","match_key":"l","participant_id":"COGS219_2020_03"},{"rt":null,"stimulus":"<p style=\"font-size: 48px;\">+</p>","key_press":null,"block":1,"trial_type":"html-keyboard-response","trial_index":345,"time_elapsed":4189355,"internal_node_id":"0.0-13.0-1.73","match_key":"l","participant_id":"COGS219_2020_03"},{"rt":371.8150000204332,"stimulus":"Images/train_cartoon.png","key_press":76,"stim_onset":1581275585175,"block":1,"match_type":"match","image_category":"train","sound_category":"train","audio_type":"sound","phase":"test","trial_type":"image-keyboard-response","trial_index":346,"time_elapsed":4189728,"internal_node_id":"0.0-13.0-2.73","match_key":"l","participant_id":"COGS219_2020_03","correct":true},{"rt":null,"stimulus":"Sounds/correct.wav","key_press":null,"block":1,"trial_type":"audio-keyboard-response","trial_index":347,"time_elapsed":4191744,"internal_node_id":"0.0-13.0-3.73","match_key":"l","participant_id":"COGS219_2020_03"},{"rt":null,"stimulus":"Sounds/frog_label.wav","key_press":null,"block":1,"trial_type":"audio-keyboard-response","trial_index":348,"time_elapsed":4192636,"internal_node_id":"0.0-13.0-0.74","match_key":"l","participant_id":"COGS219_2020_03"},{"rt":null,"stimulus":"<p style=\"font-size: 48px;\">+</p>","key_press":null,"block":1,"trial_type":"html-keyboard-response","trial