"rt","responses","trial_type","trial_index","time_elapsed","internal_node_id","match_key","participant_id","stimulus","key_press","block","stim_onset","match_type","image_category","sound_category","audio_type","phase","correct"
"9064.400000002934","{""Q0"":""12""}","survey-text","0","9108","0.0-0.0","a","12","","","","","","","","","",""
"32631.569999997737","","html-keyboard-response","1","41749","0.0-1.0","a","12","<p>Use KEYBOARD 2 (match LEFT)</p><p>Press MATCH to continue.</p>","65","","","","","","","",""
"2070364.2949999925","","html-keyboard-response","2","2112292","0.0-2.0","a","12","<p>Welcome to the experiment.</p>","32","","","","","","","",""
"10841.274999998976","","html-keyboard-response","3","2123139","0.0-3.0","a","12","<p>Thank you for agreeing to participate in this study.</p><p>If during any part of the procedure you must stop for any reason, please inform the researcher that you do not wish to continue.</p>","32","","","","","","","",""
"20398.784999997355","","html-keyboard-response","4","2143539","0.0-4.0","a","12","<p>In this experiment, you will hear various words or sounds and see pictures of various animals and objects.</p><p>Most of the images will be of common everyday objects, such as cars, cats, cows, firearms, frogs, chickens, whistles, trains, motorcycles, and dogs.</p><p>Some of the images will be real-life stills, while others will be cartoons.</p>","32","","","","","","","",""
"15990.655000001192","","html-keyboard-response","5","2159531","0.0-5.0","a","12","<p>Sometimes, the word/sound will match the picture, for example you'll hear a meowing sound and see a cat.</p><p>Other times, the picture will not match the sound or word.</p><p>Your task is to decide as quickly as possible if the word/sound matches the picture or not. </p>","32","","","","","","","",""
"14695.374999995343","","html-keyboard-response","6","2174220","0.0-6.0","a","12","<p>For example, if you hear the word ""cat"" or hear a meowing sound, and then see a picture of a cat, you should press the MATCH key.</p><p> If the sound and image do not match, press the NOT-MATCH key to indicate that there is not a match.</p>","32","","","","","","","",""
"7325.855000003241","","html-keyboard-response","7","2181547","0.0-7.0","a","12","<p>If you make a mistake, you will hear a buzzing sound instead of a more pleasant sound.</p><p> Try to respond as quickly as possible, while making as few errors as possible. If you are making mistakes, you are probably rushing.</p>","32","","","","","","","",""
"14943.969999992754","","html-keyboard-response","8","2196492","0.0-8.0","a","12","<p>Please try to not move or blink your eyes during the presentation of the images. You can move and blink between images.</p><p>During the experiment there will be some breaks during which you can rest your eyes.</p>","32","","","","","","","",""
"29359.075000000186","","html-keyboard-response","9","2225852","0.0-9.0","a","12","<p>We will begin with 10 practice trials. Please let the experimenter know if you have any questions.</p>","32","","","","","","","",""
"null","","audio-keyboard-response","10","2227057","0.0-10.0-0.0","a","12","Sounds/motorcycle_sound.wav","null","0","","","","","","",""
"null","","html-keyboard-response","11","2228050","0.0-10.0-1.0","a","12","<p style=""font-size: 48px;"">+</p>","null","0","","","","","","",""
"1983.6700000013225","","image-keyboard-response","12","2230035","0.0-10.0-2.0","a","12","Images/train_2.png","65","0","1581648057004","non-match","train","motorcycle","sound","practice","false"
"null","","audio-keyboard-response","13","2232040","0.0-10.0-3.0","a","12","Sounds/incorrect.wav","null","0","","","","","","",""
"null","","audio-keyboard-response","14","2233137","0.0-10.0-0.1","a","12","Sounds/motorcycle_sound.wav","null","0","","","","","","",""
"null","","html-keyboard-response","15","2234133","0.0-10.0-1.1","a","12","<p style=""font-size: 48px;"">+</p>","null","0","","","","","","",""
"1532.9550000028685","","image-keyboard-response","16","2235676","0.0-10.0-2.1","a","12","Images/cat_3.png","76","0","1581648063087","non-match","cat","motorcycle","sound","practice","true"
"null","","audio-keyboard-response","17","2237687","0.0-10.0-3.1","a","12","Sounds/correct.wav","null","0","","","","","","",""
"null","","audio-keyboard-response","18","2238385","0.0-10.0-0.2","a","12","Sounds/rooster_label.wav","null","0","","","","","","",""
"null","","html-keyboard-response","19","2239375","0.0-10.0-1.2","a","12","<p style=""font-size: 48px;"">+</p>","null","0","","","","","","",""
"1123.5950000118464","","image-keyboard-response","20","2240500","0.0-10.0-2.2","a","12","Images/cow_orig.png","76","0","1581648068329","non-match","cow","rooster","label","practice","true"
"null","","audio-keyboard-response","21","2242513","0.0-10.0-3.2","a","12","Sounds/correct.wav","null","0","","","","","","",""
"null","","audio-keyboard-response","22","2243205","0.0-10.0-0.3","a","12","Sounds/rooster_sound.wav","null","0","","","","","","",""
"null","","html-keyboard-response","23","2244209","0.0-10.0-1.3","a","12","<p style=""font-size: 48px;"">+</p>","null","0","","","","","","",""
"1129.834999999497","","image-keyboard-response","24","2245340","0.0-10.0-2.3","a","12","Images/car_3.png","76","0","1581648073163","non-match","car","rooster","sound","practice","true"
"null","","audio-keyboard-response","25","2247347","0.0-10.0-3.3","a","12","Sounds/correct.wav","null","0","","","","","","",""
"null","","audio-keyboard-response","26","2248485","0.0-10.0-0.4","a","12","Sounds/motorcycle_label.wav","null","0","","","","","","",""
"null","","html-keyboard-response","27","2249475","0.0-10.0-1.4","a","12","<p style=""font-size: 48px;"">+</p>","null","0","","","","","","",""
"447.41999999666587","","image-keyboard-response","28","2249924","0.0-10.0-2.4","a","12","Images/motorcycle_3.png","65","0","1581648078430","match","motorcycle","motorcycle","label","practice","true"
"null","","audio-keyboard-response","29","2251932","0.0-10.0-3.4","a","12","Sounds/correct.wav","null","0","","","","","","",""
"null","","audio-keyboard-response","30","2253045","0.0-10.0-0.5","a","12","Sounds/motorcycle_sound.wav","null","0","","","","","","",""
"null","","html-keyboard-response","31","2254042","0.0-10.0-1.5","a","12","<p style=""font-size: 48px;"">+</p>","null","0","","","","","","",""
"1616.8650000034831","","image-keyboard-response","32","2255660","0.0-10.0-2.5","a","12","Images/motorcycle_2.png","65","0","1581648082996","match","motorcycle","motorcycle","sound","practice","true"
"null","","audio-keyboard-response","33","2257668","0.0-10.0-3.5","a","12","Sounds/correct.wav","null","0","","","","","","",""
"null","","audio-keyboard-response","34","2258325","0.0-10.0-0.6","a","12","Sounds/dog_label.wav","null","0","","","","","","",""
"null","","html-keyboard-response","35","2259326","0.0-10.0-1.6","a","12","<p style=""font-size: 48px;"">+</p>","null","0","","","","","","",""
"493.2049999916926","","image-keyboard-response","36","2259820","0.0-10.0-2.6","a","12","Images/dog_orig.png","65","0","1581648088279","match","dog","dog","label","practice","true"
"null","","audio-keyboard-response","37","2261832","0.0-10.0-3.6","a","12","Sounds/correct.wav","null","0","","","","","","",""
"null","","audio-keyboard-response","38","2262405","0.0-10.0-0.7","a","12","Sounds/gun_sound.wav","null","0","","","","","","",""
"null","","html-keyboard-response","39","2263409","0.0-10.0-1.7","a","12","<p style=""font-size: 48px;"">+</p>","null","0","","","","","","",""
"1017.9750000094064","","image-keyboard-response","40","2264428","0.0-10.0-2.7","a","12","Images/train_orig.png","76","0","1581648092363","non-match","train","gun","sound","practice","true"
"null","","audio-keyboard-response","41","2266431","0.0-10.0-3.7","a","12","Sounds/correct.wav","null","0","","","","","","",""
"null","","audio-keyboard-response","42","2267125","0.0-10.0-0.8","a","12","Sounds/whistle_label.wav","null","0","","","","","","",""
"null","","html-keyboard-response","43","2268126","0.0-10.0-1.8","a","12","<p style=""font-size: 48px;"">+</p>","null","0","","","","","","",""
"1077.6399999884889","","image-keyboard-response","44","2269204","0.0-10.0-2.8","a","12","Images/frog_1.png","76","0","1581648097080","non-match","frog","whistle","label","practice","true"
"null","","audio-keyboard-response","45","2271215","0.0-10.0-3.8","a","12","Sounds/correct.wav","null","0","","","","","","",""
"null","","audio-keyboard-response","46","2272285","0.0-10.0-0.9","a","12","Sounds/car_sound.wav","null","0","","","","","","",""
"null","","html-keyboard-response","47","2273276","0.0-10.0-1.9","a","12","<p style=""font-size: 48px;"">+</p>","null","0","","","","","","",""
"822.9400000129826","","image-keyboard-response","48","2274100","0.0-10.0-2.9","a","12","Images/train_1.png","76","0","1581648102230","non-match","train","car","sound","practice","true"
"null","","audio-keyboard-response","49","2276115","0.0-10.0-3.9","a","12","Sounds/correct.wav","null","0","","","","","","",""
"31721.684999996796","","html-keyboard-response","50","2307832","0.0-11.0","a","12","<p>The rest of the experiment is divided into five blocks with 100 trials in each block. It will take about 45 minutes to complete.</p><p>The experimenter will be in the outer room and you can communicate with them through the monitor if you have any questions or wish to stop the experiment.</p>","32","","","","","","","",""
"61046.58999999799","","html-keyboard-response","51","2368881","0.0-12.0","a","12","<p>Remember, please try not to move or blink your eyes during the presentation of the images. </p><p>At the end of the experiment, we will show you your scores on the task so you can see how you did.</p><p>The experiment will start on the next screen.</p>","32","","","","","","","",""
"null","","audio-keyboard-response","52","2371491","0.0-13.0-0.0","a","12","Sounds/gun_label.wav","null","1","","","","","","",""
"null","","html-keyboard-response","53","2372490","0.0-13.0-1.0","a","12","<p style=""font-size: 48px;"">+</p>","null","1","","","","","","",""
"469.5499999942258","","image-keyboard-response","54","2372960","0.0-13.0-2.0","a","12","Images/gun_1.png","65","1","1581648201444","match","gun","gun","label","test","true"
"null","","audio-keyboard-response","55","2374977","0.0-13.0-3.0","a","12","Sounds/correct.wav","null","1","","","","","","",""
"null","","audio-keyboard-response","56","2375812","0.0-13.0-0.1","a","12","Sounds/cat_label.wav","null","1","","","","","","",""
"null","","html-keyboard-response","57","2376807","0.0-13.0-1.1","a","12","<p style=""font-size: 48px;"">+</p>","null","1","","","","","","",""
"952.929999999702","","image-keyboard-response","58","2377761","0.0-13.0-2.1","a","12","Images/dog_1.png","65","1","1581648205761","non-match","dog","cat","label","test","false"
"null","","audio-keyboard-response","59","2379778","0.0-13.0-3.1","a","12","Sounds/incorrect.wav","null","1","","","","","","",""
"null","","audio-keyboard-response","60","2380471","0.0-13.0-0.2","a","12","Sounds/whistle_sound.wav","null","1","","","","","","",""
"null","","html-keyboard-response","61","2381473","0.0-13.0-1.2","a","12","<p style=""font-size: 48px;"">+</p>","null","1","","","","","","",""
"1110.4900000062771","","image-keyboard-response","62","2382585","0.0-13.0-2.2","a","12","Images/whistle_cartoon.png","65","1","1581648210427","match","whistle","whistle","sound","test","true"
"null","","audio-keyboard-response","63","2384593","0.0-13.0-3.2","a","12","Sounds/correct.wav","null","1","","","","","","",""
"null","","audio-keyboard-response","64","2385891","0.0-13.0-0.3","a","12","Sounds/train_sound.wav","null","1","","","","","","",""
"null","","html-keyboard-response","65","2386890","0.0-13.0-1.3","a","12","<p style=""font-size: 48px;"">+</p>","null","1","","","","","","",""
"1141.4950000033714","","image-keyboard-response","66","2388032","0.0-13.0-2.3","a","12","Images/gun_3.png","76","1","1581648215844","non-match","gun","train","sound","test","true"
"null","","audio-keyboard-response","67","2390043","0.0-13.0-3.3","a","12","Sounds/correct.wav","null","1","","","","","","",""
"null","","audio-keyboard-response","68","2390751","0.0-13.0-0.4","a","12","Sounds/dog_sound.wav","null","1","","","","","","",""
"null","","html-keyboard-response","69","2391757","0.0-13.0-1.4","a","12","<p style=""font-size: 48px;"">+</p>","null","1","","","","","","",""
"762.644999995362","","image-keyboard-response","70","2392520","0.0-13.0-2.4","a","12","Images/cow_cartoon.png","76","1","1581648220711","non-match","cow","dog","sound","test","true"
"null","","audio-keyboard-response","71","2394528","0.0-13.0-3.4","a","12","Sounds/correct.wav","null","1","","","","","","",""
"null","","audio-keyboard-response","72","2395111","0.0-13.0-0.5","a","12","Sounds/gun_sound.wav","null","1","","","","","","",""
"null","","html-keyboard-response","73","2396107","0.0-13.0-1.5","a","12","<p style=""font-size: 48px;"">+</p>","null","1","","","","","","",""
"892.8400000003166","","image-keyboard-response","74","2397001","0.0-13.0-2.5","a","12","Images/motorcycle_cartoon.png","76","1","1581648225061","non-match","motorcycle","gun","sound","test","true"
"null","","audio-keyboard-response","75","2399010","0.0-13.0-3.5","a","12","Sounds/correct.wav","null","1","","","","","","",""
"null","","audio-keyboard-response","76","2399711","0.0-13.0-0.6","a","12","Sounds/rooster_label.wav","null","1","","","","","","",""
"null","","html-keyboard-response","77","2400707","0.0-13.0-1.6","a","12","<p style=""font-size: 48px;"">+</p>","null","1","","","","","","",""
"691.2100000046194","","image-keyboard-response","78","2401401","0.0-13.0-2.6","a","12","Images/rooster_orig.png","65","1","1581648229661","match","rooster","rooster","label","test","true"
"null","","audio-keyboard-response","79","2403412","0.0-13.0-3.6","a","12","Sounds/correct.wav","null","1","","","","","","",""
"null","","audio-keyboard-response","80","2404111","0.0-13.0-0.7","a","12","Sounds/dog_sound.wav","null","1","","","","","","",""
"null","","html-keyboard-response","81","2405107","0.0-13.0-1.7","a","12","<p style=""font-size: 48px;"">+</p>","null","1","","","","","","",""
"1012.8899999978021","","image-keyboard-response","82","2406121","0.0-13.0-2.7","a","12","Images/dog_orig.png","76","1","1581648234061","match","dog","dog","sound","test","false"
"null","","audio-keyboard-response","83","2408129","0.0-13.0-3.7","a","12","Sounds/incorrect.wav","null","1","","","","","","",""
"null","","audio-keyboard-response","84","2409151","0.0-13.0-0.8","a","12","Sounds/cow_label.wav","null","1","","","","","","",""
"null","","html-keyboard-response","85","2410158","0.0-13.0-1.8","a","12","<p style=""font-size: 48px;"">+</p>","null","1","","","","","","",""
"1129.9949999954551","","image-keyboard-response","86","2411289","0.0-13.0-2.8","a","12","Images/cat_orig.png","76","1","1581648239111","non-match","cat","cow","label","test","true"
"null","","audio-keyboard-response","87","2413299","0.0-13.0-3.8","a","12","Sounds/correct.wav","null","1","","","","","","",""
"null","","audio-keyboard-response","88","2414211","0.0-13.0-0.9","a","12","Sounds/frog_sound.wav","null","1","","","","","","",""
"null","","html-keyboard-response","89","2415207","0.0-13.0-1.9","a","12","<p style=""font-size: 48px;"">+</p>","null","1","","","","","","",""
"1136.1400000024587","","image-keyboard-response","90","2416344","0.0-13.0-2.9","a","12","Images/motorcycle_2.png","76","1","1581648244161","non-match","motorcycle","frog","sound","test","true"
"null","","audio-keyboard-response","91","2418361","0.0-13.0-3.9","a","12","Sounds/correct.wav","null","1","","","","","","",""
"null","","audio-keyboard-response","92","2419451","0.0-13.0-0.10","a","12","Sounds/car_sound.wav","null","1","","","","","","",""
"null","","html-keyboard-response","93","2420457","0.0-13.0-1.10","a","12","<p style=""font-size: 48px;"">+</p>","null","1","","","","","","",""
"1302.3699999903329","","image-keyboard-response","94","2421761","0.0-13.0-2.10","a","12","Images/car_cartoon.png","76","1","1581648249411","match","car","car","sound","test","false"
"null","","audio-keyboard-response","95","2423765","0.0-13.0-3.10","a","12","Sounds/incorrect.wav","null","1","","","","","","",""
"null","","audio-keyboard-response","96","2424351","0.0-13.0-0.11","a","12","Sounds/gun_label.wav","null","1","","","","","","",""
"null","","html-keyboard-response","97","2425340","0.0-13.0-1.11","a","12","<p style=""font-size: 48px;"">+</p>","null","1","","","","","","",""
"547.0350000103936","","image-keyboard-response","98","2425889","0.0-13.0-2.11","a","12","Images/gun_orig.png","65","1","1581648254295","match","gun","gun","label","test","true"
"null","","audio-keyboard-response","99","2427896","0.0-13.0-3.11","a","12","Sounds/correct.wav","null","1","","","","","","",""
"null","","audio-keyboard-response","100","2429195","0.0-13.0-0.12","a","12","Sounds/train_sound.wav","null","1","","","","","","",""
"null","","html-keyboard-response","101","2430194","0.0-13.0-1.12","a","12","<p style=""font-size: 48px;"">+</p>","null","1","","","","","","",""
"825.0200000037439","","image-keyboard-response","102","2431020","0.0-13.0-2.12","a","12","Images/rooster_2.png","76","1","1581648259148","non-match","rooster","train","sound","test","true"
"null","","audio-keyboard-response","103","2433031","0.0-13.0-3.12","a","12","Sounds/correct.wav","null","1","","","","","","",""
"null","","audio-keyboard-response","104","2433735","0.0-13.0-0.13","a","12","Sounds/rooster_label.wav","null","1","","","","","","",""
"null","","html-keyboard-response","105","2434728","0.0-13.0-1.13","a","12","<p style=""font-size: 48px;"">+</p>","null","1","","","","","","",""
"1107.9800000009127","","image-keyboard-response","106","2435837","0.0-13.0-2.13","a","12","Images/cow_orig.png","76","1","1581648263682","non-match","cow","rooster","label","test","true"
"null","","audio-keyboard-response","107","2437848","0.0-13.0-3.13","a","12","Sounds/correct.wav","null","1","","","","","","",""
"null","","audio-keyboard-response","108","2438515","0.0-13.0-0.14","a","12","Sounds/rooster_label.wav","null","1","","","","","","",""
"null","","html-keyboard-response","109","2439511","0.0-13.0-1.14","a","12","<p style=""font-size: 48px;"">+</p>","null","1","","","","","","",""
"628.3100000000559","","image-keyboard-response","110","2440140","0.0-13.0-2.14","a","12","Images/car_3.png","76","1","1581648268465","non-match","car","rooster","label","test","true"
"null","","audio-keyboard-response","111","2442150","0.0-13.0-3.14","a","12","Sounds/correct.wav","null","1","","","","","","",""
"null","","audio-keyboard-response","112","2443055","0.0-13.0-0.15","a","12","Sounds/frog_sound.wav","null","1","","","","","","",""
"null","","html-keyboard-response","113","2444044","0.0-13.0-1.15","a","12","<p style=""font-size: 48px;"">+</p>","null","1","","","","","","",""
"655.0850000060163","","image-keyboard-response","114","2444700","0.0-13.0-2.15","a","12","Images/frog_2.png","65","1","1581648272998","match","frog","frog","sound","test","true"
"null","","audio-keyboard-response","115","2446711","0.0-13.0-3.15","a","12","Sounds/correct.wav","null","1","","","","","","",""
"null","","audio-keyboard-response","116","2447735","0.0-13.0-0.16","a","12","Sounds/cow_sound.wav","null","1","","","","","","",""
"null","","html-keyboard-response","117","2448728","0.0-13.0-1.16","a","12","<p style=""font-size: 48px;"">+</p>","null","1","","","","","","",""
"699.6049999874085","","image-keyboard-response","118","2449428","0.0-13.0-2.16","a","12","Images/rooster_cartoon.png","76","1","1581648277682","non-match","rooster","cow","sound","test","true"
"null","","audio-keyboard-response","119","2451433","0.0-13.0-3.16","a","12","Sounds/correct.wav","null","1","","","","","","",""
"null","","audio-keyboard-response","120","2452095","0.0-13.0-0.17","a","12","Sounds/dog_label.wav","null","1","","","","","","",""
"null","","html-keyboard-response","121","2453094","0.0-13.0-1.17","a","12","<p style=""font-size: 48px;"">+</p>","null","1","","","","","","",""
"620.9450000026263","","image-keyboard-response","122","2453716","0.0-13.0-2.17","a","12","Images/cat_cartoon.png","76","1","1581648282048","non-match","cat","dog","label","test","true"
"null","","audio-keyboard-response","123","2455719","0.0-13.0-3.17","a","12","Sounds/correct.wav","null","1","","","","","","",""
"null","","audio-keyboard-response","124","2456355","0.0-13.0-0.18","a","12","Sounds/dog_label.wav","null","1","","","","","","",""
"null","","html-keyboard-response","125","2457344","0.0-13.0-1.18","a","12","<p style=""font-size: 48px;"">+</p>","null","1","","","","","","",""
"530.7150000007823","","image-keyboard-response","126","2457876","0.0-13.0-2.18","a","12","Images/dog_3.png","65","1","1581648286299","match","dog","dog","label","test","true"
"null","","audio-keyboard-response","127","2459885","0.0-13.0-3.18","a","12","Sounds/correct.wav","null","1","","","","","","",""
"null","","audio-keyboard-response","128","2460775","0.0-13.0-0.19","a","12","Sounds/frog_label.wav","null","1","","","","","","",""
"null","","html-keyboard-response","129","2461778","0.0-13.0-1.19","a","12","<p style=""font-size: 48px;"">+</p>","null","1","","","","","","",""
"841.6650000000373","","image-keyboard-response","130","2462621","0.0-13.0-2.19","a","12","Images/gun_cartoon.png","76","1","1581648290732","non-match","gun","frog","label","test","true"
"null","","audio-keyboard-response","131","2464631","0.0-13.0-3.19","a","12","Sounds/correct.wav","null","1","","","","","","",""
"null","","audio-keyboard-response","132","2465635","0.0-13.0-0.20","a","12","Sounds/cow_sound.wav","null","1","","","","","","",""
"null","","html-keyboard-response","133","2466628","0.0-13.0-1.20","a","12","<p style=""font-size: 48px;"">+</p>","null","1","","","","","","",""
"815.1999999973923","","image-keyboard-response","134","2467444","0.0-13.0-2.20","a","12","Images/cow_2.png","65","1","1581648295582","match","cow","cow","sound","test","true"
"null","","audio-keyboard-response","135","2469450","0.0-13.0-3.20","a","12","Sounds/correct.wav","null","1","","","","","","",""
"null","","audio-keyboard-response","136","2470535","0.0-13.0-0.21","a","12","Sounds/car_label.wav","null","1","","","","","","",""
"null","","html-keyboard-response","137","2471528","0.0-13.0-1.21","a","12","<p style=""font-size: 48px;"">+</p>","null","1","","","","","","",""
"715.41000000434","","image-keyboard-response","138","2472244","0.0-13.0-2.21","a","12","Images/train_cartoon.png","76","1","1581648300482","non-match","train","car","label","test","true"
"null","","audio-keyboard-response","139","2474250","0.0-13.0-3.21","a","12","Sounds/correct.wav","null","1","","","","","","",""
"null","","audio-keyboard-response","140","2475535","0.0-13.0-0.22","a","12","Sounds/train_label.wav","null","1","","","","","","",""
"null","","html-keyboard-response","141","2476528","0.0-13.0-1.22","a","12","<p style=""font-size: 48px;"">+</p>","null","1","","","","","","",""
"635.3749999981374","","image-keyboard-response","142","2477164","0.0-13.0-2.22","a","12","Images/cat_3.png","76","1","1581648305482","non-match","cat","train","label","test","true"
"null","","audio-keyboard-response","143","2479168","0.0-13.0-3.22","a","12","Sounds/correct.wav","null","1","","","","","","",""
"null","","audio-keyboard-response","144","2480015","0.0-13.0-0.23","a","12","Sounds/cat_label.wav","null","1","","","","","","",""
"null","","html-keyboard-response","145","2481012","0.0-13.0-1.23","a","12","<p style=""font-size: 48px;"">+</p>","null","1","","","","","","",""
"775.6850000005215","","image-keyboard-response","146","2481788","0.0-13.0-2.23","a","12","Images/cat_2.png","65","1","1581648309966","match","cat","cat","label","test","true"
"null","","audio-keyboard-response","147","2483798","0.0-13.0-3.23","a","12","Sounds/correct.wav","null","1","","","","","","",""
"null","","audio-keyboard-response","148","2484455","0.0-13.0-0.24","a","12","Sounds/dog_label.wav","null","1","","","","","","",""
"null","","html-keyboard-response","149","2485445","0.0-13.0-1.24","a","12","<p style=""font-size: 48px;"">+</p>","null","1","","","","","","",""
"774.3150000022724","","image-keyboard-response","150","2486220","0.0-13.0-2.24","a","12","Images/motorcycle_1.png","76","1","1581648314399","non-match","motorcycle","dog","label","test","true"
"null","","audio-keyboard-response","151","2488232","0.0-13.0-3.24","a","12","Sounds/correct.wav","null","1","","","","","","",""
"null","","audio-keyboard-response","152","2489255","0.0-13.0-0.25","a","12","Sounds/cow_sound.wav","null","1","","","","","","",""
"null","","html-keyboard-response","153","2490245","0.0-13.0-1.25","a","12","<p style=""font-size: 48px;"">+</p>","null","1","","","","","","",""
"710.6800000038929","","image-keyboard-response","154","2490956","0.0-13.0-2.25","a","12","Images/dog_cartoon.png","76","1","1581648319199","non-match","dog","cow","sound","test","true"
"null","","audio-keyboard-response","155","2492966","0.0-13.0-3.25","a","12","Sounds/correct.wav","null","1","","","","","","",""
"null","","audio-keyboard-response","156","2493955","0.0-13.0-0.26","a","12","Sounds/cow_sound.wav","null","1","","","","","","",""
"null","","html-keyboard-response","157","2494945","0.0-13.0-1.26","a","12","<p style=""font-size: 48px;"">+</p>","null","1","","","","","","",""
"610.3500000024214","","image-keyboard-response","158","2495556","0.0-13.0-2.26","a","12","Images/gun_orig.png","76","1","1581648323899","non-match","gun","cow","sound","test","true"
"null","","audio-keyboard-response","159","2497565","0.0-13.0-3.26","a","12","Sounds/correct.wav","null","1","","","","","","",""
"null","","audio-keyboard-response","160","2498395","0.0-13.0-0.27","a","12","Sounds/cat_label.wav","null","1","","","","","","",""
"null","","html-keyboard-response","161","2499395","0.0-13.0-1.27","a","12","<p style=""font-size: 48px;"">+</p>","null","1","","","","","","",""
"640.2200000011362","","image-keyboard-response","162","2500036","0.0-13.0-2.27","a","12","Images/cat_cartoon.png","65","1","1581648328349","match","cat","cat","label","test","true"
"null","","audio-keyboard-response","163","2502049","0.0-13.0-3.27","a","12","Sounds/correct.wav","null","1","","","","","","",""
"null","","audio-keyboard-response","164","2503135","0.0-13.0-0.28","a","12","Sounds/car_sound.wav","null","1","","","","","","",""
"null","","html-keyboard-response","165","2504128","0.0-13.0-1.28","a","12","<p style=""font-size: 48px;"">+</p>","null","1","","","","","","",""
"891.2149999961257","","image-keyboard-response","166","2505020","0.0-13.0-2.28","a","12","Images/car_1.png","65","1","1581648333082","match","car","car","sound","test","true"
"null","","audio-keyboard-response","167","2507031","0.0-13.0-3.28","a","12","Sounds/correct.wav","null","1","","","","","","",""
"null","","audio-keyboard-response","168","2508075","0.0-13.0-0.29","a","12","Sounds/car_sound.wav","null","1","","","","","","",""
"null","","html-keyboard-response","169","2509078","0.0-13.0-1.29","a","12","<p style=""font-size: 48px;"">+</p>","null","1","","","","","","",""
"500.8650000090711","","image-keyboard-response","170","2509580","0.0-13.0-2.29","a","12","Images/whistle_1.png","76","1","1581648338032","non-match","whistle","car","sound","test","true"
"null","","audio-keyboard-response","171","2511586","0.0-13.0-3.29","a","12","Sounds/correct.wav","null","1","","","","","","",""
"null","","audio-keyboard-response","172","2512655","0.0-13.0-0.30","a","12","Sounds/car_label.wav","null","1","","","","","","",""
"null","","html-keyboard-response","173","2513645","0.0-13.0-1.30","a","12","<p style=""font-size: 48px;"">+</p>","null","1","","","","","","",""
"646.2049999972805","","image-keyboard-response","174","2514292","0.0-13.0-2.30","a","12","Images/car_3.png","65","1","1581648342599","match","car","car","label","test","true"
"null","","audio-keyboard-response","175","2516300","0.0-13.0-3.30","a","12","Sounds/correct.wav","null","1","","","","","","",""
"null","","audio-keyboard-response","176","2517575","0.0-13.0-0.31","a","12","Sounds/train_label.wav","null","1","","","","","","",""
"null","","html-keyboard-response","177","2518578","0.0-13.0-1.31","a","12","<p style=""font-size: 48px;"">+</p>","null","1","","","","","","",""
"536.8950000121258","","image-keyboard-response","178","2519116","0.0-13.0-2.31","a","12","Images/train_2.png","65","1","1581648347532","match","train","train","label","test","true"
"null","","audio-keyboard-response","179","2521132","0.0-13.0-3.31","a","12","Sounds/correct.wav","null","1","","","","","","",""
"null","","audio-keyboard-response","180","2521975","0.0-13.0-0.32","a","12","Sounds/cat_label.wav","null","1","","","","","","",""
"null","","html-keyboard-response","181","2522979","0.0-13.0-1.32","a","12","<p style=""font-size: 48px;"">+</p>","null","1","","","","","","",""
"670.9400000106543","","image-keyboard-response","182","2523652","0.0-13.0-2.32","a","12","Images/car_orig.png","76","1","1581648351932","non-match","car","cat","label","test","true"
"null","","audio-keyboard-response","183","2525666","0.0-13.0-3.32","a","12","Sounds/correct.wav","null","1","","","","","","",""
"null","","audio-keyboard-response","184","2526675","0.0-13.0-0.33","a","12","Sounds/cow_sound.wav","null","1","","","","","","",""
"null","","html-keyboard-response","185","2527678","0.0-13.0-1.33","a","12","<p style=""font-size: 48px;"">+</p>","null","1","","","","","","",""
"756.6300000036135","","image-keyboard-response","186","2528436","0.0-13.0-2.33","a","12","Images/cow_3.png","65","1","1581648356632","match","cow","cow","sound","test","true"
"null","","audio-keyboard-response","187","2530449","0.0-13.0-3.33","a","12","Sounds/correct.wav","null","1","","","","","","",""
"null","","audio-keyboard-response","188","2531295","0.0-13.0-0.34","a","12","Sounds/cat_sound.wav","null","1","","","","","","",""
"null","","html-keyboard-response","189","2532295","0.0-13.0-1.34","a","12","<p style=""font-size: 48px;"">+</p>","null","1","","","","","","",""
"499.9899999969639","","image-keyboard-response","190","2532796","0.0-13.0-2.34","a","12","Images/rooster_orig.png","76","1","1581648361249","non-match","rooster","cat","sound","test","true"
"null","","audio-keyboard-response","191","2534800","0.0-13.0-3.34","a","12","Sounds/correct.wav","null","1","","","","","","",""
"null","","audio-keyboard-response","192","2535875","0.0-13.0-0.35","a","12","Sounds/car_sound.wav","null","1","","","","","","",""
"null","","html-keyboard-response","193","2536879","0.0-13.0-1.35","a","12","<p style=""font-size: 48px;"">+</p>","null","1","","","","","","",""
"884.6250000065193","","image-keyboard-response","194","2537764","0.0-13.0-2.35","a","12","Images/cat_1.png","76","1","1581648365833","non-match","cat","car","sound","test","true"
"null","","audio-keyboard-response","195","2539767","0.0-13.0-3.35","a","12","Sounds/correct.wav","null","1","","","","","","",""
"null","","audio-keyboard-response","196","2540675","0.0-13.0-0.36","a","12","Sounds/frog_sound.wav","null","1","","","","","","",""
"null","","html-keyboard-response","197","2541678","0.0-13.0-1.36","a","12","<p style=""font-size: 48px;"">+</p>","null","1","","","","","","",""
"564.7949999985285","","image-keyboard-response","198","2542244","0.0-13.0-2.36","a","12","Images/frog_3.png","65","1","1581648370632","match","frog","frog","sound","test","true"
"null","","audio-keyboard-response","199","2544254","0.0-13.0-3.36","a","12","Sounds/correct.wav","null","1","","","","","","",""
"null","","audio-keyboard-response","200","2544955","0.0-13.0-0.37","a","12","Sounds/rooster_label.wav","null","1","","","","","","",""
"null","","html-keyboard-response","201","2545945","0.0-13.0-1.37","a","12","<p style=""font-size: 48px;"">+</p>","null","1","","","","","","",""
"866.1250000004657","","image-keyboard-response","202","2546812","0.0-13.0-2.37","a","12","Images/frog_3.png","76","1","1581648374899","non-match","frog","rooster","label","test","true"
"null","","audio-keyboard-response","203","2548819","0.0-13.0-3.37","a","12","Sounds/correct.wav","null","1","","","","","","",""
"null","","audio-keyboard-response","204","2549515","0.0-13.0-0.38","a","12","Sounds/whistle_sound.wav","null","1","","","","","","",""
"null","","html-keyboard-response","205","2550512","0.0-13.0-1.38","a","12","<p style=""font-size: 48px;"">+</p>","null","1","","","","","","",""
"515.0449999929406","","image-keyboard-response","206","2551028","0.0-13.0-2.38","a","12","Images/dog_2.png","76","1","1581648379466","non-match","dog","whistle","sound","test","true"
"null","","audio-keyboard-response","207","2553034","0.0-13.0-3.38","a","12","Sounds/correct.wav","null","1","","","","","","",""
"null","","audio-keyboard-response","208","2553715","0.0-13.0-0.39","a","12","Sounds/rooster_label.wav","null","1","","","","","","",""
"null","","html-keyboard-response","209","2554712","0.0-13.0-1.39","a","12","<p style=""font-size: 48px;"">+</p>","null","1","","","","","","",""
"618.9550000126474","","image-keyboard-response","210","2555332","0.0-13.0-2.39","a","12","Images/rooster_1.png","65","1","1581648383666","match","rooster","rooster","label","test","true"
"null","","audio-keyboard-response","211","2557349","0.0-13.0-3.39","a","12","Sounds/correct.wav","null","1","","","","","","",""
"null","","audio-keyboard-response","212","2558015","0.0-13.0-0.40","a","12","Sounds/dog_label.wav","null","1","","","","","","",""
"null","","html-keyboard-response","213","2559012","0.0-13.0-1.40","a","12","<p style=""font-size: 48px;"">+</p>","null","1","","","","","","",""
"519.1400000038557","","image-keyboard-response","214","2559532","0.0-13.0-2.40","a","12","Images/dog_1.png","65","1","1581648387966","match","dog","dog","label","test","true"
"null","","audio-keyboard-response","215","2561536","0.0-13.0-3.40","a","12","Sounds/correct.wav","null","1","","","","","","",""
"null","","audio-keyboard-response","216","2562235","0.0-13.0-0.41","a","12","Sounds/rooster_sound.wav","null","1","","","","","","",""
"null","","html-keyboard-response","217","2563229","0.0-13.0-1.41","a","12","<p style=""font-size: 48px;"">+</p>","null","1","","","","","","",""
"526.0949999936856","","image-keyboard-response","218","2563756","0.0-13.0-2.41","a","12","Images/rooster_2.png","65","1","1581648392183","match","rooster","rooster","sound","test","true"
"null","","audio-keyboard-response","219","2565766","0.0-13.0-3.41","a","12","Sounds/correct.wav","null","1","","","","","","",""
"null","","audio-keyboard-response","220","2566435","0.0-13.0-0.42","a","12","Sounds/rooster_label.wav","null","1","","","","","","",""
"null","","html-keyboard-response","221","2567429","0.0-13.0-1.42","a","12","<p style=""font-size: 48px;"">+</p>","null","1","","","","","","",""
"534.234999999404","","image-keyboard-response","222","2567964","0.0-13.0-2.42","a","12","Images/train_1.png","76","1","1581648396383","non-match","train","rooster","label","test","true"
"null","","audio-keyboard-response","223","2569967","0.0-13.0-3.42","a","12","Sounds/correct.wav","null","1","","","","","","",""
"null","","audio-keyboard-response","224","2570815","0.0-13.0-0.43","a","12","Sounds/cat_label.wav","null","1","","","","","","",""
"null","","html-keyboard-response","225","2571812","0.0-13.0-1.43","a","12","<p style=""font-size: 48px;"">+</p>","null","1","","","","","","",""
"535.0699999979697","","image-keyboard-response","226","2572348","0.0-13.0-2.43","a","12","Images/cat_1.png","65","1","1581648400766","match","cat","cat","label","test","true"
"null","","audio-keyboard-response","227","2574366","0.0-13.0-3.43","a","12","Sounds/correct.wav","null","1","","","","","","",""
"null","","audio-keyboard-response","228","2575495","0.0-13.0-0.44","a","12","Sounds/motorcycle_label.wav","null","1","","","","","","",""
"null","","html-keyboard-response","229","2576512","0.0-13.0-1.44","a","12","<p style=""font-size: 48px;"">+</p>","null","1","","","","","","",""
"762.8399999961257","","image-keyboard-response","230","2577276","0.0-13.0-2.44","a","12","Images/car_2.png","65","1","1581648405466","non-match","car","motorcycle","label","test","false"
"null","","audio-keyboard-response","231","2579291","0.0-13.0-3.44","a","12","Sounds/incorrect.wav","null","1","","","","","","",""
"null","","audio-keyboard-response","232","2580135","0.0-13.0-0.45","a","12","Sounds/cat_sound.wav","null","1","","","","","","",""
"null","","html-keyboard-response","233","2581129","0.0-13.0-1.45","a","12","<p style=""font-size: 48px;"">+</p>","null","1","","","","","","",""
"890.2549999910407","","image-keyboard-response","234","2582020","0.0-13.0-2.45","a","12","Images/whistle_cartoon.png","76","1","1581648410083","non-match","whistle","cat","sound","test","true"
"null","","audio-keyboard-response","235","2584033","0.0-13.0-3.45","a","12","Sounds/correct.wav","null","1","","","","","","",""
"null","","audio-keyboard-response","236","2584615","0.0-13.0-0.46","a","12","Sounds/gun_sound.wav","null","1","","","","","","",""
"null","","html-keyboard-response","237","2585612","0.0-13.0-1.46","a","12","<p style=""font-size: 48px;"">+</p>","null","1","","","","","","",""
"574.7650000122376","","image-keyboard-response","238","2586188","0.0-13.0-2.46","a","12","Images/gun_cartoon.png","76","1","1581648414566","match","gun","gun","sound","test","false"
"null","","audio-keyboard-response","239","2588200","0.0-13.0-3.46","a","12","Sounds/incorrect.wav","null","1","","","","","","",""
"null","","audio-keyboard-response","240","2589215","0.0-13.0-0.47","a","12","Sounds/cow_label.wav","null","1","","","","","","",""
"null","","html-keyboard-response","241","2590212","0.0-13.0-1.47","a","12","<p style=""font-size: 48px;"">+</p>","null","1","","","","","","",""
"782.7399999951012","","image-keyboard-response","242","2590996","0.0-13.0-2.47","a","12","Images/cow_orig.png","65","1","1581648419167","match","cow","cow","label","test","true"
"null","","audio-keyboard-response","243","2593001","0.0-13.0-3.47","a","12","Sounds/correct.wav","null","1","","","","","","",""
"null","","audio-keyboard-response","244","2594075","0.0-13.0-0.48","a","12","Sounds/car_label.wav","null","1","","","","","","",""
"null","","html-keyboard-response","245","2595079","0.0-13.0-1.48","a","12","<p style=""font-size: 48px;"">+</p>","null","1","","","","","","",""
"1972.1850000061095","","image-keyboard-response","246","2597052","0.0-13.0-2.48","a","12","Images/frog_cartoon.png","76","1","1581648424033","non-match","frog","car","label","test","true"
"null","","audio-keyboard-response","247","2599068","0.0-13.0-3.48","a","12","Sounds/correct.wav","null","1","","","","","","",""
"null","","audio-keyboard-response","248","2599775","0.0-13.0-0.49","a","12","Sounds/rooster_label.wav","null","1","","","","","","",""
"null","","html-keyboard-response","249","2600779","0.0-13.0-1.49","a","12","<p style=""font-size: 48px;"">+</p>","null","1","","","","","","",""
"751.5450000064448","","image-keyboard-response","250","2601532","0.0-13.0-2.49","a","12","Images/rooster_cartoon.png","65","1","1581648429733","match","rooster","rooster","label","test","true"
"null","","audio-keyboard-response","251","2603550","0.0-13.0-3.49","a","12","Sounds/correct.wav","null","1","","","","","","",""
"null","","audio-keyboard-response","252","2604695","0.0-13.0-0.50","a","12","Sounds/motorcycle_label.wav","null","1","","","","","","",""
"null","","html-keyboard-response","253","2605712","0.0-13.0-1.50","a","12","<p style=""font-size: 48px;"">+</p>","null","1","","","","","","",""
"746.5599999995902","","image-keyboard-response","254","2606460","0.0-13.0-2.50","a","12","Images/motorcycle_orig.png","65","1","1581648434667","match","motorcycle","motorcycle","label","test","true"
"null","","audio-keyboard-response","255","2608468","0.0-13.0-3.50","a","12","Sounds/correct.wav","null","1","","","","","","",""
"null","","audio-keyboard-response","256","2609175","0.0-13.0-0.51","a","12","Sounds/whistle_label.wav","null","1","","","","","","",""
"null","","html-keyboard-response","257","2610180","0.0-13.0-1.51","a","12","<p style=""font-size: 48px;"">+</p>","null","1","","","","","","",""
"791.8700000010431","","image-keyboard-response","258","2610973","0.0-13.0-2.51","a","12","Images/gun_1.png","76","1","1581648439133","non-match","gun","whistle","label","test","true"
"null","","audio-keyboard-response","259","2612983","0.0-13.0-3.51","a","12","Sounds/correct.wav","null","1","","","","","","",""
"null","","audio-keyboard-response","260","2613675","0.0-13.0-0.52","a","12","Sounds/rooster_sound.wav","null","1","","","","","","",""
"null","","html-keyboard-response","261","2614680","0.0-13.0-1.52","a","12","<p style=""font-size: 48px;"">+</p>","null","1","","","","","","",""
"811.9250000016764","","image-keyboard-response","262","2615492","0.0-13.0-2.52","a","12","Images/rooster_3.png","65","1","1581648443634","match","rooster","rooster","sound","test","true"
"null","","audio-keyboard-response","263","2617502","0.0-13.0-3.52","a","12","Sounds/correct.wav","null","1","","","","","","",""
"null","","audio-keyboard-response","264","2618515","0.0-13.0-0.53","a","12","Sounds/cow_label.wav","null","1","","","","","","",""
"null","","html-keyboard-response","265","2619513","0.0-13.0-1.53","a","12","<p style=""font-size: 48px;"">+</p>","null","1","","","","","","",""
"842.3249999904074","","image-keyboard-response","266","2620356","0.0-13.0-2.53","a","12","Images/train_orig.png","65","1","1581648448467","non-match","train","cow","label","test","false"
"null","","audio-keyboard-response","267","2622366","0.0-13.0-3.53","a","12","Sounds/incorrect.wav","null","1","","","","","","",""
"null","","audio-keyboard-response","268","2623495","0.0-13.0-0.54","a","12","Sounds/motorcycle_label.wav","null","1","","","","","","",""
"null","","html-keyboard-response","269","2624513","0.0-13.0-1.54","a","12","<p style=""font-size: 48px;"">+</p>","null","1","","","","","","",""
"1386.3899999996647","","image-keyboard-response","270","2625900","0.0-13.0-2.54","a","12","Images/train_3.png","76","1","1581648453467","non-match","train","motorcycle","label","test","true"
"null","","audio-keyboard-response","271","2627905","0.0-13.0-3.54","a","12","Sounds/correct.wav","null","1","","","","","","",""
"null","","audio-keyboard-response","272","2629015","0.0-13.0-0.55","a","12","Sounds/motorcycle_sound.wav","null","1","","","","","","",""
"null","","html-keyboard-response","273","2630013","0.0-13.0-1.55","a","12","<p style=""font-size: 48px;"">+</p>","null","1","","","","","","",""
"678.0999999903142","","image-keyboard-response","274","2630692","0.0-13.0-2.55","a","12","Images/motorcycle_1.png","65","1","1581648458967","match","motorcycle","motorcycle","sound","test","true"
"null","","audio-keyboard-response","275","2632702","0.0-13.0-3.55","a","12","Sounds/correct.wav","null","1","","","","","","",""
"null","","audio-keyboard-response","276","2633535","0.0-13.0-0.56","a","12","Sounds/cat_sound.wav","null","1","","","","","","",""
"null","","html-keyboard-response","277","2634530","0.0-13.0-1.56","a","12","<p style=""font-size: 48px;"">+</p>","null","1","","","","","","",""
"1249.5000000051223","","image-keyboard-response","278","2635780","0.0-13.0-2.56","a","12","Images/train_2.png","76","1","1581648463484","non-match","train","cat","sound","test","true"
"null","","audio-keyboard-response","279","2637786","0.0-13.0-3.56","a","12","Sounds/correct.wav","null","1","","","","","","",""
"null","","audio-keyboard-response","280","2638595","0.0-13.0-0.57","a","12","Sounds/cat_sound.wav","null","1","","","","","","",""
"null","","html-keyboard-response","281","2639630","0.0-13.0-1.57","a","12","<p style=""font-size: 48px;"">+</p>","null","1","","","","","","",""
"1005.7400000081398","","image-keyboard-response","282","2640637","0.0-13.0-2.57","a","12","Images/cat_orig.png","65","1","1581648468584","match","cat","cat","sound","test","true"
"null","","audio-keyboard-response","283","2642651","0.0-13.0-3.57","a","12","Sounds/correct.wav","null","1","","","","","","",""
"null","","audio-keyboard-response","284","2643355","0.0-13.0-0.58","a","12","Sounds/whistle_sound.wav","null","1","","","","","","",""
"null","","html-keyboard-response","285","2644346","0.0-13.0-1.58","a","12","<p style=""font-size: 48px;"">+</p>","null","1","","","","","","",""
"976.9599999999627","","image-keyboard-response","286","2645324","0.0-13.0-2.58","a","12","Images/whistle_2.png","65","1","1581648473301","match","whistle","whistle","sound","test","true"
"null","","audio-keyboard-response","287","2647333","0.0-13.0-3.58","a","12","Sounds/correct.wav","null","1","","","","","","",""
"null","","audio-keyboard-response","288","2648435","0.0-13.0-0.59","a","12","Sounds/motorcycle_sound.wav","null","1","","","","","","",""
"null","","html-keyboard-response","289","2649430","0.0-13.0-1.59","a","12","<p style=""font-size: 48px;"">+</p>","null","1","","","","","","",""
"717.3650000039488","","image-keyboard-response","290","2650148","0.0-13.0-2.59","a","12","Images/motorcycle_2.png","65","1","1581648478384","match","motorcycle","motorcycle","sound","test","true"
"null","","audio-keyboard-response","291","2652152","0.0-13.0-3.59","a","12","Sounds/correct.wav","null","1","","","","","","",""
"null","","audio-keyboard-response","292","2653175","0.0-13.0-0.60","a","12","Sounds/cow_label.wav","null","1","","","","","","",""
"null","","html-keyboard-response","293","2654180","0.0-13.0-1.60","a","12","<p style=""font-size: 48px;"">+</p>","null","1","","","","","","",""
"551.554999998305","","image-keyboard-response","294","2654733","0.0-13.0-2.60","a","12","Images/cow_cartoon.png","65","1","1581648483134","match","cow","cow","label","test","true"
"null","","audio-keyboard-response","295","2656735","0.0-13.0-3.60","a","12","Sounds/correct.wav","null","1","","","","","","",""
"null","","audio-keyboard-response","296","2657635","0.0-13.0-0.61","a","12","Sounds/frog_label.wav","null","1","","","","","","",""
"null","","html-keyboard-response","297","2658630","0.0-13.0-1.61","a","12","<p style=""font-size: 48px;"">+</p>","null","1","","","","","","",""
"573.214999997057","","image-keyboard-response","298","2659204","0.0-13.0-2.61","a","12","Images/frog_cartoon.png","65","1","1581648487584","match","frog","frog","label","test","true"
"null","","audio-keyboard-response","299","2661219","0.0-13.0-3.61","a","12","Sounds/correct.wav","null","1","","","","","","",""
"null","","audio-keyboard-response","300","2661915","0.0-13.0-0.62","a","12","Sounds/whistle_label.wav","null","1","","","","","","",""
"null","","html-keyboard-response","301","2662913","0.0-13.0-1.62","a","12","<p style=""font-size: 48px;"">+</p>","null","1","","","","","","",""
"977.8249999945983","","image-keyboard-response","302","2663892","0.0-13.0-2.62","a","12","Images/whistle_3.png","65","1","1581648491867","match","whistle","whistle","label","test","true"
"null","","audio-keyboard-response","303","2665900","0.0-13.0-3.62","a","12","Sounds/correct.wav","null","1","","","","","","",""
"null","","audio-keyboard-response","304","2666475","0.0-13.0-0.63","a","12","Sounds/gun_sound.wav","null","1","","","","","","",""
"null","","html-keyboard-response","305","2667463","0.0-13.0-1.63","a","12","<p style=""font-size: 48px;"">+</p>","null","1","","","","","","",""
"1387.9649999872781","","image-keyboard-response","306","2668852","0.0-13.0-2.63","a","12","Images/gun_3.png","65","1","1581648496418","match","gun","gun","sound","test","true"
"null","","audio-keyboard-response","307","2670870","0.0-13.0-3.63","a","12","Sounds/correct.wav","null","1","","","","","","",""
"null","","audio-keyboard-response","308","2671955","0.0-13.0-0.64","a","12","Sounds/car_sound.wav","null","1","","","","","","",""
"null","","html-keyboard-response","309","2672947","0.0-13.0-1.64","a","12","<p style=""font-size: 48px;"">+</p>","null","1","","","","","","",""
"520.4100000122562","","image-keyboard-response","310","2673469","0.0-13.0-2.64","a","12","Images/car_orig.png","65","1","1581648501901","match","car","car","sound","test","true"
"null","","audio-keyboard-response","311","2675485","0.0-13.0-3.64","a","12","Sounds/correct.wav","null","1","","","","","","",""
"null","","audio-keyboard-response","312","2676135","0.0-13.0-0.65","a","12","Sounds/dog_label.wav","null","1","","","","","","",""
"null","","html-keyboard-response","313","2677130","0.0-13.0-1.65","a","12","<p style=""font-size: 48px;"">+</p>","null","1","","","","","","",""
"657.1450000046752","","image-keyboard-response","314","2677789","0.0-13.0-2.65","a","12","Images/dog_cartoon.png","65","1","1581648506085","match","dog","dog","label","test","true"
"null","","audio-keyboard-response","315","2679801","0.0-13.0-3.65","a","12","Sounds/correct.wav","null","1","","","","","","",""
"null","","audio-keyboard-response","316","2680495","0.0-13.0-0.66","a","12","Sounds/whistle_sound.wav","null","1","","","","","","",""
"null","","html-keyboard-response","317","2681497","0.0-13.0-1.66","a","12","<p style=""font-size: 48px;"">+</p>","null","1","","","","","","",""
"530.5099999965169","","image-keyboard-response","318","2682029","0.0-13.0-2.66","a","12","Images/motorcycle_orig.png","76","1","1581648510452","non-match","motorcycle","whistle","sound","test","true"
"null","","audio-keyboard-response","319","2684038","0.0-13.0-3.66","a","12","Sounds/correct.wav","null","1","","","","","","",""
"null","","audio-keyboard-response","320","2684675","0.0-13.0-0.67","a","12","Sounds/dog_label.wav","null","1","","","","","","",""
"null","","html-keyboard-response","321","2685664","0.0-13.0-1.67","a","12","<p style=""font-size: 48px;"">+</p>","null","1","","","","","","",""
"571.5899999924004","","image-keyboard-response","322","2686237","0.0-13.0-2.67","a","12","Images/dog_2.png","65","1","1581648514618","match","dog","dog","label","test","true"
"null","","audio-keyboard-response","323","2688251","0.0-13.0-3.67","a","12","Sounds/correct.wav","null","1","","","","","","",""
"null","","audio-keyboard-response","324","2689155","0.0-13.0-0.68","a","12","Sounds/frog_sound.wav","null","1","","","","","","",""
"null","","html-keyboard-response","325","2690148","0.0-13.0-1.68","a","12","<p style=""font-size: 48px;"">+</p>","null","1","","","","","","",""
"752.3800000054762","","image-keyboard-response","326","2690901","0.0-13.0-2.68","a","12","Images/whistle_2.png","76","1","1581648519102","non-match","whistle","frog","sound","test","true"
"null","","audio-keyboard-response","327","2692904","0.0-13.0-3.68","a","12","Sounds/correct.wav","null","1","","","","","","",""
"null","","audio-keyboard-response","328","2694195","0.0-13.0-0.69","a","12","Sounds/train_sound.wav","null","1","","","","","","",""
"null","","html-keyboard-response","329","2695198","0.0-13.0-1.69","a","12","<p style=""font-size: 48px;"">+</p>","null","1","","","","","","",""
"614.3350000055507","","image-keyboard-response","330","2695813","0.0-13.0-2.69","a","12","Images/train_orig.png","65","1","1581648524152","match","train","train","sound","test","true"
"null","","audio-keyboard-response","331","2697820","0.0-13.0-3.69","a","12","Sounds/correct.wav","null","1","","","","","","",""
"null","","audio-keyboard-response","332","2699095","0.0-13.0-0.70","a","12","Sounds/train_sound.wav","null","1","","","","","","",""
"null","","html-keyboard-response","333","2700098","0.0-13.0-1.70","a","12","<p style=""font-size: 48px;"">+</p>","null","1","","","","","","",""
"722.2849999959581","","image-keyboard-response","334","2700821","0.0-13.0-2.70","a","12","Images/train_3.png","65","1","1581648529052","match","train","train","sound","test","true"
"null","","audio-keyboard-response","335","2702835","0.0-13.0-3.70","a","12","Sounds/correct.wav","null","1","","","","","","",""
"null","","audio-keyboard-response","336","2703955","0.0-13.0-0.71","a","12","Sounds/motorcycle_sound.wav","null","1","","","","","","",""
"null","","html-keyboard-response","337","2704948","0.0-13.0-1.71","a","12","<p style=""font-size: 48px;"">+</p>","null","1","","","","","","",""
"568.1650000042282","","image-keyboard-response","338","2705517","0.0-13.0-2.71","a","12","Images/motorcycle_3.png","65","1","1581648533902","match","motorcycle","motorcycle","sound","test","true"
"null","","audio-keyboard-response","339","2707521","0.0-13.0-3.71","a","12","Sounds/correct.wav","null","1","","","","","","",""
"null","","audio-keyboard-response","340","2708235","0.0-13.0-0.72","a","12","Sounds/dog_sound.wav","null","1","","","","","","",""
"null","","html-keyboard-response","341","2709231","0.0-13.0-1.72","a","12","<p style=""font-size: 48px;"">+</p>","null","1","","","","","","",""
"636.8250000090338","","image-keyboard-response","342","2709869","0.0-13.0-2.72","a","12","Images/rooster_1.png","76","1","1581648538185","non-match","rooster","dog","sound","test","true"
"null","","audio-keyboard-response","343","2711871","0.0-13.0-3.72","a","12","Sounds/correct.wav","null","1","","","","","","",""
"null","","audio-keyboard-response","344","2712955","0.0-13.0-0.73","a","12","Sounds/motorcycle_sound.wav","null","1","","","","","","",""
"null","","html-keyboard-response","345","2713948","0.0-13.0-1.73","a","12","<p style=""font-size: 48px;"">+</p>","null","1","","","","","","",""
"832.1699999938719","","image-keyboard-response","346","2714781","0.0-13.0-2.73","a","12","Images/dog_3.png","76","1","1581648542902","non-match","dog","motorcycle","sound","test","true"
"null","","audio-keyboard-response","347","2716786","0.0-13.0-3.73","a","12","Sounds/correct.wav","null","1","","","","","","",""
"null","","audio-keyboard-response","348","2717495","0.0-13.0-0.74","a","12","Sounds/whistle_label.wav","null","1","","","","","","",""
"null","","html-keyboard-response","349","2718498","0.0-13.0-1.74","a","12","<p style=""font-size: 48px;"">+</p>","null","1","","","","","","",""
"729.999999995809","","image-keyboard-response","350","2719229","0.0-13.0-2.74","a","12","Images/whistle_1.png","65","1","1581648547452","match","whistle","whistle","label","test","true"
"null","","audio-keyboard-response","351","2721236","0.0-13.0-3.74","a","12","Sounds/correct.wav","null","1","","","","","","",""
"null","","audio-keyboard-response","352","2722375","0.0-13.0-0.75","a","12","Sounds/motorcycle_label.wav","null","1","","","","","","",""
"null","","html-keyboard-response","353","2723381","0.0-13.0-1.75","a","12","<p style=""font-size: 48px;"">+</p>","null","1","","","","","","",""
"582.5449999975972","","image-keyboard-response","354","2723965","0.0-13.0-2.75","a","12","Images/motorcycle_cartoon.png","65","1","1581648552335","match","motorcycle","motorcycle","label","test","true"
"null","","audio-keyboard-response","355","2725970","0.0-13.0-3.75","a","12","Sounds/correct.wav","null","1","","","","","","",""
"null","","audio-keyboard-response","356","2727055","0.0-13.0-0.76","a","12","Sounds/motorcycle_sound.wav","null","1","","","","","","",""
"null","","html-keyboard-response","357","2728048","0.0-13.0-1.76","a","12","<p style=""font-size: 48px;"">+</p>","null","1","","","","","","",""
"547.9699999997392","","image-keyboard-response","358","2728597","0.0-13.0-2.76","a","12","Images/frog_orig.png","76","1","1581648557002","non-match","frog","motorcycle","sound","test","true"
"null","","audio-keyboard-response","359","2730604","0.0-13.0-3.76","a","12","Sounds/correct.wav","null","1","","","","","","",""
"null","","audio-keyboard-response","360","2731275","0.0-13.0-0.77","a","12","Sounds/whistle_label.wav","null","1","","","","","","",""
"null","","html-keyboard-response","361","2732265","0.0-13.0-1.77","a","12","<p style=""font-size: 48px;"">+</p>","null","1","","","","","","",""
"1235.0600000061095","","image-keyboard-response","362","2733501","0.0-13.0-2.77","a","12","Images/cat_2.png","76","1","1581648561219","non-match","cat","whistle","label","test","true"
"null","","audio-keyboard-response","363","2735510","0.0-13.0-3.77","a","12","Sounds/correct.wav","null","1","","","","","","",""
"null","","audio-keyboard-response","364","2736095","0.0-13.0-0.78","a","12","Sounds/gun_label.wav","null","1","","","","","","",""
"null","","html-keyboard-response","365","2737098","0.0-13.0-1.78","a","12","<p style=""font-size: 48px;"">+</p>","null","1","","","","","","",""
"602.1000000038184","","image-keyboard-response","366","2737701","0.0-13.0-2.78","a","12","Images/cow_3.png","76","1","1581648566052","non-match","cow","gun","label","test","true"
"null","","audio-keyboard-response","367","2739703","0.0-13.0-3.78","a","12","Sounds/correct.wav","null","1","","","","","","",""
"null","","audio-keyboard-response","368","2740615","0.0-13.0-0.79","a","12","Sounds/frog_sound.wav","null","1","","","","","","",""
"null","","html-keyboard-response","369","2741615","0.0-13.0-1.79","a","12","<p style=""font-size: 48px;"">+</p>","null","1","","","","","","",""
"1148.864999995567","","image-keyboard-response","370","2742765","0.0-13.0-2.79","a","12","Images/frog_orig.png","65","1","1581648570569","match","frog","frog","sound","test","true"
"null","","audio-keyboard-response","371","2744770","0.0-13.0-3.79","a","12","Sounds/correct.wav","null","1","","","","","","",""
"null","","audio-keyboard-response","372","2746075","0.0-13.0-0.80","a","12","Sounds/train_sound.wav","null","1","","","","","","",""
"null","","html-keyboard-response","373","2747082","0.0-13.0-1.80","a","12","<p style=""font-size: 48px;"">+</p>","null","1","","","","","","",""
"898.2950000064448","","image-keyboard-response","374","2747981","0.0-13.0-2.80","a","12","Images/train_1.png","65","1","1581648576036","match","train","train","sound","test","true"
"null","","audio-keyboard-response","375","2749987","0.0-13.0-3.80","a","12","Sounds/correct.wav","null","1","","","","","","",""
"null","","audio-keyboard-response","376","2750575","0.0-13.0-0.81","a","12","Sounds/gun_sound.wav","null","1","","","","","","",""
"null","","html-keyboard-response","377","2751565","0.0-13.0-1.81","a","12","<p style=""font-size: 48px;"">+</p>","null","1","","","","","","",""
"486.82500000018626","","image-keyboard-response","378","2752053","0.0-13.0-2.81","a","12","Images/gun_2.png","65","1","1581648580519","match","gun","gun","sound","test","true"
"null","","audio-keyboard-response","379","2754069","0.0-13.0-3.81","a","12","Sounds/correct.wav","null","1","","","","","","",""
"null","","audio-keyboard-response","380","2754955","0.0-13.0-0.82","a","12","Sounds/frog_sound.wav","null","1","","","","","","",""
"null","","html-keyboard-response","381","2755948","0.0-13.0-1.82","a","12","<p style=""font-size: 48px;"">+</p>","null","1","","","","","","",""
"663.7400000034831","","image-keyboard-response","382","2756613","0.0-13.0-2.82","a","12","Images/dog_orig.png","76","1","1581648584902","non-match","dog","frog","sound","test","true"
"null","","audio-keyboard-response","383","2758627","0.0-13.0-3.82","a","12","Sounds/correct.wav","null","1","","","","","","",""
"null","","audio-keyboard-response","384","2759515","0.0-13.0-0.83","a","12","Sounds/frog_sound.wav","null","1","","","","","","",""
"null","","html-keyboard-response","385","2760515","0.0-13.0-1.83","a","12","<p style=""font-size: 48px;"">+</p>","null","1","","","","","","",""
"729.0399999911897","","image-keyboard-response","386","2761245","0.0-13.0-2.83","a","12","Images/car_1.png","76","1","1581648589469","non-match","car","frog","sound","test","true"
"null","","audio-keyboard-response","387","2763258","0.0-13.0-3.83","a","12","Sounds/correct.wav","null","1","","","","","","",""
"null","","audio-keyboard-response","388","2764535","0.0-13.0-0.84","a","12","Sounds/train_label.wav","null","1","","","","","","",""
"null","","html-keyboard-response","389","2765532","0.0-13.0-1.84","a","12","<p style=""font-size: 48px;"">+</p>","null","1","","","","","","",""
"576.1650000056252","","image-keyboard-response","390","2766109","0.0-13.0-2.84","a","12","Images/cow_2.png","76","1","1581648594486","non-match","cow","train","label","test","true"
"null","","audio-keyboard-response","391","2768124","0.0-13.0-3.84","a","12","Sounds/correct.wav","null","1","","","","","","",""
"null","","audio-keyboard-response","392","2768775","0.0-13.0-0.85","a","12","Sounds/dog_label.wav","null","1","","","","","","",""
"null","","html-keyboard-response","393","2769765","0.0-13.0-1.85","a","12","<p style=""font-size: 48px;"">+</p>","null","1","","","","","","",""
"964.7899999981746","","image-keyboard-response","394","2770733","0.0-13.0-2.85","a","12","Images/frog_2.png","65","1","1581648598719","non-match","frog","dog","label","test","false"
"null","","audio-keyboard-response","395","2772737","0.0-13.0-3.85","a","12","Sounds/incorrect.wav","null","1","","","","","","",""
"null","","audio-keyboard-response","396","2773815","0.0-13.0-0.86","a","12","Sounds/car_label.wav","null","1","","","","","","",""
"null","","html-keyboard-response","397","2774815","0.0-13.0-1.86","a","12","<p style=""font-size: 48px;"">+</p>","null","1","","","","","","",""
"1221.0499999928288","","image-keyboard-response","398","2776037","0.0-13.0-2.86","a","12","Images/car_2.png","65","1","1581648603769","match","car","car","label","test","true"
"null","","audio-keyboard-response","399","2778054","0.0-13.0-3.86","a","12","Sounds/correct.wav","null","1","","","","","","",""
"null","","audio-keyboard-response","400","2779115","0.0-13.0-0.87","a","12","Sounds/car_label.wav","null","1","","","","","","",""
"null","","html-keyboard-response","401","2780115","0.0-13.0-1.87","a","12","<p style=""font-size: 48px;"">+</p>","null","1","","","","","","",""
"864.855000007432","","image-keyboard-response","402","2780981","0.0-13.0-2.87","a","12","Images/cow_1.png","65","1","1581648609069","non-match","cow","car","label","test","false"
"null","","audio-keyboard-response","403","2782991","0.0-13.0-3.87","a","12","Sounds/incorrect.wav","null","1","","","","","","",""
"null","","audio-keyboard-response","404","2783895","0.0-13.0-0.88","a","12","Sounds/frog_sound.wav","null","1","","","","","","",""
"null","","html-keyboard-response","405","2784898","0.0-13.0-1.88","a","12","<p style=""font-size: 48px;"">+</p>","null","1","","","","","","",""
"1145.4300000043586","","image-keyboard-response","406","2786045","0.0-13.0-2.88","a","12","Images/frog_1.png","65","1","1581648613853","match","frog","frog","sound","test","true"
"null","","audio-keyboard-response","407","2788054","0.0-13.0-3.88","a","12","Sounds/correct.wav","null","1","","","","","","",""
"null","","audio-keyboard-response","408","2788895","0.0-13.0-0.89","a","12","Sounds/cat_label.wav","null","1","","","","","","",""
"null","","html-keyboard-response","409","2789899","0.0-13.0-1.89","a","12","<p style=""font-size: 48px;"">+</p>","null","1","","","","","","",""
"545.230000003241","","image-keyboard-response","410","2790445","0.0-13.0-2.89","a","12","Images/cat_3.png","76","1","1581648618853","match","cat","cat","label","test","false"
"null","","audio-keyboard-response","411","2792451","0.0-13.0-3.89","a","12","Sounds/incorrect.wav","null","1","","","","","","",""
"null","","audio-keyboard-response","412","2793154","0.0-13.0-0.90","a","12","Sounds/rooster_label.wav","null","1","","","","","","",""
"null","","html-keyboard-response","413","2794147","0.0-13.0-1.90","a","12","<p style=""font-size: 48px;"">+</p>","null","1","","","","","","",""
"1799.3199999909848","","image-keyboard-response","414","2795947","0.0-13.0-2.90","a","12","Images/whistle_orig.png","76","1","1581648623101","non-match","whistle","rooster","label","test","true"
"null","","audio-keyboard-response","415","2797954","0.0-13.0-3.90","a","12","Sounds/correct.wav","null","1","","","","","","",""
"null","","audio-keyboard-response","416","2798534","0.0-13.0-0.91","a","12","Sounds/gun_sound.wav","null","1","","","","","","",""
"null","","html-keyboard-response","417","2799530","0.0-13.0-1.91","a","12","<p style=""font-size: 48px;"">+</p>","null","1","","","","","","",""
"1327.7900000102818","","image-keyboard-response","418","2800859","0.0-13.0-2.91","a","12","Images/car_cartoon.png","76","1","1581648628484","non-match","car","gun","sound","test","true"
"null","","audio-keyboard-response","419","2802871","0.0-13.0-3.91","a","12","Sounds/correct.wav","null","1","","","","","","",""
"null","","audio-keyboard-response","420","2803454","0.0-13.0-0.92","a","12","Sounds/gun_label.wav","null","1","","","","","","",""
"null","","html-keyboard-response","421","2804447","0.0-13.0-1.92","a","12","<p style=""font-size: 48px;"">+</p>","null","1","","","","","","",""
"1010.999999998603","","image-keyboard-response","422","2805459","0.0-13.0-2.92","a","12","Images/frog_1.png","76","1","1581648633401","non-match","frog","gun","label","test","true"
"null","","audio-keyboard-response","423","2807470","0.0-13.0-3.92","a","12","Sounds/correct.wav","null","1","","","","","","",""
"null","","audio-keyboard-response","424","2808314","0.0-13.0-0.93","a","12","Sounds/cat_sound.wav","null","1","","","","","","",""
"null","","html-keyboard-response","425","2809314","0.0-13.0-1.93","a","12","<p style=""font-size: 48px;"">+</p>","null","1","","","","","","",""
"928.2749999985099","","image-keyboard-response","426","2810243","0.0-13.0-2.93","a","12","Images/gun_2.png","76","1","1581648638268","non-match","gun","cat","sound","test","true"
"null","","audio-keyboard-response","427","2812252","0.0-13.0-3.93","a","12","Sounds/correct.wav","null","1","","","","","","",""
"null","","audio-keyboard-response","428","2813374","0.0-13.0-0.94","a","12","Sounds/motorcycle_sound.wav","null","1","","","","","","",""
"null","","html-keyboard-response","429","2814364","0.0-13.0-1.94","a","12","<p style=""font-size: 48px;"">+</p>","null","1","","","","","","",""
"966.4300000006333","","image-keyboard-response","430","2815331","0.0-13.0-2.94","a","12","Images/whistle_3.png","76","1","1581648643318","non-match","whistle","motorcycle","sound","test","true"
"null","","audio-keyboard-response","431","2817337","0.0-13.0-3.94","a","12","Sounds/correct.wav","null","1","","","","","","",""
"null","","audio-keyboard-response","432","2818354","0.0-13.0-0.95","a","12","Sounds/cow_label.wav","null","1","","","","","","",""
"null","","html-keyboard-response","433","2819347","0.0-13.0-1.95","a","12","<p style=""font-size: 48px;"">+</p>","null","1","","","","","","",""
"1141.685000009369","","image-keyboard-response","434","2820491","0.0-13.0-2.95","a","12","Images/cow_1.png","65","1","1581648648301","match","cow","cow","label","test","true"
"null","","audio-keyboard-response","435","2822508","0.0-13.0-3.95","a","12","Sounds/correct.wav","null","1","","","","","","",""
"null","","audio-keyboard-response","436","2823214","0.0-13.0-0.96","a","12","Sounds/whistle_label.wav","null","1","","","","","","",""
"null","","html-keyboard-response","437","2824214","0.0-13.0-1.96","a","12","<p style=""font-size: 48px;"">+</p>","null","1","","","","","","",""
"564.2050000024028","","image-keyboard-response","438","2824779","0.0-13.0-2.96","a","12","Images/whistle_orig.png","65","1","1581648653168","match","whistle","whistle","label","test","true"
"null","","audio-keyboard-response","439","2826787","0.0-13.0-3.96","a","12","Sounds/correct.wav","null","1","","","","","","",""
"null","","audio-keyboard-response","440","2828074","0.0-13.0-0.97","a","12","Sounds/train_label.wav","null","1","","","","","","",""
"null","","html-keyboard-response","441","2829064","0.0-13.0-1.97","a","12","<p style=""font-size: 48px;"">+</p>","null","1","","","","","","",""
"794.2100000074133","","image-keyboard-response","442","2829859","0.0-13.0-2.97","a","12","Images/motorcycle_3.png","76","1","1581648658018","non-match","motorcycle","train","label","test","true"
"null","","audio-keyboard-response","443","2831868","0.0-13.0-3.97","a","12","Sounds/correct.wav","null","1","","","","","","",""
"null","","audio-keyboard-response","444","2833174","0.0-13.0-0.98","a","12","Sounds/train_sound.wav","null","1","","","","","","",""
"null","","html-keyboard-response","445","2834164","0.0-13.0-1.98","a","12","<p style=""font-size: 48px;"">+</p>","null","1","","","","","","",""
"637.2799999951385","","image-keyboard-response","446","2834803","0.0-13.0-2.98","a","12","Images/train_cartoon.png","65","1","1581648663118","match","train","train","sound","test","true"
"null","","audio-keyboard-response","447","2836819","0.0-13.0-3.98","a","12","Sounds/correct.wav","null","1","","","","","","",""
"null","","audio-keyboard-response","448","2837394","0.0-13.0-0.99","a","12","Sounds/gun_sound.wav","null","1","","","","","","",""
"null","","html-keyboard-response","449","2838398","0.0-13.0-1.99","a","12","<p style=""font-size: 48px;"">+</p>","null","1","","","","","","",""
"692.4799999981187","","image-keyboard-response","450","2839091","0.0-13.0-2.99","a","12","Images/rooster_3.png","76","1","1581648667351","non-match","rooster","gun","sound","test","true"
"null","","audio-keyboard-response","451","2841101","0.0-13.0-3.99","a","12","Sounds/correct.wav","null","1","","","","","","",""
"11341.629999995232","","html-keyboard-response","452","2852443","0.0-14.0","a","12","<p>Please take this opportunity to rest your eyes before proceeding.</p><p>When ready, press the enter key to continue to the next set of trials.</p>","32","","","","","","","",""
"null","","audio-keyboard-response","453","2855482","0.0-15.0-0.0","a","12","Sounds/cow_label.wav","null","2","","","","","","",""
"null","","html-keyboard-response","454","2856479","0.0-15.0-1.0","a","12","<p style=""font-size: 48px;"">+</p>","null","2","","","","","","",""
"673.6149999923073","","image-keyboard-response","455","2857154","0.0-15.0-2.0","a","12","Images/cow_3.png","76","2","1581648685434","match","cow","cow","label","test","false"
"null","","audio-keyboard-response","456","2859167","0.0-15.0-3.0","a","12","Sounds/incorrect.wav","null","2","","","","","","",""
"null","","audio-keyboard-response","457","2859743","0.0-15.0-0.1","a","12","Sounds/gun_sound.wav","null","2","","","","","","",""
"null","","html-keyboard-response","458","2860746","0.0-15.0-1.1","a","12","<p style=""font-size: 48px;"">+</p>","null","2","","","","","","",""
"1646.3399999924004","","image-keyboard-response","459","2862393","0.0-15.0-2.1","a","12","Images/gun_3.png","65","2","1581648689700","match","gun","gun","sound","test","true"
"null","","audio-keyboard-response","460","2864405","0.0-15.0-3.1","a","12","Sounds/correct.wav","null","2","","","","","","",""
"null","","audio-keyboard-response","461","2865483","0.0-15.0-0.2","a","12","Sounds/car_label.wav","null","2","","","","","","",""
"null","","html-keyboard-response","462","2866479","0.0-15.0-1.2","a","12","<p style=""font-size: 48px;"">+</p>","null","2","","","","","","",""
"1280.9250000137836","","image-keyboard-response","463","2867762","0.0-15.0-2.2","a","12","Images/car_cartoon.png","76","2","1581648695433","match","car","car","label","test","false"
"null","","audio-keyboard-response","464","2869771","0.0-15.0-3.2","a","12","Sounds/incorrect.wav","null","2","","","","","","",""
"null","","audio-keyboard-response","465","2870823","0.0-15.0-0.3","a","12","Sounds/car_label.wav","null","2","","","","","","",""
"null","","html-keyboard-response","466","2871813","0.0-15.0-1.3","a","12","<p style=""font-size: 48px;"">+</p>","null","2","","","","","","",""
"1107.5699999928474","","image-keyboard-response","467","2872921","0.0-15.0-2.3","a","12","Images/car_1.png","65","2","1581648700767","match","car","car","label","test","true"
"null","","audio-keyboard-response","468","2874933","0.0-15.0-3.3","a","12","Sounds/correct.wav","null","2","","","","","","",""
"null","","audio-keyboard-response","469","2875643","0.0-15.0-0.4","a","12","Sounds/dog_sound.wav","null","2","","","","","","",""
"null","","html-keyboard-response","470","2876646","0.0-15.0-1.4","a","12","<p style=""font-size: 48px;"">+</p>","null","2","","","","","","",""
"1450.3499999991618","","image-keyboard-response","471","2878098","0.0-15.0-2.4","a","12","Images/rooster_2.png","76","2","1581648705600","non-match","rooster","dog","sound","test","true"
"null","","audio-keyboard-response","472","2880104","0.0-15.0-3.4","a","12","Sounds/correct.wav","null","2","","","","","","",""
"null","","audio-keyboard-response","473","2880803","0.0-15.0-0.5","a","12","Sounds/rooster_label.wav","null","2","","","","","","",""
"null","","html-keyboard-response","474","2881796","0.0-15.0-1.5","a","12","<p style=""font-size: 48px;"">+</p>","null","2","","","","","","",""
"980.2099999943748","","image-keyboard-response","475","2882778","0.0-15.0-2.5","a","12","Images/rooster_orig.png","65","2","1581648710750","match","rooster","rooster","label","test","true"
"null","","audio-keyboard-response","476","2884789","0.0-15.0-3.5","a","12","Sounds/correct.wav","null","2","","","","","","",""
"null","","audio-keyboard-response","477","2885483","0.0-15.0-0.6","a","12","Sounds/dog_sound.wav","null","2","","","","","","",""
"null","","html-keyboard-response","478","2886480","0.0-15.0-1.6","a","12","<p style=""font-size: 48px;"">+</p>","null","2","","","","","","",""
"576.914999997709","","image-keyboard-response","479","2887058","0.0-15.0-2.6","a","12","Images/dog_orig.png","65","2","1581648715434","match","dog","dog","sound","test","true"
"null","","audio-keyboard-response","480","2889070","0.0-15.0-3.6","a","12","Sounds/correct.wav","null","2","","","","","","",""
"null","","audio-keyboard-response","481","2889763","0.0-15.0-0.7","a","12","Sounds/whistle_label.wav","null","2","","","","","","",""
"null","","html-keyboard-response","482","2890763","0.0-15.0-1.7","a","12","<p style=""font-size: 48px;"">+</p>","null","2","","","","","","",""
"549.8349999981001","","image-keyboard-response","483","2891314","0.0-15.0-2.7","a","12","Images/whistle_2.png","65","2","1581648719717","match","whistle","whistle","label","test","true"
"null","","audio-keyboard-response","484","2893320","0.0-15.0-3.7","a","12","Sounds/correct.wav","null","2","","","","","","",""
"null","","audio-keyboard-response","485","2894603","0.0-15.0-0.8","a","12","Sounds/train_label.wav","null","2","","","","","","",""
"null","","html-keyboard-response","486","2895596","0.0-15.0-1.8","a","12","<p style=""font-size: 48px;"">+</p>","null","2","","","","","","",""
"540.1249999995343","","image-keyboard-response","487","2896138","0.0-15.0-2.8","a","12","Images/train_orig.png","65","2","1581648724551","match","train","train","label","test","true"
"null","","audio-keyboard-response","488","2898150","0.0-15.0-3.8","a","12","Sounds/correct.wav","null","2","","","","","","",""
"null","","audio-keyboard-response","489","2898803","0.0-15.0-0.9","a","12","Sounds/dog_label.wav","null","2","","","","","","",""
"null","","html-keyboard-response","490","2899796","0.0-15.0-1.9","a","12","<p style=""font-size: 48px;"">+</p>","null","2","","","","","","",""
"891.9699999969453","","image-keyboard-response","491","2900689","0.0-15.0-2.9","a","12","Images/frog_1.png","76","2","1581648728751","non-match","frog","dog","label","test","true"
"null","","audio-keyboard-response","492","2902699","0.0-15.0-3.9","a","12","Sounds/correct.wav","null","2","","","","","","",""
"null","","audio-keyboard-response","493","2903603","0.0-15.0-0.10","a","12","Sounds/frog_sound.wav","null","2","","","","","","",""
"null","","html-keyboard-response","494","2904596","0.0-15.0-1.10","a","12","<p style=""font-size: 48px;"">+</p>","null","2","","","","","","",""
"820.5099999904633","","image-keyboard-response","495","2905418","0.0-15.0-2.10","a","12","Images/motorcycle_1.png","76","2","1581648733551","non-match","motorcycle","frog","sound","test","true"
"null","","audio-keyboard-response","496","2907434","0.0-15.0-3.10","a","12","Sounds/correct.wav","null","2","","","","","","",""
"null","","audio-keyboard-response","497","2908263","0.0-15.0-0.11","a","12","Sounds/cat_label.wav","null","2","","","","","","",""
"null","","html-keyboard-response","498","2909263","0.0-15.0-1.11","a","12","<p style=""font-size: 48px;"">+</p>","null","2","","","","","","",""
"745.4699999941513","","image-keyboard-response","499","2910010","0.0-15.0-2.11","a","12","Images/gun_3.png","76","2","1581648738217","non-match","gun","cat","label","test","true"
"null","","audio-keyboard-response","500","2912019","0.0-15.0-3.11","a","12","Sounds/correct.wav","null","2","","","","","","",""
"null","","audio-keyboard-response","501","2913103","0.0-15.0-0.12","a","12","Sounds/car_sound.wav","null","2","","","","","","",""
"null","","html-keyboard-response","502","2914097","0.0-15.0-1.12","a","12","<p style=""font-size: 48px;"">+</p>","null","2","","","","","","",""
"1239.9000000008382","","image-keyboard-response","503","2915336","0.0-15.0-2.12","a","12","Images/train_2.png","76","2","1581648743051","non-match","train","car","sound","test","true"
"null","","audio-keyboard-response","504","2917350","0.0-15.0-3.12","a","12","Sounds/correct.wav","null","2","","","","","","",""
"null","","audio-keyboard-response","505","2918041","0.0-15.0-0.13","a","12","Sounds/rooster_sound.wav","null","2","","","","","","",""
"null","","html-keyboard-response","506","2919045","0.0-15.0-1.13","a","12","<p style=""font-size: 48px;"">+</p>","null","2","","","","","","",""
"1106.0050000087358","","image-keyboard-response","507","2920152","0.0-15.0-2.13","a","12","Images/cat_3.png","76","2","1581648747999","non-match","cat","rooster","sound","test","true"
"null","","audio-keyboard-response","508","2922166","0.0-15.0-3.13","a","12","Sounds/correct.wav","null","2","","","","","","",""
"null","","audio-keyboard-response","509","2922841","0.0-15.0-0.14","a","12","Sounds/rooster_sound.wav","null","2","","","","","","",""
"null","","html-keyboard-response","510","2923845","0.0-15.0-1.14","a","12","<p style=""font-size: 48px;"">+</p>","null","2","","","","","","",""
"649.6100000077859","","image-keyboard-response","511","2924496","0.0-15.0-2.14","a","12","Images/frog_3.png","76","2","1581648752799","non-match","frog","rooster","sound","test","true"
"null","","audio-keyboard-response","512","2926501","0.0-15.0-3.14","a","12","Sounds/correct.wav","null","2","","","","","","",""
"null","","audio-keyboard-response","513","2927081","0.0-15.0-0.15","a","12","Sounds/gun_sound.wav","null","2","","","","","","",""
"null","","html-keyboard-response","514","2928079","0.0-15.0-1.15","a","12","<p style=""font-size: 48px;"">+</p>","null","2","","","","","","",""
"784.3099999879487","","image-keyboard-response","515","2928864","0.0-15.0-2.15","a","12","Images/gun_cartoon.png","65","2","1581648757033","match","gun","gun","sound","test","true"
"null","","audio-keyboard-response","516","2930869","0.0-15.0-3.15","a","12","Sounds/correct.wav","null","2","","","","","","",""
"null","","audio-keyboard-response","517","2931701","0.0-15.0-0.16","a","12","Sounds/cat_sound.wav","null","2","","","","","","",""
"null","","html-keyboard-response","518","2932695","0.0-15.0-1.16","a","12","<p style=""font-size: 48px;"">+</p>","null","2","","","","","","",""
"535.8700000070967","","image-keyboard-response","519","2933232","0.0-15.0-2.16","a","12","Images/cat_3.png","76","2","1581648761650","match","cat","cat","sound","test","false"
"null","","audio-keyboard-response","520","2935236","0.0-15.0-3.16","a","12","Sounds/incorrect.wav","null","2","","","","","","",""
"null","","audio-keyboard-response","521","2936141","0.0-15.0-0.17","a","12","Sounds/frog_sound.wav","null","2","","","","","","",""
"null","","html-keyboard-response","522","2937146","0.0-15.0-1.17","a","12","<p style=""font-size: 48px;"">+</p>","null","2","","","","","","",""
"1021.6149999904446","","image-keyboard-response","523","2938168","0.0-15.0-2.17","a","12","Images/gun_orig.png","76","2","1581648766099","non-match","gun","frog","sound","test","true"
"null","","audio-keyboard-response","524","2940183","0.0-15.0-3.17","a","12","Sounds/correct.wav","null","2","","","","","","",""
"null","","audio-keyboard-response","525","2941081","0.0-15.0-0.18","a","12","Sounds/frog_label.wav","null","2","","","","","","",""
"null","","html-keyboard-response","526","2942079","0.0-15.0-1.18","a","12","<p style=""font-size: 48px;"">+</p>","null","2","","","","","","",""
"743.0150000001304","","image-keyboard-response","527","2942824","0.0-15.0-2.18","a","12","Images/rooster_orig.png","76","2","1581648771033","non-match","rooster","frog","label","test","true"
"null","","audio-keyboard-response","528","2944832","0.0-15.0-3.18","a","12","Sounds/correct.wav","null","2","","","","","","",""
"null","","audio-keyboard-response","529","2945921","0.0-15.0-0.19","a","12","Sounds/car_label.wav","null","2","","","","","","",""
"null","","html-keyboard-response","530","2946912","0.0-15.0-1.19","a","12","<p style=""font-size: 48px;"">+</p>","null","2","","","","","","",""
"719.1949999979697","","image-keyboard-response","531","2947632","0.0-15.0-2.19","a","12","Images/cow_cartoon.png","76","2","1581648775866","non-match","cow","car","label","test","true"
"null","","audio-keyboard-response","532","2949650","0.0-15.0-3.19","a","12","Sounds/correct.wav","null","2","","","","","","",""
"null","","audio-keyboard-response","533","2950341","0.0-15.0-0.20","a","12","Sounds/rooster_sound.wav","null","2","","","","","","",""
"null","","html-keyboard-response","534","2951346","0.0-15.0-1.20","a","12","<p style=""font-size: 48px;"">+</p>","null","2","","","","","","",""
"1253.44499999471","","image-keyboard-response","535","2952600","0.0-15.0-2.20","a","12","Images/rooster_2.png","65","2","1581648780300","match","rooster","rooster","sound","test","true"
"null","","audio-keyboard-response","536","2954618","0.0-15.0-3.20","a","12","Sounds/correct.wav","null","2","","","","","","",""
"null","","audio-keyboard-response","537","2955641","0.0-15.0-0.21","a","12","Sounds/cow_sound.wav","null","2","","","","","","",""
"null","","html-keyboard-response","538","2956646","0.0-15.0-1.21","a","12","<p style=""font-size: 48px;"">+</p>","null","2","","","","","","",""
"849.4299999871291","","image-keyboard-response","539","2957496","0.0-15.0-2.21","a","12","Images/rooster_cartoon.png","76","2","1581648785600","non-match","rooster","cow","sound","test","true"
"null","","audio-keyboard-response","540","2959501","0.0-15.0-3.21","a","12","Sounds/correct.wav","null","2","","","","","","",""
"null","","audio-keyboard-response","541","2960621","0.0-15.0-0.22","a","12","Sounds/motorcycle_sound.wav","null","2","","","","","","",""
"null","","html-keyboard-response","542","2961612","0.0-15.0-1.22","a","12","<p style=""font-size: 48px;"">+</p>","null","2","","","","","","",""
"1218.8650000025518","","image-keyboard-response","543","2962832","0.0-15.0-2.22","a","12","Images/whistle_2.png","76","2","1581648790566","non-match","whistle","motorcycle","sound","test","true"
"null","","audio-keyboard-response","544","2964834","0.0-15.0-3.22","a","12","Sounds/correct.wav","null","2","","","","","","",""
"null","","audio-keyboard-response","545","2965921","0.0-15.0-0.23","a","12","Sounds/car_sound.wav","null","2","","","","","","",""
"null","","html-keyboard-response","546","2966912","0.0-15.0-1.23","a","12","<p style=""font-size: 48px;"">+</p>","null","2","","","","","","",""
"1614.7449999991804","","image-keyboard-response","547","2968528","0.0-15.0-2.23","a","12","Images/car_3.png","65","2","1581648795866","match","car","car","sound","test","true"
"null","","audio-keyboard-response","548","2970536","0.0-15.0-3.23","a","12","Sounds/correct.wav","null","2","","","","","","",""
"null","","audio-keyboard-response","549","2971581","0.0-15.0-0.24","a","12","Sounds/car_sound.wav","null","2","","","","","","",""
"null","","html-keyboard-response","550","2972579","0.0-15.0-1.24","a","12","<p style=""font-size: 48px;"">+</p>","null","2","","","","","","",""
"524.169999989681","","image-keyboard-response","551","2973104","0.0-15.0-2.24","a","12","Images/cat_1.png","76","2","1581648801533","non-match","cat","car","sound","test","true"
"null","","audio-keyboard-response","552","2975117","0.0-15.0-3.24","a","12","Sounds/correct.wav","null","2","","","","","","",""
"null","","audio-keyboard-response","553","2975779","0.0-15.0-0.25","a","12","Sounds/dog_label.wav","null","2","","","","","","",""
"null","","html-keyboard-response","554","2976777","0.0-15.0-1.25","a","12","<p style=""font-size: 48px;"">+</p>","null","2","","","","","","",""
"987.7950000083074","","image-keyboard-response","555","2977766","0.0-15.0-2.25","a","12","Images/dog_1.png","65","2","1581648805731","match","dog","dog","label","test","true"
"null","","audio-keyboard-response","556","2979783","0.0-15.0-3.25","a","12","Sounds/correct.wav","null","2","","","","","","",""
"null","","audio-keyboard-response","557","2980799","0.0-15.0-0.26","a","12","Sounds/cow_sound.wav","null","2","","","","","","",""
"null","","html-keyboard-response","558","2981794","0.0-15.0-1.26","a","12","<p style=""font-size: 48px;"">+</p>","null","2","","","","","","",""
"1131.215000001248","","image-keyboard-response","559","2982926","0.0-15.0-2.26","a","12","Images/cat_2.png","76","2","1581648810748","non-match","cat","cow","sound","test","true"
"null","","audio-keyboard-response","560","2984934","0.0-15.0-3.26","a","12","Sounds/correct.wav","null","2","","","","","","",""
"null","","audio-keyboard-response","561","2985640","0.0-15.0-0.27","a","12","Sounds/whistle_label.wav","null","2","","","","","","",""
"null","","html-keyboard-response","562","2986644","0.0-15.0-1.27","a","12","<p style=""font-size: 48px;"">+</p>","null","2","","","","","","",""
"760.6499999966472","","image-keyboard-response","563","2987406","0.0-15.0-2.27","a","12","Images/whistle_1.png","65","2","1581648815598","match","whistle","whistle","label","test","true"
"null","","audio-keyboard-response","564","2989414","0.0-15.0-3.27","a","12","Sounds/correct.wav","null","2","","","","","","",""
"null","","audio-keyboard-response","565","2990119","0.0-15.0-0.28","a","12","Sounds/rooster_label.wav","null","2","","","","","","",""
"null","","html-keyboard-response","566","2991111","0.0-15.0-1.28","a","12","<p style=""font-size: 48px;"">+</p>","null","2","","","","","","",""
"934.6749999965541","","image-keyboard-response","567","2992046","0.0-15.0-2.28","a","12","Images/rooster_1.png","65","2","1581648820065","match","rooster","rooster","label","test","true"
"null","","audio-keyboard-response","568","2994064","0.0-15.0-3.28","a","12","Sounds/correct.wav","null","2","","","","","","",""
"null","","audio-keyboard-response","569","2994779","0.0-15.0-0.29","a","12","Sounds/dog_sound.wav","null","2","","","","","","",""
"null","","html-keyboard-response","570","2995777","0.0-15.0-1.29","a","12","<p style=""font-size: 48px;"">+</p>","null","2","","","","","","",""
"547.7249999968335","","image-keyboard-response","571","2996326","0.0-15.0-2.29","a","12","Images/motorcycle_3.png","76","2","1581648824732","non-match","motorcycle","dog","sound","test","true"
"null","","audio-keyboard-response","572","2998336","0.0-15.0-3.29","a","12","Sounds/correct.wav","null","2","","","","","","",""
"null","","audio-keyboard-response","573","2999239","0.0-15.0-0.30","a","12","Sounds/frog_sound.wav","null","2","","","","","","",""
"null","","html-keyboard-response","574","3000244","0.0-15.0-1.30","a","12","<p style=""font-size: 48px;"">+</p>","null","2","","","","","","",""
"801.0400000060908","","image-keyboard-response","575","3001046","0.0-15.0-2.30","a","12","Images/frog_1.png","65","2","1581648829198","match","frog","frog","sound","test","true"
"null","","audio-keyboard-response","576","3003051","0.0-15.0-3.30","a","12","Sounds/correct.wav","null","2","","","","","","",""
"null","","audio-keyboard-response","577","3003759","0.0-15.0-0.31","a","12","Sounds/rooster_sound.wav","null","2","","","","","","",""
"null","","html-keyboard-response","578","3004778","0.0-15.0-1.31","a","12","<p style=""font-size: 48px;"">+</p>","null","2","","","","","","",""
"531.4950000029057","","image-keyboard-response","579","3005310","0.0-15.0-2.31","a","12","Images/rooster_3.png","65","2","1581648833732","match","rooster","rooster","sound","test","true"
"null","","audio-keyboard-response","580","3007316","0.0-15.0-3.31","a","12","Sounds/correct.wav","null","2","","","","","","",""
"null","","audio-keyboard-response","581","3008439","0.0-15.0-0.32","a","12","Sounds/motorcycle_sound.wav","null","2","","","","","","",""
"null","","html-keyboard-response","582","3009445","0.0-15.0-1.32","a","12","<p style=""font-size: 48px;"">+</p>","null","2","","","","","","",""
"536.8749999906868","","image-keyboard-response","583","3009982","0.0-15.0-2.32","a","12","Images/cat_cartoon.png","76","2","1581648838398","non-match","cat","motorcycle","sound","test","true"
"null","","audio-keyboard-response","584","3011985","0.0-15.0-3.32","a","12","Sounds/correct.wav","null","2","","","","","","",""
"null","","audio-keyboard-response","585","3013279","0.0-15.0-0.33","a","12","Sounds/train_sound.wav","null","2","","","","","","",""
"null","","html-keyboard-response","586","3014278","0.0-15.0-1.33","a","12","<p style=""font-size: 48px;"">+</p>","null","2","","","","","","",""
"487.80499999737367","","image-keyboard-response","587","3014767","0.0-15.0-2.33","a","12","Images/train_1.png","65","2","1581648843232","match","train","train","sound","test","true"
"null","","audio-keyboard-response","588","3016783","0.0-15.0-3.33","a","12","Sounds/correct.wav","null","2","","","","","","",""
"null","","audio-keyboard-response","589","3017699","0.0-15.0-0.34","a","12","Sounds/frog_sound.wav","null","2","","","","","","",""
"null","","html-keyboard-response","590","3018694","0.0-15.0-1.34","a","12","<p style=""font-size: 48px;"">+</p>","null","2","","","","","","",""
"686.8450000034645","","image-keyboard-response","591","3019382","0.0-15.0-2.34","a","12","Images/frog_2.png","65","2","1581648847648","match","frog","frog","sound","test","true"
"null","","audio-keyboard-response","592","3021399","0.0-15.0-3.34","a","12","Sounds/correct.wav","null","2","","","","","","",""
"null","","audio-keyboard-response","593","3022680","0.0-15.0-0.35","a","12","Sounds/train_label.wav","null","2","","","","","","",""
"null","","html-keyboard-response","594","3023678","0.0-15.0-1.35","a","12","<p style=""font-size: 48px;"">+</p>","null","2","","","","","","",""
"527.39000000339","","image-keyboard-response","595","3024206","0.0-15.0-2.35","a","12","Images/rooster_1.png","76","2","1581648852632","non-match","rooster","train","label","test","true"
"null","","audio-keyboard-response","596","3026214","0.0-15.0-3.35","a","12","Sounds/correct.wav","null","2","","","","","","",""
"null","","audio-keyboard-response","597","3026799","0.0-15.0-0.36","a","12","Sounds/gun_label.wav","null","2","","","","","","",""
"null","","html-keyboard-response","598","3027795","0.0-15.0-1.36","a","12","<p style=""font-size: 48px;"">+</p>","null","2","","","","","","",""
"537.4050000105053","","image-keyboard-response","599","3028334","0.0-15.0-2.36","a","12","Images/gun_1.png","65","2","1581648856749","match","gun","gun","label","test","true"
"null","","audio-keyboard-response","600","3030349","0.0-15.0-3.36","a","12","Sounds/correct.wav","null","2","","","","","","",""
"null","","audio-keyboard-response","601","3031360","0.0-15.0-0.37","a","12","Sounds/cow_label.wav","null","2","","","","","","",""
"null","","html-keyboard-response","602","3032378","0.0-15.0-1.37","a","12","<p style=""font-size: 48px;"">+</p>","null","2","","","","","","",""
"939.2800000063144","","image-keyboard-response","603","3033318","0.0-15.0-2.37","a","12","Images/motorcycle_orig.png","76","2","1581648861332","non-match","motorcycle","cow","label","test","true"
"null","","audio-keyboard-response","604","3035333","0.0-15.0-3.37","a","12","Sounds/correct.wav","null","2","","","","","","",""
"null","","audio-keyboard-response","605","3035919","0.0-15.0-0.38","a","12","Sounds/gun_sound.wav","null","2","","","","","","",""
"null","","html-keyboard-response","606","3036911","0.0-15.0-1.38","a","12","<p style=""font-size: 48px;"">+</p>","null","2","","","","","","",""
"669.8599999947473","","image-keyboard-response","607","3037582","0.0-15.0-2.38","a","12","Images/motorcycle_cartoon.png","76","2","1581648865865","non-match","motorcycle","gun","sound","test","true"
"null","","audio-keyboard-response","608","3039587","0.0-15.0-3.38","a","12","Sounds/correct.wav","null","2","","","","","","",""
"null","","audio-keyboard-response","609","3040279","0.0-15.0-0.39","a","12","Sounds/rooster_sound.wav","null","2","","","","","","",""
"null","","html-keyboard-response","610","3041277","0.0-15.0-1.39","a","12","<p style=""font-size: 48px;"">+</p>","null","2","","","","","","",""
"1175.4000000073574","","image-keyboard-response","611","3042454","0.0-15.0-2.39","a","12","Images/whistle_orig.png","76","2","1581648870231","non-match","whistle","rooster","sound","test","true"
"null","","audio-keyboard-response","612","3044467","0.0-15.0-3.39","a","12","Sounds/correct.wav","null","2","","","","","","",""
"null","","audio-keyboard-response","613","3045299","0.0-15.0-0.40","a","12","Sounds/cat_label.wav","null","2","","","","","","",""
"null","","html-keyboard-response","614","3046294","0.0-15.0-1.40","a","12","<p style=""font-size: 48px;"">+</p>","null","2","","","","","","",""
"974.5600000023842","","image-keyboard-response","615","3047270","0.0-15.0-2.40","a","12","Images/cat_2.png","65","2","1581648875248","match","cat","cat","label","test","true"
"null","","audio-keyboard-response","616","3049282","0.0-15.0-3.40","a","12","Sounds/correct.wav","null","2","","","","","","",""
"null","","audio-keyboard-response","617","3049979","0.0-15.0-0.41","a","12","Sounds/whistle_sound.wav","null","2","","","","","","",""
"null","","html-keyboard-response","618","3050978","0.0-15.0-1.41","a","12","<p style=""font-size: 48px;"">+</p>","null","2","","","","","","",""
"874.2050000000745","","image-keyboard-response","619","3051854","0.0-15.0-2.41","a","12","Images/whistle_cartoon.png","65","2","1581648879931","match","whistle","whistle","sound","test","true"
"null","","audio-keyboard-response","620","3053864","0.0-15.0-3.41","a","12","Sounds/correct.wav","null","2","","","","","","",""
"null","","audio-keyboard-response","621","3054559","0.0-15.0-0.42","a","12","Sounds/whistle_label.wav","null","2","","","","","","",""
"null","","html-keyboard-response","622","3055561","0.0-15.0-1.42","a","12","<p style=""font-size: 48px;"">+</p>","null","2","","","","","","",""
"1643.9749999986961","","image-keyboard-response","623","3057206","0.0-15.0-2.42","a","12","Images/car_cartoon.png","76","2","1581648884515","non-match","car","whistle","label","test","true"
"null","","audio-keyboard-response","624","3059216","0.0-15.0-3.42","a","12","Sounds/correct.wav","null","2","","","","","","",""
"null","","audio-keyboard-response","625","3060239","0.0-15.0-0.43","a","12","Sounds/cow_label.wav","null","2","","","","","","",""
"null","","html-keyboard-response","626","3061244","0.0-15.0-1.43","a","12","<p style=""font-size: 48px;"">+</p>","null","2","","","","","","",""
"664.2449999926612","","image-keyboard-response","627","3061910","0.0-15.0-2.43","a","12","Images/cow_2.png","65","2","1581648890198","match","cow","cow","label","test","true"
"null","","audio-keyboard-response","628","3063917","0.0-15.0-3.43","a","12","Sounds/correct.wav","null","2","","","","","","",""
"null","","audio-keyboard-response","629","3065039","0.0-15.0-0.44","a","12","Sounds/motorcycle_sound.wav","null","2","","","","","","",""
"null","","html-keyboard-response","630","3066044","0.0-15.0-1.44","a","12","<p style=""font-size: 48px;"">+</p>","null","2","","","","","","",""
"824.0200000000186","","image-keyboard-response","631","3066870","0.0-15.0-2.44","a","12","Images/motorcycle_1.png","65","2","1581648894998","match","motorcycle","motorcycle","sound","test","true"
"null","","audio-keyboard-response","632","3068881","0.0-15.0-3.44","a","12","Sounds/correct.wav","null","2","","","","","","",""
"null","","audio-keyboard-response","633","3069979","0.0-15.0-0.45","a","12","Sounds/motorcycle_sound.wav","null","2","","","","","","",""
"null","","html-keyboard-response","634","3070978","0.0-15.0-1.45","a","12","<p style=""font-size: 48px;"">+</p>","null","2","","","","","","",""
"530.8300000028685","","image-keyboard-response","635","3071510","0.0-15.0-2.45","a","12","Images/frog_2.png","76","2","1581648899932","non-match","frog","motorcycle","sound","test","true"
"null","","audio-keyboard-response","636","3073517","0.0-15.0-3.45","a","12","Sounds/correct.wav","null","2","","","","","","",""
"null","","audio-keyboard-response","637","3074519","0.0-15.0-0.46","a","12","Sounds/cow_label.wav","null","2","","","","","","",""
"null","","html-keyboard-response","638","3075511","0.0-15.0-1.46","a","12","<p style=""font-size: 48px;"">+</p>","null","2","","","","","","",""
"1293.4499999973923","","image-keyboard-response","639","3076806","0.0-15.0-2.46","a","12","Images/gun_cartoon.png","76","2","1581648904465","non-match","gun","cow","label","test","true"
"null","","audio-keyboard-response","640","3078817","0.0-15.0-3.46","a","12","Sounds/correct.wav","null","2","","","","","","",""
"null","","audio-keyboard-response","641","3079719","0.0-15.0-0.47","a","12","Sounds/frog_label.wav","null","2","","","","","","",""
"null","","html-keyboard-response","642","3080711","0.0-15.0-1.47","a","12","<p style=""font-size: 48px;"">+</p>","null","2","","","","","","",""
"589.4799999953248","","image-keyboard-response","643","3081302","0.0-15.0-2.47","a","12","Images/car_2.png","76","2","1581648909665","non-match","car","frog","label","test","true"
"null","","audio-keyboard-response","644","3083317","0.0-15.0-3.47","a","12","Sounds/correct.wav","null","2","","","","","","",""
"null","","audio-keyboard-response","645","3084599","0.0-15.0-0.48","a","12","Sounds/train_label.wav","null","2","","","","","","",""
"null","","html-keyboard-response","646","3085594","0.0-15.0-1.48","a","12","<p style=""font-size: 48px;"">+</p>","null","2","","","","","","",""
"1098.285000000149","","image-keyboard-response","647","3086694","0.0-15.0-2.48","a","12","Images/whistle_3.png","76","2","1581648914549","non-match","whistle","train","label","test","true"
"null","","audio-keyboard-response","648","3088696","0.0-15.0-3.48","a","12","Sounds/correct.wav","null","2","","","","","","",""
"null","","audio-keyboard-response","649","3089939","0.0-15.0-0.49","a","12","Sounds/train_label.wav","null","2","","","","","","",""
"null","","html-keyboard-response","650","3090945","0.0-15.0-1.49","a","12","<p style=""font-size: 48px;"">+</p>","null","2","","","","","","",""
"570.5699999961071","","image-keyboard-response","651","3091518","0.0-15.0-2.49","a","12","Images/train_cartoon.png","65","2","1581648919899","match","train","train","label","test","true"
"null","","audio-keyboard-response","652","3093534","0.0-15.0-3.49","a","12","Sounds/correct.wav","null","2","","","","","","",""
"null","","audio-keyboard-response","653","3094239","0.0-15.0-0.50","a","12","Sounds/whistle_label.wav","null","2","","","","","","",""
"null","","html-keyboard-response","654","3095228","0.0-15.0-1.50","a","12","<p style=""font-size: 48px;"">+</p>","null","2","","","","","","",""
"1167.4350000103004","","image-keyboard-response","655","3096398","0.0-15.0-2.50","a","12","Images/frog_orig.png","76","2","1581648924182","non-match","frog","whistle","label","test","true"
"null","","audio-keyboard-response","656","3098415","0.0-15.0-3.50","a","12","Sounds/correct.wav","null","2","","","","","","",""
