"rt","responses","trial_type","trial_index","time_elapsed","internal_node_id","match_key","participant_id","stimulus","key_press","block","stim_onset","match_type","image_category","sound_category","audio_type","phase","correct"
"37232.11500002071","{""Q0"":""09""}","survey-text","0","37260","0.0-0.0","l","09","","","","","","","","","",""
"82775.71499999613","","html-keyboard-response","1","120090","0.0-1.0","l","09","<p>Use KEYBOARD 1 (match RIGHT)</p><p>Press MATCH to continue.</p>","76","","","","","","","",""
"3507231.1100000516","","html-keyboard-response","2","3627879","0.0-2.0","l","09","<p>Welcome to the experiment.</p>","13","","","","","","","",""
"5371.610000031069","","html-keyboard-response","3","3633253","0.0-3.0","l","09","<p>Thank you for agreeing to participate in this study.</p><p>If during any part of the procedure you must stop for any reason, please inform the researcher that you do not wish to continue.</p>","13","","","","","","","",""
"25423.760000034235","","html-keyboard-response","4","3658664","0.0-4.0","l","09","<p>In this experiment, you will hear various words or sounds and see pictures of various animals and objects.</p><p>Most of the images will be of common everyday objects, such as cars, cats, cows, firearms, frogs, chickens, whistles, trains, motorcycles, and dogs.</p><p>Some of the images will be real-life stills, while others will be cartoons.</p>","13","","","","","","","",""
"12783.060000045225","","html-keyboard-response","5","3671448","0.0-5.0","l","09","<p>Sometimes, the word/sound will match the picture, for example you'll hear a meowing sound and see a cat.</p><p>Other times, the picture will not match the sound or word.</p><p>Your task is to decide as quickly as possible if the word/sound matches the picture or not. </p>","13","","","","","","","",""
"11071.28500007093","","html-keyboard-response","6","3682520","0.0-6.0","l","09","<p>For example, if you hear the word ""cat"" or hear a meowing sound, and then see a picture of a cat, you should press the MATCH key.</p><p> If the sound and image do not match, press the NOT-MATCH key to indicate that there is not a match.</p>","13","","","","","","","",""
"12879.315000027418","","html-keyboard-response","7","3695400","0.0-7.0","l","09","<p>If you make a mistake, you will hear a buzzing sound instead of a more pleasant sound.</p><p> Try to respond as quickly as possible, while making as few errors as possible. If you are making mistakes, you are probably rushing.</p>","13","","","","","","","",""
"11055.415000068024","","html-keyboard-response","8","3706456","0.0-8.0","l","09","<p>Please try to not move or blink your eyes during the presentation of the images. You can move and blink between images.</p><p>During the experiment there will be some breaks during which you can rest your eyes.</p>","13","","","","","","","",""
"49279.5150000602","","html-keyboard-response","9","3755750","0.0-9.0","l","09","<p>We will begin with 10 practice trials. Please let the experimenter know if you have any questions.</p>","13","","","","","","","",""
"null","","audio-keyboard-response","10","3757271","0.0-10.0-0.0","l","09","Sounds/car_label.wav","null","0","","","","","","",""
"null","","html-keyboard-response","11","3758264","0.0-10.0-1.0","l","09","<p style=""font-size: 48px;"">+</p>","null","0","","","","","","",""
"1563.495000009425","","image-keyboard-response","12","3759830","0.0-10.0-2.0","l","09","Images/cat_3.png","65","0","1581556543167","non-match","cat","car","label","practice","true"
"null","","audio-keyboard-response","13","3761842","0.0-10.0-3.0","l","09","Sounds/correct.wav","null","0","","","","","","",""
"null","","audio-keyboard-response","14","3762550","0.0-10.0-0.1","l","09","Sounds/rooster_label.wav","null","0","","","","","","",""
"null","","html-keyboard-response","15","3763547","0.0-10.0-1.1","l","09","<p style=""font-size: 48px;"">+</p>","null","0","","","","","","",""
"552.809999906458","","image-keyboard-response","16","3764101","0.0-10.0-2.1","l","09","Images/rooster_3.png","76","0","1581556548450","match","rooster","rooster","label","practice","true"
"null","","audio-keyboard-response","17","3766118","0.0-10.0-3.1","l","09","Sounds/correct.wav","null","0","","","","","","",""
"null","","audio-keyboard-response","18","3766810","0.0-10.0-0.2","l","09","Sounds/whistle_sound.wav","null","0","","","","","","",""
"null","","html-keyboard-response","19","3767814","0.0-10.0-1.2","l","09","<p style=""font-size: 48px;"">+</p>","null","0","","","","","","",""
"1038.3649999275804","","image-keyboard-response","20","3768853","0.0-10.0-2.2","l","09","Images/cat_1.png","65","0","1581556552717","non-match","cat","whistle","sound","practice","true"
"null","","audio-keyboard-response","21","3770870","0.0-10.0-3.2","l","09","Sounds/correct.wav","null","0","","","","","","",""
"null","","audio-keyboard-response","22","3771570","0.0-10.0-0.3","l","09","Sounds/whistle_label.wav","null","0","","","","","","",""
"null","","html-keyboard-response","23","3772564","0.0-10.0-1.3","l","09","<p style=""font-size: 48px;"">+</p>","null","0","","","","","","",""
"480.16500007361174","","image-keyboard-response","24","3773045","0.0-10.0-2.3","l","09","Images/whistle_1.png","76","0","1581556557467","match","whistle","whistle","label","practice","true"
"null","","audio-keyboard-response","25","3775052","0.0-10.0-3.3","l","09","Sounds/correct.wav","null","0","","","","","","",""
"null","","audio-keyboard-response","26","3775970","0.0-10.0-0.4","l","09","Sounds/frog_sound.wav","null","0","","","","","","",""
"null","","html-keyboard-response","27","3776964","0.0-10.0-1.4","l","09","<p style=""font-size: 48px;"">+</p>","null","0","","","","","","",""
"720.2700000489131","","image-keyboard-response","28","3777685","0.0-10.0-2.4","l","09","Images/frog_cartoon.png","76","0","1581556561867","match","frog","frog","sound","practice","true"
"null","","audio-keyboard-response","29","3779701","0.0-10.0-3.4","l","09","Sounds/correct.wav","null","0","","","","","","",""
"null","","audio-keyboard-response","30","3780410","0.0-10.0-0.5","l","09","Sounds/dog_sound.wav","null","0","","","","","","",""
"null","","html-keyboard-response","31","3781414","0.0-10.0-1.5","l","09","<p style=""font-size: 48px;"">+</p>","null","0","","","","","","",""
"782.6049999566749","","image-keyboard-response","32","3782198","0.0-10.0-2.5","l","09","Images/cow_orig.png","65","0","1581556566317","non-match","cow","dog","sound","practice","true"
"null","","audio-keyboard-response","33","3784202","0.0-10.0-3.5","l","09","Sounds/correct.wav","null","0","","","","","","",""
"null","","audio-keyboard-response","34","3784790","0.0-10.0-0.6","l","09","Sounds/gun_label.wav","null","0","","","","","","",""
"null","","html-keyboard-response","35","3785781","0.0-10.0-1.6","l","09","<p style=""font-size: 48px;"">+</p>","null","0","","","","","","",""
"767.4699999624863","","image-keyboard-response","36","3786549","0.0-10.0-2.6","l","09","Images/rooster_3.png","65","0","1581556570684","non-match","rooster","gun","label","practice","true"
"null","","audio-keyboard-response","37","3788553","0.0-10.0-3.6","l","09","Sounds/correct.wav","null","0","","","","","","",""
"null","","audio-keyboard-response","38","3789570","0.0-10.0-0.7","l","09","Sounds/cow_sound.wav","null","0","","","","","","",""
"null","","html-keyboard-response","39","3790564","0.0-10.0-1.7","l","09","<p style=""font-size: 48px;"">+</p>","null","0","","","","","","",""
"784.0050000231713","","image-keyboard-response","40","3791349","0.0-10.0-2.7","l","09","Images/cow_orig.png","76","0","1581556575467","match","cow","cow","sound","practice","true"
"null","","audio-keyboard-response","41","3793353","0.0-10.0-3.7","l","09","Sounds/correct.wav","null","0","","","","","","",""
"null","","audio-keyboard-response","42","3794430","0.0-10.0-0.8","l","09","Sounds/car_label.wav","null","0","","","","","","",""
"null","","html-keyboard-response","43","3795431","0.0-10.0-1.8","l","09","<p style=""font-size: 48px;"">+</p>","null","0","","","","","","",""
"973.8600000273436","","image-keyboard-response","44","3796406","0.0-10.0-2.8","l","09","Images/motorcycle_3.png","65","0","1581556580334","non-match","motorcycle","car","label","practice","true"
"null","","audio-keyboard-response","45","3798419","0.0-10.0-3.8","l","09","Sounds/correct.wav","null","0","","","","","","",""
"null","","audio-keyboard-response","46","3799251","0.0-10.0-0.9","l","09","Sounds/cat_sound.wav","null","0","","","","","","",""
"null","","html-keyboard-response","47","3800249","0.0-10.0-1.9","l","09","<p style=""font-size: 48px;"">+</p>","null","0","","","","","","",""
"700.6599999731407","","image-keyboard-response","48","3800951","0.0-10.0-2.9","l","09","Images/dog_1.png","65","0","1581556585152","non-match","dog","cat","sound","practice","true"
"null","","audio-keyboard-response","49","3802956","0.0-10.0-3.9","l","09","Sounds/correct.wav","null","0","","","","","","",""
"72458.34000001196","","html-keyboard-response","50","3875414","0.0-11.0","l","09","<p>The rest of the experiment is divided into five blocks with 100 trials in each block. It will take about 45 minutes to complete.</p><p>The experimenter will be in the outer room and you can communicate with them through the monitor if you have any questions or wish to stop the experiment.</p>","13","","","","","","","",""
"23743.305000010878","","html-keyboard-response","51","3899159","0.0-12.0","l","09","<p>Remember, please try not to move or blink your eyes during the presentation of the images. </p><p>At the end of the experiment, we will show you your scores on the task so you can see how you did.</p><p>The experiment will start on the next screen.</p>","13","","","","","","","",""
"null","","audio-keyboard-response","52","3901874","0.0-13.0-0.0","l","09","Sounds/whistle_label.wav","null","1","","","","","","",""
"null","","html-keyboard-response","53","3902866","0.0-13.0-1.0","l","09","<p style=""font-size: 48px;"">+</p>","null","1","","","","","","",""
"514.7600000491366","","image-keyboard-response","54","3903382","0.0-13.0-2.0","l","09","Images/whistle_2.png","76","1","1581556687769","match","whistle","whistle","label","test","true"
"null","","audio-keyboard-response","55","3905389","0.0-13.0-3.0","l","09","Sounds/correct.wav","null","1","","","","","","",""
"null","","audio-keyboard-response","56","3906416","0.0-13.0-0.1","l","09","Sounds/cow_label.wav","null","1","","","","","","",""
"null","","html-keyboard-response","57","3907416","0.0-13.0-1.1","l","09","<p style=""font-size: 48px;"">+</p>","null","1","","","","","","",""
"525.0800000503659","","image-keyboard-response","58","3907942","0.0-13.0-2.1","l","09","Images/motorcycle_3.png","65","1","1581556692319","non-match","motorcycle","cow","label","test","true"
"null","","audio-keyboard-response","59","3909953","0.0-13.0-3.1","l","09","Sounds/correct.wav","null","1","","","","","","",""
"null","","audio-keyboard-response","60","3910654","0.0-13.0-0.2","l","09","Sounds/rooster_label.wav","null","1","","","","","","",""
"null","","html-keyboard-response","61","3911650","0.0-13.0-1.2","l","09","<p style=""font-size: 48px;"">+</p>","null","1","","","","","","",""
"579.5749999815598","","image-keyboard-response","62","3912230","0.0-13.0-2.2","l","09","Images/car_3.png","65","1","1581556696553","non-match","car","rooster","label","test","true"
"null","","audio-keyboard-response","63","3914240","0.0-13.0-3.2","l","09","Sounds/correct.wav","null","1","","","","","","",""
"null","","audio-keyboard-response","64","3914914","0.0-13.0-0.3","l","09","Sounds/rooster_label.wav","null","1","","","","","","",""
"null","","html-keyboard-response","65","3915916","0.0-13.0-1.3","l","09","<p style=""font-size: 48px;"">+</p>","null","1","","","","","","",""
"376.7500000540167","","image-keyboard-response","66","3916294","0.0-13.0-2.3","l","09","Images/rooster_1.png","76","1","1581556700820","match","rooster","rooster","label","test","true"
"null","","audio-keyboard-response","67","3918304","0.0-13.0-3.3","l","09","Sounds/correct.wav","null","1","","","","","","",""
"null","","audio-keyboard-response","68","3919214","0.0-13.0-0.4","l","09","Sounds/frog_sound.wav","null","1","","","","","","",""
"null","","html-keyboard-response","69","3920216","0.0-13.0-1.4","l","09","<p style=""font-size: 48px;"">+</p>","null","1","","","","","","",""
"860.9949999954551","","image-keyboard-response","70","3921078","0.0-13.0-2.4","l","09","Images/car_cartoon.png","65","1","1581556705120","non-match","car","frog","sound","test","true"
"null","","audio-keyboard-response","71","3923088","0.0-13.0-3.4","l","09","Sounds/correct.wav","null","1","","","","","","",""
"null","","audio-keyboard-response","72","3923974","0.0-13.0-0.5","l","09","Sounds/frog_sound.wav","null","1","","","","","","",""
"null","","html-keyboard-response","73","3924969","0.0-13.0-1.5","l","09","<p style=""font-size: 48px;"">+</p>","null","1","","","","","","",""
"446.86500006355345","","image-keyboard-response","74","3925417","0.0-13.0-2.5","l","09","Images/frog_orig.png","76","1","1581556709873","match","frog","frog","sound","test","true"
"null","","audio-keyboard-response","75","3927424","0.0-13.0-3.5","l","09","Sounds/correct.wav","null","1","","","","","","",""
"null","","audio-keyboard-response","76","3928097","0.0-13.0-0.6","l","09","Sounds/rooster_label.wav","null","1","","","","","","",""
"null","","html-keyboard-response","77","3929086","0.0-13.0-1.6","l","09","<p style=""font-size: 48px;"">+</p>","null","1","","","","","","",""
"761.9999999878928","","image-keyboard-response","78","3929849","0.0-13.0-2.6","l","09","Images/dog_3.png","65","1","1581556713989","non-match","dog","rooster","label","test","true"
"null","","audio-keyboard-response","79","3931858","0.0-13.0-3.6","l","09","Sounds/correct.wav","null","1","","","","","","",""
"null","","audio-keyboard-response","80","3932697","0.0-13.0-0.7","l","09","Sounds/cat_sound.wav","null","1","","","","","","",""
"null","","html-keyboard-response","81","3933686","0.0-13.0-1.7","l","09","<p style=""font-size: 48px;"">+</p>","null","1","","","","","","",""
"561.9550000410527","","image-keyboard-response","82","3934249","0.0-13.0-2.7","l","09","Images/cat_3.png","76","1","1581556718589","match","cat","cat","sound","test","true"
"null","","audio-keyboard-response","83","3936258","0.0-13.0-3.7","l","09","Sounds/correct.wav","null","1","","","","","","",""
"null","","audio-keyboard-response","84","3937377","0.0-13.0-0.8","l","09","Sounds/motorcycle_sound.wav","null","1","","","","","","",""
"null","","html-keyboard-response","85","3938370","0.0-13.0-1.8","l","09","<p style=""font-size: 48px;"">+</p>","null","1","","","","","","",""
"630.9500000206754","","image-keyboard-response","86","3939002","0.0-13.0-2.8","l","09","Images/motorcycle_orig.png","76","1","1581556723273","match","motorcycle","motorcycle","sound","test","true"
"null","","audio-keyboard-response","87","3941008","0.0-13.0-3.8","l","09","Sounds/correct.wav","null","1","","","","","","",""
"null","","audio-keyboard-response","88","3942157","0.0-13.0-0.9","l","09","Sounds/motorcycle_label.wav","null","1","","","","","","",""
"null","","html-keyboard-response","89","3943153","0.0-13.0-1.9","l","09","<p style=""font-size: 48px;"">+</p>","null","1","","","","","","",""
"567.3250000691041","","image-keyboard-response","90","3943721","0.0-13.0-2.9","l","09","Images/motorcycle_3.png","76","1","1581556728056","match","motorcycle","motorcycle","label","test","true"
"null","","audio-keyboard-response","91","3945726","0.0-13.0-3.9","l","09","Sounds/correct.wav","null","1","","","","","","",""
"null","","audio-keyboard-response","92","3946637","0.0-13.0-0.10","l","09","Sounds/frog_sound.wav","null","1","","","","","","",""
"null","","html-keyboard-response","93","3947636","0.0-13.0-1.10","l","09","<p style=""font-size: 48px;"">+</p>","null","1","","","","","","",""
"531.9049999816343","","image-keyboard-response","94","3948169","0.0-13.0-2.10","l","09","Images/gun_2.png","65","1","1581556732540","non-match","gun","frog","sound","test","true"
"null","","audio-keyboard-response","95","3950174","0.0-13.0-3.10","l","09","Sounds/correct.wav","null","1","","","","","","",""
"null","","audio-keyboard-response","96","3950877","0.0-13.0-0.11","l","09","Sounds/rooster_sound.wav","null","1","","","","","","",""
"null","","html-keyboard-response","97","3951870","0.0-13.0-1.11","l","09","<p style=""font-size: 48px;"">+</p>","null","1","","","","","","",""
"570.6149999750778","","image-keyboard-response","98","3952441","0.0-13.0-2.11","l","09","Images/rooster_orig.png","76","1","1581556736773","match","rooster","rooster","sound","test","true"
"null","","audio-keyboard-response","99","3954458","0.0-13.0-3.11","l","09","Sounds/correct.wav","null","1","","","","","","",""
"null","","audio-keyboard-response","100","3955537","0.0-13.0-0.12","l","09","Sounds/car_label.wav","null","1","","","","","","",""
"null","","html-keyboard-response","101","3956536","0.0-13.0-1.12","l","09","<p style=""font-size: 48px;"">+</p>","null","1","","","","","","",""
"527.8350000735372","","image-keyboard-response","102","3957065","0.0-13.0-2.12","l","09","Images/frog_1.png","65","1","1581556741440","non-match","frog","car","label","test","true"
"null","","audio-keyboard-response","103","3959075","0.0-13.0-3.12","l","09","Sounds/correct.wav","null","1","","","","","","",""
"null","","audio-keyboard-response","104","3960177","0.0-13.0-0.13","l","09","Sounds/motorcycle_label.wav","null","1","","","","","","",""
"null","","html-keyboard-response","105","3961170","0.0-13.0-1.13","l","09","<p style=""font-size: 48px;"">+</p>","null","1","","","","","","",""
"582.5099999783561","","image-keyboard-response","106","3961753","0.0-13.0-2.13","l","09","Images/motorcycle_2.png","76","1","1581556746073","match","motorcycle","motorcycle","label","test","true"
"null","","audio-keyboard-response","107","3963758","0.0-13.0-3.13","l","09","Sounds/correct.wav","null","1","","","","","","",""
"null","","audio-keyboard-response","108","3964877","0.0-13.0-0.14","l","09","Sounds/motorcycle_sound.wav","null","1","","","","","","",""
"null","","html-keyboard-response","109","3965870","0.0-13.0-1.14","l","09","<p style=""font-size: 48px;"">+</p>","null","1","","","","","","",""
"906.514999922365","","image-keyboard-response","110","3966777","0.0-13.0-2.14","l","09","Images/train_3.png","65","1","1581556750773","non-match","train","motorcycle","sound","test","true"
"null","","audio-keyboard-response","111","3968790","0.0-13.0-3.14","l","09","Sounds/correct.wav","null","1","","","","","","",""
"null","","audio-keyboard-response","112","3969377","0.0-13.0-0.15","l","09","Sounds/gun_label.wav","null","1","","","","","","",""
"null","","html-keyboard-response","113","3970370","0.0-13.0-1.15","l","09","<p style=""font-size: 48px;"">+</p>","null","1","","","","","","",""
"678.2299999613315","","image-keyboard-response","114","3971049","0.0-13.0-2.15","l","09","Images/train_2.png","65","1","1581556755273","non-match","train","gun","label","test","true"
"null","","audio-keyboard-response","115","3973060","0.0-13.0-3.15","l","09","Sounds/correct.wav","null","1","","","","","","",""
"null","","audio-keyboard-response","116","3974137","0.0-13.0-0.16","l","09","Sounds/car_label.wav","null","1","","","","","","",""
"null","","html-keyboard-response","117","3975137","0.0-13.0-1.16","l","09","<p style=""font-size: 48px;"">+</p>","null","1","","","","","","",""
"535.6649999739602","","image-keyboard-response","118","3975673","0.0-13.0-2.16","l","09","Images/car_3.png","76","1","1581556760040","match","car","car","label","test","true"
"null","","audio-keyboard-response","119","3977690","0.0-13.0-3.16","l","09","Sounds/correct.wav","null","1","","","","","","",""
"null","","audio-keyboard-response","120","3978397","0.0-13.0-0.17","l","09","Sounds/whistle_label.wav","null","1","","","","","","",""
"null","","html-keyboard-response","121","3979387","0.0-13.0-1.17","l","09","<p style=""font-size: 48px;"">+</p>","null","1","","","","","","",""
"557.8050001058728","","image-keyboard-response","122","3979945","0.0-13.0-2.17","l","09","Images/frog_orig.png","65","1","1581556764290","non-match","frog","whistle","label","test","true"
"null","","audio-keyboard-response","123","3981958","0.0-13.0-3.17","l","09","Sounds/correct.wav","null","1","","","","","","",""
"null","","audio-keyboard-response","124","3982797","0.0-13.0-0.18","l","09","Sounds/cat_label.wav","null","1","","","","","","",""
"null","","html-keyboard-response","125","3983787","0.0-13.0-1.18","l","09","<p style=""font-size: 48px;"">+</p>","null","1","","","","","","",""
"491.99999996926636","","image-keyboard-response","126","3984281","0.0-13.0-2.18","l","09","Images/dog_cartoon.png","65","1","1581556768690","non-match","dog","cat","label","test","true"
"null","","audio-keyboard-response","127","3986291","0.0-13.0-3.18","l","09","Sounds/correct.wav","null","1","","","","","","",""
"null","","audio-keyboard-response","128","3987139","0.0-13.0-0.19","l","09","Sounds/cat_sound.wav","null","1","","","","","","",""
"null","","html-keyboard-response","129","3988138","0.0-13.0-1.19","l","09","<p style=""font-size: 48px;"">+</p>","null","1","","","","","","",""
"495.54000003263354","","image-keyboard-response","130","3988635","0.0-13.0-2.19","l","09","Images/gun_1.png","65","1","1581556773041","non-match","gun","cat","sound","test","true"
"null","","audio-keyboard-response","131","3990645","0.0-13.0-3.19","l","09","Sounds/correct.wav","null","1","","","","","","",""
"null","","audio-keyboard-response","132","3991459","0.0-13.0-0.20","l","09","Sounds/cat_sound.wav","null","1","","","","","","",""
"null","","html-keyboard-response","133","3992455","0.0-13.0-1.20","l","09","<p style=""font-size: 48px;"">+</p>","null","1","","","","","","",""
"626.9949999405071","","image-keyboard-response","134","3993083","0.0-13.0-2.20","l","09","Images/rooster_orig.png","65","1","1581556777358","non-match","rooster","cat","sound","test","true"
"null","","audio-keyboard-response","135","3995092","0.0-13.0-3.20","l","09","Sounds/correct.wav","null","1","","","","","","",""
"null","","audio-keyboard-response","136","3996118","0.0-13.0-0.21","l","09","Sounds/cow_label.wav","null","1","","","","","","",""
"null","","html-keyboard-response","137","3997122","0.0-13.0-1.21","l","09","<p style=""font-size: 48px;"">+</p>","null","1","","","","","","",""
"552.0800000522286","","image-keyboard-response","138","3997675","0.0-13.0-2.21","l","09","Images/frog_2.png","65","1","1581556782025","non-match","frog","cow","label","test","true"
"null","","audio-keyboard-response","139","3999692","0.0-13.0-3.21","l","09","Sounds/correct.wav","null","1","","","","","","",""
"null","","audio-keyboard-response","140","4000399","0.0-13.0-0.22","l","09","Sounds/dog_sound.wav","null","1","","","","","","",""
"null","","html-keyboard-response","141","4001388","0.0-13.0-1.22","l","09","<p style=""font-size: 48px;"">+</p>","null","1","","","","","","",""
"749.4100000476465","","image-keyboard-response","142","4002139","0.0-13.0-2.22","l","09","Images/cow_3.png","65","1","1581556786292","non-match","cow","dog","sound","test","true"
"null","","audio-keyboard-response","143","4004145","0.0-13.0-3.22","l","09","Sounds/correct.wav","null","1","","","","","","",""
"null","","audio-keyboard-response","144","4004959","0.0-13.0-0.23","l","09","Sounds/cat_sound.wav","null","1","","","","","","",""
"null","","html-keyboard-response","145","4005955","0.0-13.0-1.23","l","09","<p style=""font-size: 48px;"">+</p>","null","1","","","","","","",""
"518.8799999887124","","image-keyboard-response","146","4006475","0.0-13.0-2.23","l","09","Images/cat_1.png","76","1","1581556790858","match","cat","cat","sound","test","true"
"null","","audio-keyboard-response","147","4008493","0.0-13.0-3.23","l","09","Sounds/correct.wav","null","1","","","","","","",""
"null","","audio-keyboard-response","148","4009178","0.0-13.0-0.24","l","09","Sounds/dog_sound.wav","null","1","","","","","","",""
"null","","html-keyboard-response","149","4010172","0.0-13.0-1.24","l","09","<p style=""font-size: 48px;"">+</p>","null","1","","","","","","",""
"525.8900000480935","","image-keyboard-response","150","4010699","0.0-13.0-2.24","l","09","Images/dog_1.png","76","1","1581556795075","match","dog","dog","sound","test","true"
"null","","audio-keyboard-response","151","4012709","0.0-13.0-3.24","l","09","Sounds/correct.wav","null","1","","","","","","",""
"null","","audio-keyboard-response","152","4014019","0.0-13.0-0.25","l","09","Sounds/train_sound.wav","null","1","","","","","","",""
"null","","html-keyboard-response","153","4015022","0.0-13.0-1.25","l","09","<p style=""font-size: 48px;"">+</p>","null","1","","","","","","",""
"715.764999971725","","image-keyboard-response","154","4015739","0.0-13.0-2.25","l","09","Images/motorcycle_orig.png","65","1","1581556799925","non-match","motorcycle","train","sound","test","true"
"null","","audio-keyboard-response","155","4017744","0.0-13.0-3.25","l","09","Sounds/correct.wav","null","1","","","","","","",""
"null","","audio-keyboard-response","156","4018819","0.0-13.0-0.26","l","09","Sounds/car_sound.wav","null","1","","","","","","",""
"null","","html-keyboard-response","157","4019822","0.0-13.0-1.26","l","09","<p style=""font-size: 48px;"">+</p>","null","1","","","","","","",""
"604.1299999924377","","image-keyboard-response","158","4020427","0.0-13.0-2.26","l","09","Images/car_1.png","65","1","1581556804725","match","car","car","sound","test","false"
"null","","audio-keyboard-response","159","4022443","0.0-13.0-3.26","l","09","Sounds/incorrect.wav","null","1","","","","","","",""
"null","","audio-keyboard-response","160","4023559","0.0-13.0-0.27","l","09","Sounds/motorcycle_sound.wav","null","1","","","","","","",""
"null","","html-keyboard-response","161","4024555","0.0-13.0-1.27","l","09","<p style=""font-size: 48px;"">+</p>","null","1","","","","","","",""
"766.6550000431016","","image-keyboard-response","162","4025323","0.0-13.0-2.27","l","09","Images/motorcycle_cartoon.png","76","1","1581556809458","match","motorcycle","motorcycle","sound","test","true"
"null","","audio-keyboard-response","163","4027327","0.0-13.0-3.27","l","09","Sounds/correct.wav","null","1","","","","","","",""
"null","","audio-keyboard-response","164","4028019","0.0-13.0-0.28","l","09","Sounds/whistle_label.wav","null","1","","","","","","",""
"null","","html-keyboard-response","165","4029022","0.0-13.0-1.28","l","09","<p style=""font-size: 48px;"">+</p>","null","1","","","","","","",""
"587.5749998958781","","image-keyboard-response","166","4029611","0.0-13.0-2.28","l","09","Images/whistle_1.png","76","1","1581556813925","match","whistle","whistle","label","test","true"
"null","","audio-keyboard-response","167","4031628","0.0-13.0-3.28","l","09","Sounds/correct.wav","null","1","","","","","","",""
"null","","audio-keyboard-response","168","4032639","0.0-13.0-0.29","l","09","Sounds/cow_sound.wav","null","1","","","","","","",""
"null","","html-keyboard-response","169","4033638","0.0-13.0-1.29","l","09","<p style=""font-size: 48px;"">+</p>","null","1","","","","","","",""
"419.72500004339963","","image-keyboard-response","170","4034059","0.0-13.0-2.29","l","09","Images/cow_orig.png","76","1","1581556818542","match","cow","cow","sound","test","true"
"null","","audio-keyboard-response","171","4036075","0.0-13.0-3.29","l","09","Sounds/correct.wav","null","1","","","","","","",""
"null","","audio-keyboard-response","172","4036739","0.0-13.0-0.30","l","09","Sounds/dog_label.wav","null","1","","","","","","",""
"null","","html-keyboard-response","173","4037739","0.0-13.0-1.30","l","09","<p style=""font-size: 48px;"">+</p>","null","1","","","","","","",""
"494.76999999023974","","image-keyboard-response","174","4038235","0.0-13.0-2.30","l","09","Images/dog_orig.png","76","1","1581556822642","match","dog","dog","label","test","true"
"null","","audio-keyboard-response","175","4040246","0.0-13.0-3.30","l","09","Sounds/correct.wav","null","1","","","","","","",""
"null","","audio-keyboard-response","176","4041339","0.0-13.0-0.31","l","09","Sounds/motorcycle_sound.wav","null","1","","","","","","",""
"null","","html-keyboard-response","177","4042339","0.0-13.0-1.31","l","09","<p style=""font-size: 48px;"">+</p>","null","1","","","","","","",""
"599.0950000705197","","image-keyboard-response","178","4042939","0.0-13.0-2.31","l","09","Images/gun_3.png","65","1","1581556827242","non-match","gun","motorcycle","sound","test","true"
"null","","audio-keyboard-response","179","4044944","0.0-13.0-3.31","l","09","Sounds/correct.wav","null","1","","","","","","",""
"null","","audio-keyboard-response","180","4045639","0.0-13.0-0.32","l","09","Sounds/rooster_sound.wav","null","1","","","","","","",""
"null","","html-keyboard-response","181","4046640","0.0-13.0-1.32","l","09","<p style=""font-size: 48px;"">+</p>","null","1","","","","","","",""
"506.9349999539554","","image-keyboard-response","182","4047148","0.0-13.0-2.32","l","09","Images/whistle_cartoon.png","65","1","1581556831544","non-match","whistle","rooster","sound","test","true"
"null","","audio-keyboard-response","183","4049162","0.0-13.0-3.32","l","09","Sounds/correct.wav","null","1","","","","","","",""
"null","","audio-keyboard-response","184","4049800","0.0-13.0-0.33","l","09","Sounds/dog_label.wav","null","1","","","","","","",""
"null","","html-keyboard-response","185","4050791","0.0-13.0-1.33","l","09","<p style=""font-size: 48px;"">+</p>","null","1","","","","","","",""
"564.564999891445","","image-keyboard-response","186","4051356","0.0-13.0-2.33","l","09","Images/frog_3.png","65","1","1581556835694","non-match","frog","dog","label","test","true"
"null","","audio-keyboard-response","187","4053365","0.0-13.0-3.33","l","09","Sounds/correct.wav","null","1","","","","","","",""
"null","","audio-keyboard-response","188","4054260","0.0-13.0-0.34","l","09","Sounds/frog_label.wav","null","1","","","","","","",""
"null","","html-keyboard-response","189","4055257","0.0-13.0-1.34","l","09","<p style=""font-size: 48px;"">+</p>","null","1","","","","","","",""
"546.0999999195337","","image-keyboard-response","190","4055804","0.0-13.0-2.34","l","09","Images/rooster_2.png","65","1","1581556840160","non-match","rooster","frog","label","test","true"
"null","","audio-keyboard-response","191","4057814","0.0-13.0-3.34","l","09","Sounds/correct.wav","null","1","","","","","","",""
"null","","audio-keyboard-response","192","4058660","0.0-13.0-0.35","l","09","Sounds/cat_sound.wav","null","1","","","","","","",""
"null","","html-keyboard-response","193","4059657","0.0-13.0-1.35","l","09","<p style=""font-size: 48px;"">+</p>","null","1","","","","","","",""
"514.350000070408","","image-keyboard-response","194","4060173","0.0-13.0-2.35","l","09","Images/cat_2.png","76","1","1581556844560","match","cat","cat","sound","test","true"
"null","","audio-keyboard-response","195","4062181","0.0-13.0-3.35","l","09","Sounds/correct.wav","null","1","","","","","","",""
"null","","audio-keyboard-response","196","4063320","0.0-13.0-0.36","l","09","Sounds/motorcycle_label.wav","null","1","","","","","","",""
"null","","html-keyboard-response","197","4064324","0.0-13.0-1.36","l","09","<p style=""font-size: 48px;"">+</p>","null","1","","","","","","",""
"567.3200000310317","","image-keyboard-response","198","4064892","0.0-13.0-2.36","l","09","Images/dog_1.png","65","1","1581556849227","non-match","dog","motorcycle","label","test","true"
"null","","audio-keyboard-response","199","4066896","0.0-13.0-3.36","l","09","Sounds/correct.wav","null","1","","","","","","",""
"null","","audio-keyboard-response","200","4067580","0.0-13.0-0.37","l","09","Sounds/whistle_label.wav","null","1","","","","","","",""
"null","","html-keyboard-response","201","4068574","0.0-13.0-1.37","l","09","<p style=""font-size: 48px;"">+</p>","null","1","","","","","","",""
"509.3049999559298","","image-keyboard-response","202","4069084","0.0-13.0-2.37","l","09","Images/whistle_orig.png","76","1","1581556853477","match","whistle","whistle","label","test","true"
"null","","audio-keyboard-response","203","4071094","0.0-13.0-3.37","l","09","Sounds/correct.wav","null","1","","","","","","",""
"null","","audio-keyboard-response","204","4071800","0.0-13.0-0.38","l","09","Sounds/rooster_label.wav","null","1","","","","","","",""
"null","","html-keyboard-response","205","4072791","0.0-13.0-1.38","l","09","<p style=""font-size: 48px;"">+</p>","null","1","","","","","","",""
"452.44499994441867","","image-keyboard-response","206","4073244","0.0-13.0-2.38","l","09","Images/rooster_3.png","76","1","1581556857694","match","rooster","rooster","label","test","true"
"null","","audio-keyboard-response","207","4075261","0.0-13.0-3.38","l","09","Sounds/correct.wav","null","1","","","","","","",""
"null","","audio-keyboard-response","208","4075920","0.0-13.0-0.39","l","09","Sounds/dog_label.wav","null","1","","","","","","",""
"null","","html-keyboard-response","209","4076924","0.0-13.0-1.39","l","09","<p style=""font-size: 48px;"">+</p>","null","1","","","","","","",""
"574.9150000046939","","image-keyboard-response","210","4077500","0.0-13.0-2.39","l","09","Images/dog_cartoon.png","76","1","1581556861827","match","dog","dog","label","test","true"
"null","","audio-keyboard-response","211","4079504","0.0-13.0-3.39","l","09","Sounds/correct.wav","null","1","","","","","","",""
"null","","audio-keyboard-response","212","4080140","0.0-13.0-0.40","l","09","Sounds/dog_label.wav","null","1","","","","","","",""
"null","","html-keyboard-response","213","4081141","0.0-13.0-1.40","l","09","<p style=""font-size: 48px;"">+</p>","null","1","","","","","","",""
"614.449999993667","","image-keyboard-response","214","4081756","0.0-13.0-2.40","l","09","Images/rooster_cartoon.png","65","1","1581556866044","non-match","rooster","dog","label","test","true"
"null","","audio-keyboard-response","215","4083763","0.0-13.0-3.40","l","09","Sounds/correct.wav","null","1","","","","","","",""
"null","","audio-keyboard-response","216","4085040","0.0-13.0-0.41","l","09","Sounds/train_label.wav","null","1","","","","","","",""
"null","","html-keyboard-response","217","4086041","0.0-13.0-1.41","l","09","<p style=""font-size: 48px;"">+</p>","null","1","","","","","","",""
"1058.7749999249354","","image-keyboard-response","218","4087101","0.0-13.0-2.41","l","09","Images/train_orig.png","76","1","1581556870944","match","train","train","label","test","true"
"null","","audio-keyboard-response","219","4089113","0.0-13.0-3.41","l","09","Sounds/correct.wav","null","1","","","","","","",""
"null","","audio-keyboard-response","220","4090200","0.0-13.0-0.42","l","09","Sounds/car_sound.wav","null","1","","","","","","",""
"null","","html-keyboard-response","221","4091208","0.0-13.0-1.42","l","09","<p style=""font-size: 48px;"">+</p>","null","1","","","","","","",""
"643.2700000004843","","image-keyboard-response","222","4091852","0.0-13.0-2.42","l","09","Images/cat_1.png","65","1","1581556876111","non-match","cat","car","sound","test","true"
"null","","audio-keyboard-response","223","4093861","0.0-13.0-3.42","l","09","Sounds/correct.wav","null","1","","","","","","",""
"null","","audio-keyboard-response","224","4094760","0.0-13.0-0.43","l","09","Sounds/frog_label.wav","null","1","","","","","","",""
"null","","html-keyboard-response","225","4095758","0.0-13.0-1.43","l","09","<p style=""font-size: 48px;"">+</p>","null","1","","","","","","",""
"477.68000001087785","","image-keyboard-response","226","4096236","0.0-13.0-2.43","l","09","Images/frog_1.png","76","1","1581556880661","match","frog","frog","label","test","true"
"null","","audio-keyboard-response","227","4098246","0.0-13.0-3.43","l","09","Sounds/correct.wav","null","1","","","","","","",""
"null","","audio-keyboard-response","228","4099540","0.0-13.0-0.44","l","09","Sounds/train_sound.wav","null","1","","","","","","",""
"null","","html-keyboard-response","229","4100558","0.0-13.0-1.44","l","09","<p style=""font-size: 48px;"">+</p>","null","1","","","","","","",""
"797.7200000314042","","image-keyboard-response","230","4101356","0.0-13.0-2.44","l","09","Images/train_3.png","76","1","1581556885461","match","train","train","sound","test","true"
"null","","audio-keyboard-response","231","4103365","0.0-13.0-3.44","l","09","Sounds/correct.wav","null","1","","","","","","",""
"null","","audio-keyboard-response","232","4103940","0.0-13.0-0.45","l","09","Sounds/gun_sound.wav","null","1","","","","","","",""
"null","","html-keyboard-response","233","4104958","0.0-13.0-1.45","l","09","<p style=""font-size: 48px;"">+</p>","null","1","","","","","","",""
"525.4649999551475","","image-keyboard-response","234","4105484","0.0-13.0-2.45","l","09","Images/gun_1.png","76","1","1581556889861","match","gun","gun","sound","test","true"
"null","","audio-keyboard-response","235","4107496","0.0-13.0-3.45","l","09","Sounds/correct.wav","null","1","","","","","","",""
"null","","audio-keyboard-response","236","4108202","0.0-13.0-0.46","l","09","Sounds/whistle_label.wav","null","1","","","","","","",""
"null","","html-keyboard-response","237","4109193","0.0-13.0-1.46","l","09","<p style=""font-size: 48px;"">+</p>","null","1","","","","","","",""
"596.214999910444","","image-keyboard-response","238","4109790","0.0-13.0-2.46","l","09","Images/cat_cartoon.png","65","1","1581556894096","non-match","cat","whistle","label","test","true"
"null","","audio-keyboard-response","239","4111799","0.0-13.0-3.46","l","09","Sounds/correct.wav","null","1","","","","","","",""
"null","","audio-keyboard-response","240","4112642","0.0-13.0-0.47","l","09","Sounds/cat_label.wav","null","1","","","","","","",""
"null","","html-keyboard-response","241","4113659","0.0-13.0-1.47","l","09","<p style=""font-size: 48px;"">+</p>","null","1","","","","","","",""
"593.8149999128655","","image-keyboard-response","242","4114254","0.0-13.0-2.47","l","09","Images/cow_1.png","65","1","1581556898562","non-match","cow","cat","label","test","true"
"null","","audio-keyboard-response","243","4116266","0.0-13.0-3.47","l","09","Sounds/correct.wav","null","1","","","","","","",""
"null","","audio-keyboard-response","244","4116962","0.0-13.0-0.48","l","09","Sounds/whistle_sound.wav","null","1","","","","","","",""
"null","","html-keyboard-response","245","4117959","0.0-13.0-1.48","l","09","<p style=""font-size: 48px;"">+</p>","null","1","","","","","","",""
"533.2749999361113","","image-keyboard-response","246","4118494","0.0-13.0-2.48","l","09","Images/whistle_cartoon.png","76","1","1581556902863","match","whistle","whistle","sound","test","true"
"null","","audio-keyboard-response","247","4120498","0.0-13.0-3.48","l","09","Sounds/correct.wav","null","1","","","","","","",""
"null","","audio-keyboard-response","248","4121202","0.0-13.0-0.49","l","09","Sounds/rooster_sound.wav","null","1","","","","","","",""
"null","","html-keyboard-response","249","4122193","0.0-13.0-1.49","l","09","<p style=""font-size: 48px;"">+</p>","null","1","","","","","","",""
"507.9600000753999","","image-keyboard-response","250","4122702","0.0-13.0-2.49","l","09","Images/motorcycle_1.png","65","1","1581556907096","non-match","motorcycle","rooster","sound","test","true"
"null","","audio-keyboard-response","251","4124707","0.0-13.0-3.49","l","09","Sounds/correct.wav","null","1","","","","","","",""
"null","","audio-keyboard-response","252","4125602","0.0-13.0-0.50","l","09","Sounds/frog_label.wav","null","1","","","","","","",""
"null","","html-keyboard-response","253","4126593","0.0-13.0-1.50","l","09","<p style=""font-size: 48px;"">+</p>","null","1","","","","","","",""
"476.1350000044331","","image-keyboard-response","254","4127070","0.0-13.0-2.50","l","09","Images/frog_3.png","76","1","1581556911496","match","frog","frog","label","test","true"
"null","","audio-keyboard-response","255","4129079","0.0-13.0-3.50","l","09","Sounds/correct.wav","null","1","","","","","","",""
"null","","audio-keyboard-response","256","4129782","0.0-13.0-0.51","l","09","Sounds/dog_sound.wav","null","1","","","","","","",""
"null","","html-keyboard-response","257","4130776","0.0-13.0-1.51","l","09","<p style=""font-size: 48px;"">+</p>","null","1","","","","","","",""
"948.5199999762699","","image-keyboard-response","258","4131726","0.0-13.0-2.51","l","09","Images/dog_2.png","76","1","1581556915679","match","dog","dog","sound","test","true"
"null","","audio-keyboard-response","259","4133731","0.0-13.0-3.51","l","09","Sounds/correct.wav","null","1","","","","","","",""
"null","","audio-keyboard-response","260","4134842","0.0-13.0-0.52","l","09","Sounds/motorcycle_sound.wav","null","1","","","","","","",""
"null","","html-keyboard-response","261","4135876","0.0-13.0-1.52","l","09","<p style=""font-size: 48px;"">+</p>","null","1","","","","","","",""
"712.5450000166893","","image-keyboard-response","262","4136590","0.0-13.0-2.52","l","09","Images/rooster_3.png","76","1","1581556920779","non-match","rooster","motorcycle","sound","test","false"
"null","","audio-keyboard-response","263","4138598","0.0-13.0-3.52","l","09","Sounds/incorrect.wav","null","1","","","","","","",""
"null","","audio-keyboard-response","264","4139682","0.0-13.0-0.53","l","09","Sounds/car_sound.wav","null","1","","","","","","",""
"null","","html-keyboard-response","265","4140676","0.0-13.0-1.53","l","09","<p style=""font-size: 48px;"">+</p>","null","1","","","","","","",""
"488.6100000003353","","image-keyboard-response","266","4141166","0.0-13.0-2.53","l","09","Images/car_2.png","76","1","1581556925580","match","car","car","sound","test","true"
"null","","audio-keyboard-response","267","4143181","0.0-13.0-3.53","l","09","Sounds/correct.wav","null","1","","","","","","",""
"null","","audio-keyboard-response","268","4144202","0.0-13.0-0.54","l","09","Sounds/cow_sound.wav","null","1","","","","","","",""
"null","","html-keyboard-response","269","4145193","0.0-13.0-1.54","l","09","<p style=""font-size: 48px;"">+</p>","null","1","","","","","","",""
"627.7349999872968","","image-keyboard-response","270","4145822","0.0-13.0-2.54","l","09","Images/cat_orig.png","65","1","1581556930096","non-match","cat","cow","sound","test","true"
"null","","audio-keyboard-response","271","4147831","0.0-13.0-3.54","l","09","Sounds/correct.wav","null","1","","","","","","",""
"null","","audio-keyboard-response","272","4149102","0.0-13.0-0.55","l","09","Sounds/train_label.wav","null","1","","","","","","",""
"null","","html-keyboard-response","273","4150093","0.0-13.0-1.55","l","09","<p style=""font-size: 48px;"">+</p>","null","1","","","","","","",""
"638.8750000623986","","image-keyboard-response","274","4150734","0.0-13.0-2.55","l","09","Images/train_1.png","76","1","1581556934996","match","train","train","label","test","true"
"null","","audio-keyboard-response","275","4152747","0.0-13.0-3.55","l","09","Sounds/correct.wav","null","1","","","","","","",""
"null","","audio-keyboard-response","276","4153742","0.0-13.0-0.56","l","09","Sounds/cow_sound.wav","null","1","","","","","","",""
"null","","html-keyboard-response","277","4154760","0.0-13.0-1.56","l","09","<p style=""font-size: 48px;"">+</p>","null","1","","","","","","",""
"965.4950000112876","","image-keyboard-response","278","4155726","0.0-13.0-2.56","l","09","Images/cow_3.png","76","1","1581556939663","match","cow","cow","sound","test","true"
"null","","audio-keyboard-response","279","4157731","0.0-13.0-3.56","l","09","Sounds/correct.wav","null","1","","","","","","",""
"null","","audio-keyboard-response","280","4158322","0.0-13.0-0.57","l","09","Sounds/gun_sound.wav","null","1","","","","","","",""
"null","","html-keyboard-response","281","4159327","0.0-13.0-1.57","l","09","<p style=""font-size: 48px;"">+</p>","null","1","","","","","","",""
"478.09999994933605","","image-keyboard-response","282","4159806","0.0-13.0-2.57","l","09","Images/cow_orig.png","65","1","1581556944230","non-match","cow","gun","sound","test","true"
"null","","audio-keyboard-response","283","4161816","0.0-13.0-3.57","l","09","Sounds/correct.wav","null","1","","","","","","",""
"null","","audio-keyboard-response","284","4162362","0.0-13.0-0.58","l","09","Sounds/gun_sound.wav","null","1","","","","","","",""
"null","","html-keyboard-response","285","4163360","0.0-13.0-1.58","l","09","<p style=""font-size: 48px;"">+</p>","null","1","","","","","","",""
"508.90499993693084","","image-keyboard-response","286","4163870","0.0-13.0-2.58","l","09","Images/gun_cartoon.png","76","1","1581556948263","match","gun","gun","sound","test","true"
"null","","audio-keyboard-response","287","4165882","0.0-13.0-3.58","l","09","Sounds/correct.wav","null","1","","","","","","",""
"null","","audio-keyboard-response","288","4166542","0.0-13.0-0.59","l","09","Sounds/dog_label.wav","null","1","","","","","","",""
"null","","html-keyboard-response","289","4167561","0.0-13.0-1.59","l","09","<p style=""font-size: 48px;"">+</p>","null","1","","","","","","",""
"677.1549999248236","","image-keyboard-response","290","4168239","0.0-13.0-2.59","l","09","Images/car_2.png","65","1","1581556952464","non-match","car","dog","label","test","true"
"null","","audio-keyboard-response","291","4170248","0.0-13.0-3.59","l","09","Sounds/correct.wav","null","1","","","","","","",""
"null","","audio-keyboard-response","292","4171083","0.0-13.0-0.60","l","09","Sounds/cat_sound.wav","null","1","","","","","","",""
"null","","html-keyboard-response","293","4172078","0.0-13.0-1.60","l","09","<p style=""font-size: 48px;"">+</p>","null","1","","","","","","",""
"464.269999996759","","image-keyboard-response","294","4172543","0.0-13.0-2.60","l","09","Images/cat_orig.png","76","1","1581556956981","match","cat","cat","sound","test","true"
"null","","audio-keyboard-response","295","4174549","0.0-13.0-3.60","l","09","Sounds/correct.wav","null","1","","","","","","",""
"null","","audio-keyboard-response","296","4175103","0.0-13.0-0.61","l","09","Sounds/gun_sound.wav","null","1","","","","","","",""
"null","","html-keyboard-response","297","4176094","0.0-13.0-1.61","l","09","<p style=""font-size: 48px;"">+</p>","null","1","","","","","","",""
"559.415000025183","","image-keyboard-response","298","4176655","0.0-13.0-2.61","l","09","Images/car_1.png","65","1","1581556960998","non-match","car","gun","sound","test","true"
"null","","audio-keyboard-response","299","4178664","0.0-13.0-3.61","l","09","Sounds/correct.wav","null","1","","","","","","",""
"null","","audio-keyboard-response","300","4179683","0.0-13.0-0.62","l","09","Sounds/cow_sound.wav","null","1","","","","","","",""
"null","","html-keyboard-response","301","4180678","0.0-13.0-1.62","l","09","<p style=""font-size: 48px;"">+</p>","null","1","","","","","","",""
"536.2200000090525","","image-keyboard-response","302","4181215","0.0-13.0-2.62","l","09","Images/cow_cartoon.png","76","1","1581556965581","match","cow","cow","sound","test","true"
"null","","audio-keyboard-response","303","4183232","0.0-13.0-3.62","l","09","Sounds/correct.wav","null","1","","","","","","",""
"null","","audio-keyboard-response","304","4183803","0.0-13.0-0.63","l","09","Sounds/gun_label.wav","null","1","","","","","","",""
"null","","html-keyboard-response","305","4184794","0.0-13.0-1.63","l","09","<p style=""font-size: 48px;"">+</p>","null","1","","","","","","",""
"563.4500000160187","","image-keyboard-response","306","4185359","0.0-13.0-2.63","l","09","Images/gun_3.png","76","1","1581556969698","match","gun","gun","label","test","true"
"null","","audio-keyboard-response","307","4187369","0.0-13.0-3.63","l","09","Sounds/correct.wav","null","1","","","","","","",""
"null","","audio-keyboard-response","308","4187923","0.0-13.0-0.64","l","09","Sounds/gun_sound.wav","null","1","","","","","","",""
"null","","html-keyboard-response","309","4188911","0.0-13.0-1.64","l","09","<p style=""font-size: 48px;"">+</p>","null","1","","","","","","",""
"718.6699999729171","","image-keyboard-response","310","4189631","0.0-13.0-2.64","l","09","Images/whistle_orig.png","65","1","1581556973815","non-match","whistle","gun","sound","test","true"
"null","","audio-keyboard-response","311","4191649","0.0-13.0-3.64","l","09","Sounds/correct.wav","null","1","","","","","","",""
"null","","audio-keyboard-response","312","4192303","0.0-13.0-0.65","l","09","Sounds/dog_label.wav","null","1","","","","","","",""
"null","","html-keyboard-response","313","4193295","0.0-13.0-1.65","l","09","<p style=""font-size: 48px;"">+</p>","null","1","","","","","","",""
"447.55000004079193","","image-keyboard-response","314","4193743","0.0-13.0-2.65","l","09","Images/dog_3.png","76","1","1581556978198","match","dog","dog","label","test","true"
"null","","audio-keyboard-response","315","4195752","0.0-13.0-3.65","l","09","Sounds/correct.wav","null","1","","","","","","",""
"null","","audio-keyboard-response","316","4197043","0.0-13.0-0.66","l","09","Sounds/train_sound.wav","null","1","","","","","","",""
"null","","html-keyboard-response","317","4198061","0.0-13.0-1.66","l","09","<p style=""font-size: 48px;"">+</p>","null","1","","","","","","",""
"672.4899999098852","","image-keyboard-response","318","4198735","0.0-13.0-2.66","l","09","Images/cat_2.png","65","1","1581556982964","non-match","cat","train","sound","test","true"
"null","","audio-keyboard-response","319","4200748","0.0-13.0-3.66","l","09","Sounds/correct.wav","null","1","","","","","","",""
"null","","audio-keyboard-response","320","4201663","0.0-13.0-0.67","l","09","Sounds/frog_sound.wav","null","1","","","","","","",""
"null","","html-keyboard-response","321","4202661","0.0-13.0-1.67","l","09","<p style=""font-size: 48px;"">+</p>","null","1","","","","","","",""
"504.54999995417893","","image-keyboard-response","322","4203167","0.0-13.0-2.67","l","09","Images/frog_2.png","76","1","1581556987565","match","frog","frog","sound","test","true"
"null","","audio-keyboard-response","323","4205182","0.0-13.0-3.67","l","09","Sounds/correct.wav","null","1","","","","","","",""
"null","","audio-keyboard-response","324","4206463","0.0-13.0-0.68","l","09","Sounds/train_sound.wav","null","1","","","","","","",""
"null","","html-keyboard-response","325","4207461","0.0-13.0-1.68","l","09","<p style=""font-size: 48px;"">+</p>","null","1","","","","","","",""
"536.6899999789894","","image-keyboard-response","326","4207999","0.0-13.0-2.68","l","09","Images/train_cartoon.png","76","1","1581556992365","match","train","train","sound","test","true"
"null","","audio-keyboard-response","327","4210015","0.0-13.0-3.68","l","09","Sounds/correct.wav","null","1","","","","","","",""
"null","","audio-keyboard-response","328","4211043","0.0-13.0-0.69","l","09","Sounds/cow_sound.wav","null","1","","","","","","",""
"null","","html-keyboard-response","329","4212045","0.0-13.0-1.69","l","09","<p style=""font-size: 48px;"">+</p>","null","1","","","","","","",""
"593.2400000747293","","image-keyboard-response","330","4212639","0.0-13.0-2.69","l","09","Images/car_orig.png","65","1","1581556996948","non-match","car","cow","sound","test","true"
"null","","audio-keyboard-response","331","4214650","0.0-13.0-3.69","l","09","Sounds/correct.wav","null","1","","","","","","",""
"null","","audio-keyboard-response","332","4215343","0.0-13.0-0.70","l","09","Sounds/whistle_label.wav","null","1","","","","","","",""
"null","","html-keyboard-response","333","4216345","0.0-13.0-1.70","l","09","<p style=""font-size: 48px;"">+</p>","null","1","","","","","","",""
"677.1400000434369","","image-keyboard-response","334","4217023","0.0-13.0-2.70","l","09","Images/dog_2.png","65","1","1581557001248","non-match","dog","whistle","label","test","true"
"null","","audio-keyboard-response","335","4219033","0.0-13.0-3.70","l","09","Sounds/correct.wav","null","1","","","","","","",""
"null","","audio-keyboard-response","336","4219683","0.0-13.0-0.71","l","09","Sounds/dog_label.wav","null","1","","","","","","",""
"null","","html-keyboard-response","337","4220678","0.0-13.0-1.71","l","09","<p style=""font-size: 48px;"">+</p>","null","1","","","","","","",""
"535.7749999966472","","image-keyboard-response","338","4221215","0.0-13.0-2.71","l","09","Images/train_1.png","65","1","1581557005581","non-match","train","dog","label","test","true"
"null","","audio-keyboard-response","339","4223232","0.0-13.0-3.71","l","09","Sounds/correct.wav","null","1","","","","","","",""
"null","","audio-keyboard-response","340","4223823","0.0-13.0-0.72","l","09","Sounds/gun_label.wav","null","1","","","","","","",""
"null","","html-keyboard-response","341","4224812","0.0-13.0-1.72","l","09","<p style=""font-size: 48px;"">+</p>","null","1","","","","","","",""
"498.1350000016391","","image-keyboard-response","342","4225311","0.0-13.0-2.72","l","09","Images/gun_2.png","76","1","1581557009715","match","gun","gun","label","test","true"
"null","","audio-keyboard-response","343","4227317","0.0-13.0-3.72","l","09","Sounds/correct.wav","null","1","","","","","","",""
"null","","audio-keyboard-response","344","4228404","0.0-13.0-0.73","l","09","Sounds/car_label.wav","null","1","","","","","","",""
"null","","html-keyboard-response","345","4229396","0.0-13.0-1.73","l","09","<p style=""font-size: 48px;"">+</p>","null","1","","","","","","",""
"490.93500000890344","","image-keyboard-response","346","4229888","0.0-13.0-2.73","l","09","Images/car_orig.png","76","1","1581557014299","match","car","car","label","test","true"
"null","","audio-keyboard-response","347","4231899","0.0-13.0-3.73","l","09","Sounds/correct.wav","null","1","","","","","","",""
"null","","audio-keyboard-response","348","4233184","0.0-13.0-0.74","l","09","Sounds/train_label.wav","null","1","","","","","","",""
"null","","html-keyboard-response","349","4234179","0.0-13.0-1.74","l","09","<p style=""font-size: 48px;"">+</p>","null","1","","","","","","",""
"715.7850000075996","","image-keyboard-response","350","4234896","0.0-13.0-2.74","l","09","Images/gun_orig.png","65","1","1581557019082","non-match","gun","train","label","test","true"
"null","","audio-keyboard-response","351","4236902","0.0-13.0-3.74","l","09","Sounds/correct.wav","null","1","","","","","","",""
"null","","audio-keyboard-response","352","4238204","0.0-13.0-0.75","l","09","Sounds/train_sound.wav","null","1","","","","","","",""
"null","","html-keyboard-response","353","4239196","0.0-13.0-1.75","l","09","<p style=""font-size: 48px;"">+</p>","null","1","","","","","","",""
"642.9749999660999","","image-keyboard-response","354","4239840","0.0-13.0-2.75","l","09","Images/dog_orig.png","65","1","1581557024099","non-match","dog","train","sound","test","true"
"null","","audio-keyboard-response","355","4241854","0.0-13.0-3.75","l","09","Sounds/correct.wav","null","1","","","","","","",""
"null","","audio-keyboard-response","356","4242744","0.0-13.0-0.76","l","09","Sounds/frog_sound.wav","null","1","","","","","","",""
"null","","html-keyboard-response","357","4243746","0.0-13.0-1.76","l","09","<p style=""font-size: 48px;"">+</p>","null","1","","","","","","",""
"620.4999999608845","","image-keyboard-response","358","4244368","0.0-13.0-2.76","l","09","Images/train_orig.png","65","1","1581557028649","non-match","train","frog","sound","test","true"
"null","","audio-keyboard-response","359","4246383","0.0-13.0-3.76","l","09","Sounds/correct.wav","null","1","","","","","","",""
"null","","audio-keyboard-response","360","4247223","0.0-13.0-0.77","l","09","Sounds/cat_sound.wav","null","1","","","","","","",""
"null","","html-keyboard-response","361","4248213","0.0-13.0-1.77","l","09","<p style=""font-size: 48px;"">+</p>","null","1","","","","","","",""
"490.25000003166497","","image-keyboard-response","362","4248704","0.0-13.0-2.77","l","09","Images/cat_cartoon.png","76","1","1581557033116","match","cat","cat","sound","test","true"
"null","","audio-keyboard-response","363","4250716","0.0-13.0-3.77","l","09","Sounds/correct.wav","null","1","","","","","","",""
"null","","audio-keyboard-response","364","4251424","0.0-13.0-0.78","l","09","Sounds/whistle_label.wav","null","1","","","","","","",""
"null","","html-keyboard-response","365","4252413","0.0-13.0-1.78","l","09","<p style=""font-size: 48px;"">+</p>","null","1","","","","","","",""
"946.1149999406189","","image-keyboard-response","366","4253360","0.0-13.0-2.78","l","09","Images/whistle_3.png","76","1","1581557037316","match","whistle","whistle","label","test","true"
"null","","audio-keyboard-response","367","4255368","0.0-13.0-3.78","l","09","Sounds/correct.wav","null","1","","","","","","",""
"null","","audio-keyboard-response","368","4256484","0.0-13.0-0.79","l","09","Sounds/motorcycle_sound.wav","null","1","","","","","","",""
"null","","html-keyboard-response","369","4257479","0.0-13.0-1.79","l","09","<p style=""font-size: 48px;"">+</p>","null","1","","","","","","",""
"743.3400000445545","","image-keyboard-response","370","4258224","0.0-13.0-2.79","l","09","Images/cat_3.png","65","1","1581557042382","non-match","cat","motorcycle","sound","test","true"
"null","","audio-keyboard-response","371","4260233","0.0-13.0-3.79","l","09","Sounds/correct.wav","null","1","","","","","","",""
"null","","audio-keyboard-response","372","4261064","0.0-13.0-0.80","l","09","Sounds/cat_label.wav","null","1","","","","","","",""
"null","","html-keyboard-response","373","4262063","0.0-13.0-1.80","l","09","<p style=""font-size: 48px;"">+</p>","null","1","","","","","","",""
"528.2650000881404","","image-keyboard-response","374","4262592","0.0-13.0-2.80","l","09","Images/whistle_1.png","65","1","1581557046966","non-match","whistle","cat","label","test","true"
"null","","audio-keyboard-response","375","4264603","0.0-13.0-3.80","l","09","Sounds/correct.wav","null","1","","","","","","",""
"null","","audio-keyboard-response","376","4265184","0.0-13.0-0.81","l","09","Sounds/gun_label.wav","null","1","","","","","","",""
"null","","html-keyboard-response","377","4266180","0.0-13.0-1.81","l","09","<p style=""font-size: 48px;"">+</p>","null","1","","","","","","",""
"507.0400000549853","","image-keyboard-response","378","4266688","0.0-13.0-2.81","l","09","Images/gun_orig.png","76","1","1581557051083","match","gun","gun","label","test","true"
"null","","audio-keyboard-response","379","4268700","0.0-13.0-3.81","l","09","Sounds/correct.wav","null","1","","","","","","",""
"null","","audio-keyboard-response","380","4269604","0.0-13.0-0.82","l","09","Sounds/frog_label.wav","null","1","","","","","","",""
"null","","html-keyboard-response","381","4270596","0.0-13.0-1.82","l","09","<p style=""font-size: 48px;"">+</p>","null","1","","","","","","",""
"586.515000090003","","image-keyboard-response","382","4271184","0.0-13.0-2.82","l","09","Images/cow_2.png","65","1","1581557055499","non-match","cow","frog","label","test","true"
"null","","audio-keyboard-response","383","4273200","0.0-13.0-3.82","l","09","Sounds/correct.wav","null","1","","","","","","",""
"null","","audio-keyboard-response","384","4273904","0.0-13.0-0.83","l","09","Sounds/whistle_label.wav","null","1","","","","","","",""
"null","","html-keyboard-response","385","4274896","0.0-13.0-1.83","l","09","<p style=""font-size: 48px;"">+</p>","null","1","","","","","","",""
"526.490000076592","","image-keyboard-response","386","4275424","0.0-13.0-2.83","l","09","Images/train_cartoon.png","65","1","1581557059799","non-match","train","whistle","label","test","true"
"null","","audio-keyboard-response","387","4277433","0.0-13.0-3.83","l","09","Sounds/correct.wav","null","1","","","","","","",""
"null","","audio-keyboard-response","388","4278504","0.0-13.0-0.84","l","09","Sounds/car_sound.wav","null","1","","","","","","",""
"null","","html-keyboard-response","389","4279496","0.0-13.0-1.84","l","09","<p style=""font-size: 48px;"">+</p>","null","1","","","","","","",""
"502.6049999287352","","image-keyboard-response","390","4280000","0.0-13.0-2.84","l","09","Images/cow_cartoon.png","65","1","1581557064399","non-match","cow","car","sound","test","true"
"null","","audio-keyboard-response","391","4282017","0.0-13.0-3.84","l","09","Sounds/correct.wav","null","1","","","","","","",""
"null","","audio-keyboard-response","392","4282884","0.0-13.0-0.85","l","09","Sounds/frog_label.wav","null","1","","","","","","",""
"null","","html-keyboard-response","393","4283880","0.0-13.0-1.85","l","09","<p style=""font-size: 48px;"">+</p>","null","1","","","","","","",""
"516.7499999515712","","image-keyboard-response","394","4284400","0.0-13.0-2.85","l","09","Images/frog_cartoon.png","76","1","1581557068783","match","frog","frog","label","test","true"
"null","","audio-keyboard-response","395","4286417","0.0-13.0-3.85","l","09","Sounds/correct.wav","null","1","","","","","","",""
"null","","audio-keyboard-response","396","4287504","0.0-13.0-0.86","l","09","Sounds/car_label.wav","null","1","","","","","","",""
"null","","html-keyboard-response","397","4288497","0.0-13.0-1.86","l","09","<p style=""font-size: 48px;"">+</p>","null","1","","","","","","",""
"830.6299999821931","","image-keyboard-response","398","4289329","0.0-13.0-2.86","l","09","Images/motorcycle_2.png","76","1","1581557073400","non-match","motorcycle","car","label","test","false"
"null","","audio-keyboard-response","399","4291337","0.0-13.0-3.86","l","09","Sounds/incorrect.wav","null","1","","","","","","",""
"null","","audio-keyboard-response","400","4292045","0.0-13.0-0.87","l","09","Sounds/rooster_sound.wav","null","1","","","","","","",""
"null","","html-keyboard-response","401","4293047","0.0-13.0-1.87","l","09","<p style=""font-size: 48px;"">+</p>","null","1","","","","","","",""
"536.2800000002608","","image-keyboard-response","402","4293585","0.0-13.0-2.87","l","09","Images/gun_cartoon.png","65","1","1581557077950","non-match","gun","rooster","sound","test","true"
"null","","audio-keyboard-response","403","4295602","0.0-13.0-3.87","l","09","Sounds/correct.wav","null","1","","","","","","",""
"null","","audio-keyboard-response","404","4296624","0.0-13.0-0.88","l","09","Sounds/cow_label.wav","null","1","","","","","","",""
"null","","html-keyboard-response","405","4297631","0.0-13.0-1.88","l","09","<p style=""font-size: 48px;"">+</p>","null","1","","","","","","",""
"560.5750000104308","","image-keyboard-response","406","4298193","0.0-13.0-2.88","l","09","Images/cow_1.png","76","1","1581557082534","match","cow","cow","label","test","true"
"null","","audio-keyboard-response","407","4300200","0.0-13.0-3.88","l","09","Sounds/correct.wav","null","1","","","","","","",""
"null","","audio-keyboard-response","408","4301244","0.0-13.0-0.89","l","09","Sounds/car_label.wav","null","1","","","","","","",""
"null","","html-keyboard-response","409","4302247","0.0-13.0-1.89","l","09","<p style=""font-size: 48px;"">+</p>","null","1","","","","","","",""
"776.465000002645","","image-keyboard-response","410","4303025","0.0-13.0-2.89","l","09","Images/whistle_2.png","65","1","1581557087151","non-match","whistle","car","label","test","true"
"null","","audio-keyboard-response","411","4305036","0.0-13.0-3.89","l","09","Sounds/correct.wav","null","1","","","","","","",""
"null","","audio-keyboard-response","412","4306084","0.0-13.0-0.90","l","09","Sounds/car_label.wav","null","1","","","","","","",""
"null","","html-keyboard-response","413","4307081","0.0-13.0-1.90","l","09","<p style=""font-size: 48px;"">+</p>","null","1","","","","","","",""
"662.7749999752268","","image-keyboard-response","414","4307745","0.0-13.0-2.90","l","09","Images/car_cartoon.png","76","1","1581557091984","match","car","car","label","test","true"
"null","","audio-keyboard-response","415","4309753","0.0-13.0-3.90","l","09","Sounds/correct.wav","null","1","","","","","","",""
"null","","audio-keyboard-response","416","4310324","0.0-13.0-0.91","l","09","Sounds/gun_label.wav","null","1","","","","","","",""
"null","","html-keyboard-response","417","4311314","0.0-13.0-1.91","l","09","<p style=""font-size: 48px;"">+</p>","null","1","","","","","","",""
"781.554999994114","","image-keyboard-response","418","4312097","0.0-13.0-2.91","l","09","Images/frog_cartoon.png","65","1","1581557096217","non-match","frog","gun","label","test","true"
"null","","audio-keyboard-response","419","4314105","0.0-13.0-3.91","l","09","Sounds/correct.wav","null","1","","","","","","",""
"null","","audio-keyboard-response","420","4315124","0.0-13.0-0.92","l","09","Sounds/cow_sound.wav","null","1","","","","","","",""
"null","","html-keyboard-response","421","4316131","0.0-13.0-1.92","l","09","<p style=""font-size: 48px;"">+</p>","null","1","","","","","","",""
"460.5250000022352","","image-keyboard-response","422","4316593","0.0-13.0-2.92","l","09","Images/cow_2.png","76","1","1581557101034","match","cow","cow","sound","test","true"
"null","","audio-keyboard-response","423","4318601","0.0-13.0-3.92","l","09","Sounds/correct.wav","null","1","","","","","","",""
"null","","audio-keyboard-response","424","4319585","0.0-13.0-0.93","l","09","Sounds/cow_sound.wav","null","1","","","","","","",""
"null","","html-keyboard-response","425","4320581","0.0-13.0-1.93","l","09","<p style=""font-size: 48px;"">+</p>","null","1","","","","","","",""
"602.6650000130758","","image-keyboard-response","426","4321185","0.0-13.0-2.93","l","09","Images/rooster_1.png","65","1","1581557105484","non-match","rooster","cow","sound","test","true"
"null","","audio-keyboard-response","427","4323201","0.0-13.0-3.93","l","09","Sounds/correct.wav","null","1","","","","","","",""
"null","","audio-keyboard-response","428","4324504","0.0-13.0-0.94","l","09","Sounds/train_sound.wav","null","1","","","","","","",""
"null","","html-keyboard-response","429","4325498","0.0-13.0-1.94","l","09","<p style=""font-size: 48px;"">+</p>","null","1","","","","","","",""
"885.8199999667704","","image-keyboard-response","430","4326385","0.0-13.0-2.94","l","09","Images/whistle_3.png","65","1","1581557110401","non-match","whistle","train","sound","test","true"
"null","","audio-keyboard-response","431","4328402","0.0-13.0-3.94","l","09","Sounds/correct.wav","null","1","","","","","","",""
"null","","audio-keyboard-response","432","4329525","0.0-13.0-0.95","l","09","Sounds/motorcycle_sound.wav","null","1","","","","","","",""
"null","","html-keyboard-response","433","4330514","0.0-13.0-1.95","l","09","<p style=""font-size: 48px;"">+</p>","null","1","","","","","","",""
"651.4299999689683","","image-keyboard-response","434","4331169","0.0-13.0-2.95","l","09","Images/motorcycle_1.png","76","1","1581557115418","match","motorcycle","motorcycle","sound","test","true"
"null","","audio-keyboard-response","435","4333185","0.0-13.0-3.95","l","09","Sounds/correct.wav","null","1","","","","","","",""
"null","","audio-keyboard-response","436","4334465","0.0-13.0-0.96","l","09","Sounds/train_label.wav","null","1","","","","","","",""
"null","","html-keyboard-response","437","4335464","0.0-13.0-1.96","l","09","<p style=""font-size: 48px;"">+</p>","null","1","","","","","","",""
"951.2850000755861","","image-keyboard-response","438","4336416","0.0-13.0-2.96","l","09","Images/train_2.png","76","1","1581557120367","match","train","train","label","test","true"
"null","","audio-keyboard-response","439","4338420","0.0-13.0-3.96","l","09","Sounds/correct.wav","null","1","","","","","","",""
"null","","audio-keyboard-response","440","4339124","0.0-13.0-0.97","l","09","Sounds/rooster_label.wav","null","1","","","","","","",""
"null","","html-keyboard-response","441","4340131","0.0-13.0-1.97","l","09","<p style=""font-size: 48px;"">+</p>","null","1","","","","","","",""
"555.945000029169","","image-keyboard-response","442","4340689","0.0-13.0-2.97","l","09","Images/rooster_2.png","76","1","1581557125034","match","rooster","rooster","label","test","true"
"null","","audio-keyboard-response","443","4342702","0.0-13.0-3.97","l","09","Sounds/correct.wav","null","1","","","","","","",""
"null","","audio-keyboard-response","444","4343544","0.0-13.0-0.98","l","09","Sounds/cat_label.wav","null","1","","","","","","",""
"null","","html-keyboard-response","445","4344548","0.0-13.0-1.98","l","09","<p style=""font-size: 48px;"">+</p>","null","1","","","","","","",""
"684.0450000017881","","image-keyboard-response","446","4345233","0.0-13.0-2.98","l","09","Images/motorcycle_cartoon.png","65","1","1581557129451","non-match","motorcycle","cat","label","test","true"
"null","","audio-keyboard-response","447","4347237","0.0-13.0-3.98","l","09","Sounds/correct.wav","null","1","","","","","","",""
"null","","audio-keyboard-response","448","4347945","0.0-13.0-0.99","l","09","Sounds/rooster_sound.wav","null","1","","","","","","",""
"null","","html-keyboard-response","449","4348949","0.0-13.0-1.99","l","09","<p style=""font-size: 48px;"">+</p>","null","1","","","","","","",""
"475.6349999224767","","image-keyboard-response","450","4349425","0.0-13.0-2.99","l","09","Images/rooster_cartoon.png","76","1","1581557133852","match","rooster","rooster","sound","test","true"
"null","","audio-keyboard-response","451","4351435","0.0-13.0-3.99","l","09","Sounds/correct.wav","null","1","","","","","","",""
"13317.954999976791","","html-keyboard-response","452","4364753","0.0-14.0","l","09","<p>Please take this opportunity to rest your eyes before proceeding.</p><p>When ready, press the enter key to continue to the next set of trials.</p>","13","","","","","","","",""
"null","","audio-keyboard-response","453","4367642","0.0-15.0-0.0","l","09","Sounds/frog_sound.wav","null","2","","","","","","",""
"null","","html-keyboard-response","454","4368632","0.0-15.0-1.0","l","09","<p style=""font-size: 48px;"">+</p>","null","2","","","","","","",""
"664.1649999655783","","image-keyboard-response","455","4369297","0.0-15.0-2.0","l","09","Images/gun_cartoon.png","65","2","1581557153535","non-match","gun","frog","sound","test","true"
"null","","audio-keyboard-response","456","4371304","0.0-15.0-3.0","l","09","Sounds/correct.wav","null","2","","","","","","",""
"null","","audio-keyboard-response","457","4372202","0.0-15.0-0.1","l","09","Sounds/frog_sound.wav","null","2","","","","","","",""
"null","","html-keyboard-response","458","4373199","0.0-15.0-1.1","l","09","<p style=""font-size: 48px;"">+</p>","null","2","","","","","","",""
"529.3300000485033","","image-keyboard-response","459","4373729","0.0-15.0-2.1","l","09","Images/frog_3.png","76","2","1581557158102","match","frog","frog","sound","test","true"
"null","","audio-keyboard-response","460","4375738","0.0-15.0-3.1","l","09","Sounds/correct.wav","null","2","","","","","","",""
"null","","audio-keyboard-response","461","4376762","0.0-15.0-0.2","l","09","Sounds/cow_sound.wav","null","2","","","","","","",""
"null","","html-keyboard-response","462","4377766","0.0-15.0-1.2","l","09","<p style=""font-size: 48px;"">+</p>","null","2","","","","","","",""
"522.9599999729544","","image-keyboard-response","463","4378290","0.0-15.0-2.2","l","09","Images/gun_2.png","65","2","1581557162669","non-match","gun","cow","sound","test","true"
"null","","audio-keyboard-response","464","4380304","0.0-15.0-3.2","l","09","Sounds/correct.wav","null","2","","","","","","",""
"null","","audio-keyboard-response","465","4381002","0.0-15.0-0.3","l","09","Sounds/rooster_label.wav","null","2","","","","","","",""
"null","","html-keyboard-response","466","4381999","0.0-15.0-1.3","l","09","<p style=""font-size: 48px;"">+</p>","null","2","","","","","","",""
"673.4149999683723","","image-keyboard-response","467","4382673","0.0-15.0-2.3","l","09","Images/dog_cartoon.png","65","2","1581557166902","non-match","dog","rooster","label","test","true"
"null","","audio-keyboard-response","468","4384686","0.0-15.0-3.3","l","09","Sounds/correct.wav","null","2","","","","","","",""
"null","","audio-keyboard-response","469","4385382","0.0-15.0-0.4","l","09","Sounds/whistle_label.wav","null","2","","","","","","",""
"null","","html-keyboard-response","470","4386382","0.0-15.0-1.4","l","09","<p style=""font-size: 48px;"">+</p>","null","2","","","","","","",""
"546.1750000249594","","image-keyboard-response","471","4386929","0.0-15.0-2.4","l","09","Images/whistle_3.png","76","2","1581557171285","match","whistle","whistle","label","test","true"
"null","","audio-keyboard-response","472","4388938","0.0-15.0-3.4","l","09","Sounds/correct.wav","null","2","","","","","","",""
"null","","audio-keyboard-response","473","4389522","0.0-15.0-0.5","l","09","Sounds/gun_label.wav","null","2","","","","","","",""
"null","","html-keyboard-response","474","4390516","0.0-15.0-1.5","l","09","<p style=""font-size: 48px;"">+</p>","null","2","","","","","","",""
"636.8299999739975","","image-keyboard-response","475","4391153","0.0-15.0-2.5","l","09","Images/gun_3.png","76","2","1581557175419","match","gun","gun","label","test","true"
"null","","audio-keyboard-response","476","4393170","0.0-15.0-3.5","l","09","Sounds/correct.wav","null","2","","","","","","",""
"null","","audio-keyboard-response","477","4394282","0.0-15.0-0.6","l","09","Sounds/motorcycle_sound.wav","null","2","","","","","","",""
"null","","html-keyboard-response","478","4395282","0.0-15.0-1.6","l","09","<p style=""font-size: 48px;"">+</p>","null","2","","","","","","",""
"654.0800000075251","","image-keyboard-response","479","4395937","0.0-15.0-2.6","l","09","Images/motorcycle_2.png","76","2","1581557180186","match","motorcycle","motorcycle","sound","test","true"
"null","","audio-keyboard-response","480","4397953","0.0-15.0-3.6","l","09","Sounds/correct.wav","null","2","","","","","","",""
"null","","audio-keyboard-response","481","4398662","0.0-15.0-0.7","l","09","Sounds/dog_sound.wav","null","2","","","","","","",""
"null","","html-keyboard-response","482","4399666","0.0-15.0-1.7","l","09","<p style=""font-size: 48px;"">+</p>","null","2","","","","","","",""
"590.3450000332668","","image-keyboard-response","483","4400257","0.0-15.0-2.7","l","09","Images/whistle_orig.png","65","2","1581557184569","non-match","whistle","dog","sound","test","true"
"null","","audio-keyboard-response","484","4402270","0.0-15.0-3.7","l","09","Sounds/correct.wav","null","2","","","","","","",""
"null","","audio-keyboard-response","485","4402962","0.0-15.0-0.8","l","09","Sounds/dog_sound.wav","null","2","","","","","","",""
"null","","html-keyboard-response","486","4403966","0.0-15.0-1.8","l","09","<p style=""font-size: 48px;"">+</p>","null","2","","","","","","",""
"546.764999977313","","image-keyboard-response","487","4404514","0.0-15.0-2.8","l","09","Images/car_3.png","65","2","1581557188869","non-match","car","dog","sound","test","true"
"null","","audio-keyboard-response","488","4406521","0.0-15.0-3.8","l","09","Sounds/correct.wav","null","2","","","","","","",""
"null","","audio-keyboard-response","489","4407222","0.0-15.0-0.9","l","09","Sounds/whistle_sound.wav","null","2","","","","","","",""
"null","","html-keyboard-response","490","4408216","0.0-15.0-1.9","l","09","<p style=""font-size: 48px;"">+</p>","null","2","","","","","","",""
"536.4050000207499","","image-keyboard-response","491","4408753","0.0-15.0-2.9","l","09","Images/whistle_cartoon.png","76","2","1581557193119","match","whistle","whistle","sound","test","true"
"null","","audio-keyboard-response","492","4410770","0.0-15.0-3.9","l","09","Sounds/correct.wav","null","2","","","","","","",""
"null","","audio-keyboard-response","493","4411783","0.0-15.0-0.10","l","09","Sounds/cow_label.wav","null","2","","","","","","",""
"null","","html-keyboard-response","494","4412783","0.0-15.0-1.10","l","09","<p style=""font-size: 48px;"">+</p>","null","2","","","","","","",""
"593.6450000153854","","image-keyboard-response","495","4413378","0.0-15.0-2.10","l","09","Images/car_1.png","65","2","1581557197686","non-match","car","cow","label","test","true"
"null","","audio-keyboard-response","496","4415390","0.0-15.0-3.10","l","09","Sounds/correct.wav","null","2","","","","","","",""
"null","","audio-keyboard-response","497","4416083","0.0-15.0-0.11","l","09","Sounds/rooster_label.wav","null","2","","","","","","",""
"null","","html-keyboard-response","498","4417083","0.0-15.0-1.11","l","09","<p style=""font-size: 48px;"">+</p>","null","2","","","","","","",""
"437.87499994505197","","image-keyboard-response","499","4417522","0.0-15.0-2.11","l","09","Images/rooster_2.png","76","2","1581557201986","match","rooster","rooster","label","test","true"
"null","","audio-keyboard-response","500","4419537","0.0-15.0-3.11","l","09","Sounds/correct.wav","null","2","","","","","","",""
"null","","audio-keyboard-response","501","4420383","0.0-15.0-0.12","l","09","Sounds/cat_label.wav","null","2","","","","","","",""
"null","","html-keyboard-response","502","4421383","0.0-15.0-1.12","l","09","<p style=""font-size: 48px;"">+</p>","null","2","","","","","","",""
"569.8300000512972","","image-keyboard-response","503","4421954","0.0-15.0-2.12","l","09","Images/cat_3.png","76","2","1581557206286","match","cat","cat","label","test","true"
"null","","audio-keyboard-response","504","4423971","0.0-15.0-3.12","l","09","Sounds/correct.wav","null","2","","","","","","",""
"null","","audio-keyboard-response","505","4424643","0.0-15.0-0.13","l","09","Sounds/whistle_sound.wav","null","2","","","","","","",""
"null","","html-keyboard-response","506","4425634","0.0-15.0-1.13","l","09","<p style=""font-size: 48px;"">+</p>","null","2","","","","","","",""
"527.4299999000505","","image-keyboard-response","507","4426162","0.0-15.0-2.13","l","09","Images/dog_2.png","65","2","1581557210537","non-match","dog","whistle","sound","test","true"
"null","","audio-keyboard-response","508","4428170","0.0-15.0-3.13","l","09","Sounds/correct.wav","null","2","","","","","","",""
"null","","audio-keyboard-response","509","4428883","0.0-15.0-0.14","l","09","Sounds/dog_sound.wav","null","2","","","","","","",""
"null","","html-keyboard-response","510","4429900","0.0-15.0-1.14","l","09","<p style=""font-size: 48px;"">+</p>","null","2","","","","","","",""
"484.93999999482185","","image-keyboard-response","511","4430386","0.0-15.0-2.14","l","09","Images/gun_3.png","65","2","1581557214803","non-match","gun","dog","sound","test","true"
"null","","audio-keyboard-response","512","4432389","0.0-15.0-3.14","l","09","Sounds/correct.wav","null","2","","","","","","",""
"null","","audio-keyboard-response","513","4432963","0.0-15.0-0.15","l","09","Sounds/gun_sound.wav","null","2","","","","","","",""
"null","","html-keyboard-response","514","4433967","0.0-15.0-1.15","l","09","<p style=""font-size: 48px;"">+</p>","null","2","","","","","","",""
"546.1500000674278","","image-keyboard-response","515","4434514","0.0-15.0-2.15","l","09","Images/gun_cartoon.png","76","2","1581557218870","match","gun","gun","sound","test","true"
"null","","audio-keyboard-response","516","4436522","0.0-15.0-3.15","l","09","Sounds/correct.wav","null","2","","","","","","",""
"null","","audio-keyboard-response","517","4437823","0.0-15.0-0.16","l","09","Sounds/train_sound.wav","null","2","","","","","","",""
"null","","html-keyboard-response","518","4438817","0.0-15.0-1.16","l","09","<p style=""font-size: 48px;"">+</p>","null","2","","","","","","",""
"752.1649999544024","","image-keyboard-response","519","4439570","0.0-15.0-2.16","l","09","Images/rooster_1.png","65","2","1581557223720","non-match","rooster","train","sound","test","true"
"null","","audio-keyboard-response","520","4441588","0.0-15.0-3.16","l","09","Sounds/correct.wav","null","2","","","","","","",""
"null","","audio-keyboard-response","521","4442143","0.0-15.0-0.17","l","09","Sounds/gun_sound.wav","null","2","","","","","","",""
"null","","html-keyboard-response","522","4443134","0.0-15.0-1.17","l","09","<p style=""font-size: 48px;"">+</p>","null","2","","","","","","",""
"467.61500008869916","","image-keyboard-response","523","4443602","0.0-15.0-2.17","l","09","Images/car_2.png","65","2","1581557228037","non-match","car","gun","sound","test","true"
"null","","audio-keyboard-response","524","4445605","0.0-15.0-3.17","l","09","Sounds/correct.wav","null","2","","","","","","",""
"null","","audio-keyboard-response","525","4446443","0.0-15.0-0.18","l","09","Sounds/cat_sound.wav","null","2","","","","","","",""
"null","","html-keyboard-response","526","4447434","0.0-15.0-1.18","l","09","<p style=""font-size: 48px;"">+</p>","null","2","","","","","","",""
"519.5700000040233","","image-keyboard-response","527","4447954","0.0-15.0-2.18","l","09","Images/cat_cartoon.png","76","2","1581557232337","match","cat","cat","sound","test","true"
"null","","audio-keyboard-response","528","4449971","0.0-15.0-3.18","l","09","Sounds/correct.wav","null","2","","","","","","",""
"null","","audio-keyboard-response","529","4450863","0.0-15.0-0.19","l","09","Sounds/frog_label.wav","null","2","","","","","","",""
"null","","html-keyboard-response","530","4451867","0.0-15.0-1.19","l","09","<p style=""font-size: 48px;"">+</p>","null","2","","","","","","",""
"517.7600000752136","","image-keyboard-response","531","4452386","0.0-15.0-2.19","l","09","Images/car_cartoon.png","65","2","1581557236770","non-match","car","frog","label","test","true"
"null","","audio-keyboard-response","532","4454389","0.0-15.0-3.19","l","09","Sounds/correct.wav","null","2","","","","","","",""
"null","","audio-keyboard-response","533","4455083","0.0-15.0-0.20","l","09","Sounds/rooster_label.wav","null","2","","","","","","",""
"null","","html-keyboard-response","534","4456101","0.0-15.0-1.20","l","09","<p style=""font-size: 48px;"">+</p>","null","2","","","","","","",""
"412.71000006236136","","image-keyboard-response","535","4456514","0.0-15.0-2.20","l","09","Images/rooster_3.png","76","2","1581557241004","match","rooster","rooster","label","test","true"
"null","","audio-keyboard-response","536","4458522","0.0-15.0-3.20","l","09","Sounds/correct.wav","null","2","","","","","","",""
"null","","audio-keyboard-response","537","4459343","0.0-15.0-0.21","l","09","Sounds/cat_sound.wav","null","2","","","","","","",""
"null","","html-keyboard-response","538","4460334","0.0-15.0-1.21","l","09","<p style=""font-size: 48px;"">+</p>","null","2","","","","","","",""
"563.3349999552593","","image-keyboard-response","539","4460898","0.0-15.0-2.21","l","09","Images/cat_1.png","76","2","1581557245237","match","cat","cat","sound","test","true"
"null","","audio-keyboard-response","540","4462907","0.0-15.0-3.21","l","09","Sounds/correct.wav","null","2","","","","","","",""
"null","","audio-keyboard-response","541","4463563","0.0-15.0-0.22","l","09","Sounds/dog_label.wav","null","2","","","","","","",""
"null","","html-keyboard-response","542","4464567","0.0-15.0-1.22","l","09","<p style=""font-size: 48px;"">+</p>","null","2","","","","","","",""
"489.5500000566244","","image-keyboard-response","543","4465058","0.0-15.0-2.22","l","09","Images/train_2.png","65","2","1581557249470","non-match","train","dog","label","test","true"
"null","","audio-keyboard-response","544","4467071","0.0-15.0-3.22","l","09","Sounds/correct.wav","null","2","","","","","","",""
"null","","audio-keyboard-response","545","4468363","0.0-15.0-0.23","l","09","Sounds/train_sound.wav","null","2","","","","","","",""
"null","","html-keyboard-response","546","4469367","0.0-15.0-1.23","l","09","<p style=""font-size: 48px;"">+</p>","null","2","","","","","","",""
"682.2499999543652","","image-keyboard-response","547","4470050","0.0-15.0-2.23","l","09","Images/dog_3.png","65","2","1581557254270","non-match","dog","train","sound","test","true"
"null","","audio-keyboard-response","548","4472057","0.0-15.0-3.23","l","09","Sounds/correct.wav","null","2","","","","","","",""
"null","","audio-keyboard-response","549","4472624","0.0-15.0-0.24","l","09","Sounds/gun_label.wav","null","2","","","","","","",""
"null","","html-keyboard-response","550","4473618","0.0-15.0-1.24","l","09","<p style=""font-size: 48px;"">+</p>","null","2","","","","","","",""
"607.7199999708682","","image-keyboard-response","551","4474227","0.0-15.0-2.24","l","09","Images/cow_2.png","65","2","1581557258521","non-match","cow","gun","label","test","true"
"null","","audio-keyboard-response","552","4476239","0.0-15.0-3.24","l","09","Sounds/correct.wav","null","2","","","","","","",""
"null","","audio-keyboard-response","553","4476944","0.0-15.0-0.25","l","09","Sounds/whistle_label.wav","null","2","","","","","","",""
"null","","html-keyboard-response","554","4477935","0.0-15.0-1.25","l","09","<p style=""font-size: 48px;"">+</p>","null","2","","","","","","",""
"530.9750000014901","","image-keyboard-response","555","4478467","0.0-15.0-2.25","l","09","Images/car_orig.png","65","2","1581557262838","non-match","car","whistle","label","test","true"
"null","","audio-keyboard-response","556","4480472","0.0-15.0-3.25","l","09","Sounds/correct.wav","null","2","","","","","","",""
"null","","audio-keyboard-response","557","4481584","0.0-15.0-0.26","l","09","Sounds/motorcycle_sound.wav","null","2","","","","","","",""
"null","","html-keyboard-response","558","4482602","0.0-15.0-1.26","l","09","<p style=""font-size: 48px;"">+</p>","null","2","","","","","","",""
"520.50500002224","","image-keyboard-response","559","4483123","0.0-15.0-2.26","l","09","Images/dog_1.png","65","2","1581557267505","non-match","dog","motorcycle","sound","test","true"
"null","","audio-keyboard-response","560","4485139","0.0-15.0-3.26","l","09","Sounds/correct.wav","null","2","","","","","","",""
"null","","audio-keyboard-response","561","4485844","0.0-15.0-0.27","l","09","Sounds/whistle_sound.wav","null","2","","","","","","",""
"null","","html-keyboard-response","562","4486835","0.0-15.0-1.27","l","09","<p style=""font-size: 48px;"">+</p>","null","2","","","","","","",""
"350.94500007107854","","image-keyboard-response","563","4487187","0.0-15.0-2.27","l","09","Images/rooster_3.png","65","2","1581557271738","non-match","rooster","whistle","sound","test","true"
"null","","audio-keyboard-response","564","4489192","0.0-15.0-3.27","l","09","Sounds/correct.wav","null","2","","","","","","",""
"null","","audio-keyboard-response","565","4489844","0.0-15.0-0.28","l","09","Sounds/dog_label.wav","null","2","","","","","","",""
"null","","html-keyboard-response","566","4490836","0.0-15.0-1.28","l","09","<p style=""font-size: 48px;"">+</p>","null","2","","","","","","",""
"430.07000000216067","","image-keyboard-response","567","4491267","0.0-15.0-2.28","l","09","Images/dog_2.png","76","2","1581557275738","match","dog","dog","label","test","true"
"null","","audio-keyboard-response","568","4493274","0.0-15.0-3.28","l","09","Sounds/correct.wav","null","2","","","","","","",""
"null","","audio-keyboard-response","569","4494164","0.0-15.0-0.29","l","09","Sounds/frog_label.wav","null","2","","","","","","",""
"null","","html-keyboard-response","570","4495169","0.0-15.0-1.29","l","09","<p style=""font-size: 48px;"">+</p>","null","2","","","","","","",""
"481.6700000083074","","image-keyboard-response","571","4495651","0.0-15.0-2.29","l","09","Images/frog_1.png","76","2","1581557280071","match","frog","frog","label","test","true"
"null","","audio-keyboard-response","572","4497657","0.0-15.0-3.29","l","09","Sounds/correct.wav","null","2","","","","","","",""
"null","","audio-keyboard-response","573","4498524","0.0-15.0-0.30","l","09","Sounds/frog_label.wav","null","2","","","","","","",""
"null","","html-keyboard-response","574","4499518","0.0-15.0-1.30","l","09","<p style=""font-size: 48px;"">+</p>","null","2","","","","","","",""
"451.6000000294298","","image-keyboard-response","575","4499971","0.0-15.0-2.30","l","09","Images/frog_2.png","76","2","1581557284421","match","frog","frog","label","test","true"
"null","","audio-keyboard-response","576","4501989","0.0-15.0-3.30","l","09","Sounds/correct.wav","null","2","","","","","","",""
"null","","audio-keyboard-response","577","4502704","0.0-15.0-0.31","l","09","Sounds/dog_sound.wav","null","2","","","","","","",""
"null","","html-keyboard-response","578","4503702","0.0-15.0-1.31","l","09","<p style=""font-size: 48px;"">+</p>","null","2","","","","","","",""
"635.5999999213964","","image-keyboard-response","579","4504339","0.0-15.0-2.31","l","09","Images/dog_cartoon.png","76","2","1581557288605","match","dog","dog","sound","test","true"
"null","","audio-keyboard-response","580","4506355","0.0-15.0-3.31","l","09","Sounds/correct.wav","null","2","","","","","","",""
"null","","audio-keyboard-response","581","4506984","0.0-15.0-0.32","l","09","Sounds/dog_label.wav","null","2","","","","","","",""
"null","","html-keyboard-response","582","4508002","0.0-15.0-1.32","l","09","<p style=""font-size: 48px;"">+</p>","null","2","","","","","","",""
"496.3149999966845","","image-keyboard-response","583","4508499","0.0-15.0-2.32","l","09","Images/dog_3.png","76","2","1581557292905","match","dog","dog","label","test","true"
"null","","audio-keyboard-response","584","4510507","0.0-15.0-3.32","l","09","Sounds/correct.wav","null","2","","","","","","",""
"null","","audio-keyboard-response","585","4511524","0.0-15.0-0.33","l","09","Sounds/cow_sound.wav","null","2","","","","","","",""
"null","","html-keyboard-response","586","4512518","0.0-15.0-1.33","l","09","<p style=""font-size: 48px;"">+</p>","null","2","","","","","","",""
"459.7849999554455","","image-keyboard-response","587","4512979","0.0-15.0-2.33","l","09","Images/cow_orig.png","76","2","1581557297422","match","cow","cow","sound","test","true"
"null","","audio-keyboard-response","588","4514990","0.0-15.0-3.33","l","09","Sounds/correct.wav","null","2","","","","","","",""
"null","","audio-keyboard-response","589","4516284","0.0-15.0-0.34","l","09","Sounds/train_label.wav","null","2","","","","","","",""
"null","","html-keyboard-response","590","4517302","0.0-15.0-1.34","l","09","<p style=""font-size: 48px;"">+</p>","null","2","","","","","","",""
"731.2699999893084","","image-keyboard-response","591","4518035","0.0-15.0-2.34","l","09","Images/cat_cartoon.png","76","2","1581557302205","non-match","cat","train","label","test","false"
"null","","audio-keyboard-response","592","4520040","0.0-15.0-3.34","l","09","Sounds/incorrect.wav","null","2","","","","","","",""
"null","","audio-keyboard-response","593","4520664","0.0-15.0-0.35","l","09","Sounds/dog_label.wav","null","2","","","","","","",""
"null","","html-keyboard-response","594","4521652","0.0-15.0-1.35","l","09","<p style=""font-size: 48px;"">+</p>","null","2","","","","","","",""
"718.0650000227615","","image-keyboard-response","595","4522371","0.0-15.0-2.35","l","09","Images/cow_1.png","65","2","1581557306555","non-match","cow","dog","label","test","true"
"null","","audio-keyboard-response","596","4524374","0.0-15.0-3.35","l","09","Sounds/correct.wav","null","2","","","","","","",""
"null","","audio-keyboard-response","597","4525204","0.0-15.0-0.36","l","09","Sounds/cat_sound.wav","null","2","","","","","","",""
"null","","html-keyboard-response","598","4526202","0.0-15.0-1.36","l","09","<p style=""font-size: 48px;"">+</p>","null","2","","","","","","",""
"487.9600000567734","","image-keyboard-response","599","4526691","0.0-15.0-2.36","l","09","Images/cat_orig.png","76","2","1581557311105","match","cat","cat","sound","test","true"
"null","","audio-keyboard-response","600","4528706","0.0-15.0-3.36","l","09","Sounds/correct.wav","null","2","","","","","","",""
"null","","audio-keyboard-response","601","4529404","0.0-15.0-0.37","l","09","Sounds/rooster_label.wav","null","2","","","","","","",""
"null","","html-keyboard-response","602","4530402","0.0-15.0-1.37","l","09","<p style=""font-size: 48px;"">+</p>","null","2","","","","","","",""
"575.8350000251085","","image-keyboard-response","603","4530979","0.0-15.0-2.37","l","09","Images/frog_3.png","65","2","1581557315305","non-match","frog","rooster","label","test","true"
"null","","audio-keyboard-response","604","4532990","0.0-15.0-3.37","l","09","Sounds/correct.wav","null","2","","","","","","",""
"null","","audio-keyboard-response","605","4533684","0.0-15.0-0.38","l","09","Sounds/whistle_sound.wav","null","2","","","","","","",""
"null","","html-keyboard-response","606","4534703","0.0-15.0-1.38","l","09","<p style=""font-size: 48px;"">+</p>","null","2","","","","","","",""
"883.8650000980124","","image-keyboard-response","607","4535588","0.0-15.0-2.38","l","09","Images/whistle_1.png","76","2","1581557319606","match","whistle","whistle","sound","test","true"
"null","","audio-keyboard-response","608","4537604","0.0-15.0-3.38","l","09","Sounds/correct.wav","null","2","","","","","","",""
"null","","audio-keyboard-response","609","4538284","0.0-15.0-0.39","l","09","Sounds/rooster_label.wav","null","2","","","","","","",""
"null","","html-keyboard-response","610","4539286","0.0-15.0-1.39","l","09","<p style=""font-size: 48px;"">+</p>","null","2","","","","","","",""
"460.33999999053776","","image-keyboard-response","611","4539748","0.0-15.0-2.39","l","09","Images/rooster_cartoon.png","76","2","1581557324189","match","rooster","rooster","label","test","true"
"null","","audio-keyboard-response","612","4541756","0.0-15.0-3.39","l","09","Sounds/correct.wav","null","2","","","","","","",""
"null","","audio-keyboard-response","613","4542344","0.0-15.0-0.40","l","09","Sounds/gun_sound.wav","null","2","","","","","","",""
"null","","html-keyboard-response","614","4543336","0.0-15.0-1.40","l","09","<p style=""font-size: 48px;"">+</p>","null","2","","","","","","",""
"490.1799999643117","","image-keyboard-response","615","4543828","0.0-15.0-2.40","l","09","Images/gun_2.png","76","2","1581557328239","match","gun","gun","sound","test","true"
"null","","audio-keyboard-response","616","4545840","0.0-15.0-3.40","l","09","Sounds/correct.wav","null","2","","","","","","",""
"null","","audio-keyboard-response","617","4546865","0.0-15.0-0.41","l","09","Sounds/cow_sound.wav","null","2","","","","","","",""
"null","","html-keyboard-response","618","4547870","0.0-15.0-1.41","l","09","<p style=""font-size: 48px;"">+</p>","null","2","","","","","","",""
"452.06499996129423","","image-keyboard-response","619","4548324","0.0-15.0-2.41","l","09","Images/cow_cartoon.png","76","2","1581557332773","match","cow","cow","sound","test","true"
"null","","audio-keyboard-response","620","4550340","0.0-15.0-3.41","l","09","Sounds/correct.wav","null","2","","","","","","",""
"null","","audio-keyboard-response","621","4551645","0.0-15.0-0.42","l","09","Sounds/train_label.wav","null","2","","","","","","",""
"null","","html-keyboard-response","622","4552636","0.0-15.0-1.42","l","09","<p style=""font-size: 48px;"">+</p>","null","2","","","","","","",""
"662.235000054352","","image-keyboard-response","623","4553300","0.0-15.0-2.42","l","09","Images/frog_2.png","65","2","1581557337540","non-match","frog","train","label","test","true"
"null","","audio-keyboard-response","624","4555311","0.0-15.0-3.42","l","09","Sounds/correct.wav","null","2","","","","","","",""
"null","","audio-keyboard-response","625","4556445","0.0-15.0-0.43","l","09","Sounds/motorcycle_label.wav","null","2","","","","","","",""
"null","","html-keyboard-response","626","4557436","0.0-15.0-1.43","l","09","<p style=""font-size: 48px;"">+</p>","null","2","","","","","","",""
"453.24499998241663","","image-keyboard-response","627","4557892","0.0-15.0-2.43","l","09","Images/motorcycle_cartoon.png","76","2","1581557342340","match","motorcycle","motorcycle","label","test","true"
"null","","audio-keyboard-response","628","4559907","0.0-15.0-3.43","l","09","Sounds/correct.wav","null","2","","","","","","",""
"null","","audio-keyboard-response","629","4560624","0.0-15.0-0.44","l","09","Sounds/dog_sound.wav","null","2","","","","","","",""
"null","","html-keyboard-response","630","4561620","0.0-15.0-1.44","l","09","<p style=""font-size: 48px;"">+</p>","null","2","","","","","","",""
"463.1550000049174","","image-keyboard-response","631","4562084","0.0-15.0-2.44","l","09","Images/dog_orig.png","76","2","1581557346523","match","dog","dog","sound","test","true"
"null","","audio-keyboard-response","632","4564092","0.0-15.0-3.44","l","09","Sounds/correct.wav","null","2","","","","","","",""
"null","","audio-keyboard-response","633","4564665","0.0-15.0-0.45","l","09","Sounds/gun_label.wav","null","2","","","","","","",""
"null","","html-keyboard-response","634","4565653","0.0-15.0-1.45","l","09","<p style=""font-size: 48px;"">+</p>","null","2","","","","","","",""
"413.5249999817461","","image-keyboard-response","635","4566068","0.0-15.0-2.45","l","09","Images/gun_orig.png","76","2","1581557350556","match","gun","gun","label","test","true"
"null","","audio-keyboard-response","636","4568075","0.0-15.0-3.45","l","09","Sounds/correct.wav","null","2","","","","","","",""
"null","","audio-keyboard-response","637","4569184","0.0-15.0-0.46","l","09","Sounds/motorcycle_sound.wav","null","2","","","","","","",""
"null","","html-keyboard-response","638","4570187","0.0-15.0-1.46","l","09","<p style=""font-size: 48px;"">+</p>","null","2","","","","","","",""
"712.0400000130758","","image-keyboard-response","639","4570900","0.0-15.0-2.46","l","09","Images/motorcycle_1.png","76","2","1581557355090","match","motorcycle","motorcycle","sound","test","true"
"null","","audio-keyboard-response","640","4572908","0.0-15.0-3.46","l","09","Sounds/correct.wav","null","2","","","","","","",""
"null","","audio-keyboard-response","641","4573744","0.0-15.0-0.47","l","09","Sounds/cat_sound.wav","null","2","","","","","","",""
"null","","html-keyboard-response","642","4574737","0.0-15.0-1.47","l","09","<p style=""font-size: 48px;"">+</p>","null","2","","","","","","",""
"610.1849999977276","","image-keyboard-response","643","4575348","0.0-15.0-2.47","l","09","Images/cow_cartoon.png","65","2","1581557359640","non-match","cow","cat","sound","test","true"
"null","","audio-keyboard-response","644","4577358","0.0-15.0-3.47","l","09","Sounds/correct.wav","null","2","","","","","","",""
"null","","audio-keyboard-response","645","4577904","0.0-15.0-0.48","l","09","Sounds/gun_label.wav","null","2","","","","","","",""
"null","","html-keyboard-response","646","4578903","0.0-15.0-1.48","l","09","<p style=""font-size: 48px;"">+</p>","null","2","","","","","","",""
"619.3000000203028","","image-keyboard-response","647","4579524","0.0-15.0-2.48","l","09","Images/frog_1.png","65","2","1581557363806","non-match","frog","gun","label","test","true"
"null","","audio-keyboard-response","648","4581526","0.0-15.0-3.48","l","09","Sounds/correct.wav","null","2","","","","","","",""
"null","","audio-keyboard-response","649","4582605","0.0-15.0-0.49","l","09","Sounds/car_label.wav","null","2","","","","","","",""
"null","","html-keyboard-response","650","4583603","0.0-15.0-1.49","l","09","<p style=""font-size: 48px;"">+</p>","null","2","","","","","","",""
"606.4649999607354","","image-keyboard-response","651","4584212","0.0-15.0-2.49","l","09","Images/frog_cartoon.png","65","2","1581557368507","non-match","frog","car","label","test","true"
"null","","audio-keyboard-response","652","4586225","0.0-15.0-3.49","l","09","Sounds/correct.wav","null","2","","","","","","",""
"null","","audio-keyboard-response","653","4587324","0.0-15.0-0.50","l","09","Sounds/motorcycle_sound.wav","null","2","","","","","","",""
"null","","html-keyboard-response","654","4588320","0.0-15.0-1.50","l","09","<p style=""font-size: 48px;"">+</p>","null","2","","","","","","",""
"594.8950001038611","","image-keyboard-response","655","4588916","0.0-15.0-2.50","l","09","Images/cat_3.png","65","2","1581557373223","non-match","cat","motorcycle","sound","test","true"
"null","","audio-keyboard-response","656","4590927","0.0-15.0-3.50","l","09","Sounds/correct.wav","null","2","","","","","","",""
"null","","audio-keyboard-response","657","4592224","0.0-15.0-0.51","l","09","Sounds/train_sound.wav","null","2","","","","","","",""
"null","","html-keyboard-response","658","4593221","0.0-15.0-1.51","l","09","<p style=""font-size: 48px;"">+</p>","null","2","","","","","","",""
