"rt","responses","trial_type","trial_index","time_elapsed","internal_node_id","match_key","participant_id","stimulus","key_press","block","stim_onset","match_type","image_category","sound_category","audio_type","phase","correct"
"5583.669999963604","{""Q0"":""24""}","survey-text","0","5633","0.0-0.0","a","24","","","","","","","","","",""
"94637.77000003029","","html-keyboard-response","1","100163","0.0-1.0","a","24","<p>Use KEYBOARD 2 (match LEFT)</p><p>Press MATCH to continue.</p>","65","","","","","","","",""
"3328040.694999974","","html-keyboard-response","2","3427539","0.0-2.0","a","24","<p>Welcome to the experiment.</p>","32","","","","","","","",""
"10891.880000010133","","html-keyboard-response","3","3438439","0.0-3.0","a","24","<p>Thank you for agreeing to participate in this study.</p><p>If during any part of the procedure you must stop for any reason, please inform the researcher that you do not wish to continue.</p>","40","","","","","","","",""
"19206.57499996014","","html-keyboard-response","4","3457647","0.0-4.0","a","24","<p>In this experiment, you will hear various words or sounds and see pictures of various animals and objects.</p><p>Most of the images will be of common everyday objects, such as cars, cats, cows, firearms, frogs, chickens, whistles, trains, motorcycles, and dogs.</p><p>Some of the images will be real-life stills, while others will be cartoons.</p>","40","","","","","","","",""
"14023.1850000564","","html-keyboard-response","5","3471672","0.0-5.0","a","24","<p>Sometimes, the word/sound will match the picture, for example you'll hear a meowing sound and see a cat.</p><p>Other times, the picture will not match the sound or word.</p><p>Your task is to decide as quickly as possible if the word/sound matches the picture or not. </p>","40","","","","","","","",""
"12918.474999954924","","html-keyboard-response","6","3484591","0.0-6.0","a","24","<p>For example, if you hear the word ""cat"" or hear a meowing sound, and then see a picture of a cat, you should press the MATCH key.</p><p> If the sound and image do not match, press the NOT-MATCH key to indicate that there is not a match.</p>","40","","","","","","","",""
"15103.125000023283","","html-keyboard-response","7","3499696","0.0-7.0","a","24","<p>If you make a mistake, you will hear a buzzing sound instead of a more pleasant sound.</p><p> Try to respond as quickly as possible, while making as few errors as possible. If you are making mistakes, you are probably rushing.</p>","40","","","","","","","",""
"10702.545000007376","","html-keyboard-response","8","3510399","0.0-8.0","a","24","<p>Please try to not move or blink your eyes during the presentation of the images. You can move and blink between images.</p><p>During the experiment there will be some breaks during which you can rest your eyes.</p>","40","","","","","","","",""
"21934.815000044182","","html-keyboard-response","9","3532335","0.0-9.0","a","24","<p>We will begin with 10 practice trials. Please let the experimenter know if you have any questions.</p>","32","","","","","","","",""
"null","","audio-keyboard-response","10","3533697","0.0-10.0-0.0","a","24","Sounds/train_label.wav","null","0","","","","","","",""
"null","","html-keyboard-response","11","3534715","0.0-10.0-1.0","a","24","<p style=""font-size: 48px;"">+</p>","null","0","","","","","","",""
"985.6249999720603","","image-keyboard-response","12","3535703","0.0-10.0-2.0","a","24","Images/train_1.png","65","0","1582495199983","match","train","train","label","practice","true"
"null","","audio-keyboard-response","13","3537720","0.0-10.0-3.0","a","24","Sounds/correct.wav","null","0","","","","","","",""
"null","","audio-keyboard-response","14","3539016","0.0-10.0-0.1","a","24","Sounds/train_sound.wav","null","0","","","","","","",""
"null","","html-keyboard-response","15","3540015","0.0-10.0-1.1","a","24","<p style=""font-size: 48px;"">+</p>","null","0","","","","","","",""
"670.1149999862537","","image-keyboard-response","16","3540686","0.0-10.0-2.1","a","24","Images/train_3.png","65","0","1582495205283","match","train","train","sound","practice","true"
"null","","audio-keyboard-response","17","3542696","0.0-10.0-3.1","a","24","Sounds/correct.wav","null","0","","","","","","",""
"null","","audio-keyboard-response","18","3543396","0.0-10.0-0.2","a","24","Sounds/dog_sound.wav","null","0","","","","","","",""
"null","","html-keyboard-response","19","3544398","0.0-10.0-1.2","a","24","<p style=""font-size: 48px;"">+</p>","null","0","","","","","","",""
"687.0300000300631","","image-keyboard-response","20","3545087","0.0-10.0-2.2","a","24","Images/whistle_1.png","76","0","1582495209666","non-match","whistle","dog","sound","practice","true"
"null","","audio-keyboard-response","21","3547095","0.0-10.0-3.2","a","24","Sounds/correct.wav","null","0","","","","","","",""
"null","","audio-keyboard-response","22","3547996","0.0-10.0-0.3","a","24","Sounds/frog_label.wav","null","0","","","","","","",""
"null","","html-keyboard-response","23","3548998","0.0-10.0-1.3","a","24","<p style=""font-size: 48px;"">+</p>","null","0","","","","","","",""
"654.8450000118464","","image-keyboard-response","24","3549654","0.0-10.0-2.3","a","24","Images/cat_orig.png","76","0","1582495214267","non-match","cat","frog","label","practice","true"
"null","","audio-keyboard-response","25","3551665","0.0-10.0-3.3","a","24","Sounds/correct.wav","null","0","","","","","","",""
"null","","audio-keyboard-response","26","3552676","0.0-10.0-0.4","a","24","Sounds/cow_label.wav","null","0","","","","","","",""
"null","","html-keyboard-response","27","3553682","0.0-10.0-1.4","a","24","<p style=""font-size: 48px;"">+</p>","null","0","","","","","","",""
"603.5449999617413","","image-keyboard-response","28","3554286","0.0-10.0-2.4","a","24","Images/cat_cartoon.png","76","0","1582495218950","non-match","cat","cow","label","practice","true"
"null","","audio-keyboard-response","29","3556303","0.0-10.0-3.4","a","24","Sounds/correct.wav","null","0","","","","","","",""
"null","","audio-keyboard-response","30","3557376","0.0-10.0-0.5","a","24","Sounds/car_sound.wav","null","0","","","","","","",""
"null","","html-keyboard-response","31","3558382","0.0-10.0-1.5","a","24","<p style=""font-size: 48px;"">+</p>","null","0","","","","","","",""
"791.3450000341982","","image-keyboard-response","32","3559174","0.0-10.0-2.5","a","24","Images/car_3.png","65","0","1582495223650","match","car","car","sound","practice","true"
"null","","audio-keyboard-response","33","3561187","0.0-10.0-3.5","a","24","Sounds/correct.wav","null","0","","","","","","",""
"null","","audio-keyboard-response","34","3562236","0.0-10.0-0.6","a","24","Sounds/car_sound.wav","null","0","","","","","","",""
"null","","html-keyboard-response","35","3563232","0.0-10.0-1.6","a","24","<p style=""font-size: 48px;"">+</p>","null","0","","","","","","",""
"749.6549999341369","","image-keyboard-response","36","3563982","0.0-10.0-2.6","a","24","Images/car_cartoon.png","65","0","1582495228500","match","car","car","sound","practice","true"
"null","","audio-keyboard-response","37","3565993","0.0-10.0-3.6","a","24","Sounds/correct.wav","null","0","","","","","","",""
"null","","audio-keyboard-response","38","3566696","0.0-10.0-0.7","a","24","Sounds/whistle_label.wav","null","0","","","","","","",""
"null","","html-keyboard-response","39","3567698","0.0-10.0-1.7","a","24","<p style=""font-size: 48px;"">+</p>","null","0","","","","","","",""
"666.9400000246242","","image-keyboard-response","40","3568366","0.0-10.0-2.7","a","24","Images/gun_3.png","76","0","1582495232967","non-match","gun","whistle","label","practice","true"
"null","","audio-keyboard-response","41","3570371","0.0-10.0-3.7","a","24","Sounds/correct.wav","null","0","","","","","","",""
"null","","audio-keyboard-response","42","3571036","0.0-10.0-0.8","a","24","Sounds/whistle_label.wav","null","0","","","","","","",""
"null","","html-keyboard-response","43","3572032","0.0-10.0-1.8","a","24","<p style=""font-size: 48px;"">+</p>","null","0","","","","","","",""
"557.4999999953434","","image-keyboard-response","44","3572591","0.0-10.0-2.8","a","24","Images/motorcycle_3.png","76","0","1582495237300","non-match","motorcycle","whistle","label","practice","true"
"null","","audio-keyboard-response","45","3574593","0.0-10.0-3.8","a","24","Sounds/correct.wav","null","0","","","","","","",""
"null","","audio-keyboard-response","46","3575676","0.0-10.0-0.9","a","24","Sounds/car_label.wav","null","0","","","","","","",""
"null","","html-keyboard-response","47","3576682","0.0-10.0-1.9","a","24","<p style=""font-size: 48px;"">+</p>","null","0","","","","","","",""
"651.0600000619888","","image-keyboard-response","48","3577334","0.0-10.0-2.9","a","24","Images/motorcycle_2.png","76","0","1582495241950","non-match","motorcycle","car","label","practice","true"
"null","","audio-keyboard-response","49","3579347","0.0-10.0-3.9","a","24","Sounds/correct.wav","null","0","","","","","","",""
"42939.160000067204","","html-keyboard-response","50","3622287","0.0-11.0","a","24","<p>The rest of the experiment is divided into five blocks with 100 trials in each block. It will take about 45 minutes to complete.</p><p>The experimenter will be in the outer room and you can communicate with them through the monitor if you have any questions or wish to stop the experiment.</p>","32","","","","","","","",""
"12734.464999986812","","html-keyboard-response","51","3635023","0.0-12.0","a","24","<p>Remember, please try not to move or blink your eyes during the presentation of the images. </p><p>At the end of the experiment, we will show you your scores on the task so you can see how you did.</p><p>The experiment will start on the next screen.</p>","32","","","","","","","",""
"null","","audio-keyboard-response","52","3637892","0.0-13.0-0.0","a","24","Sounds/cat_sound.wav","null","1","","","","","","",""
"null","","html-keyboard-response","53","3638883","0.0-13.0-1.0","a","24","<p style=""font-size: 48px;"">+</p>","null","1","","","","","","",""
"594.3849999457598","","image-keyboard-response","54","3639478","0.0-13.0-2.0","a","24","Images/cat_1.png","65","1","1582495304151","match","cat","cat","sound","test","true"
"null","","audio-keyboard-response","55","3641491","0.0-13.0-3.0","a","24","Sounds/correct.wav","null","1","","","","","","",""
"null","","audio-keyboard-response","56","3642194","0.0-13.0-0.1","a","24","Sounds/whistle_sound.wav","null","1","","","","","","",""
"null","","html-keyboard-response","57","3643183","0.0-13.0-1.1","a","24","<p style=""font-size: 48px;"">+</p>","null","1","","","","","","",""
"534.709999919869","","image-keyboard-response","58","3643718","0.0-13.0-2.1","a","24","Images/train_orig.png","76","1","1582495308451","non-match","train","whistle","sound","test","true"
"null","","audio-keyboard-response","59","3645726","0.0-13.0-3.1","a","24","Sounds/correct.wav","null","1","","","","","","",""
"null","","audio-keyboard-response","60","3646313","0.0-13.0-0.2","a","24","Sounds/gun_sound.wav","null","1","","","","","","",""
"null","","html-keyboard-response","61","3647316","0.0-13.0-1.2","a","24","<p style=""font-size: 48px;"">+</p>","null","1","","","","","","",""
"577.5000000139698","","image-keyboard-response","62","3647894","0.0-13.0-2.2","a","24","Images/cow_1.png","76","1","1582495312584","non-match","cow","gun","sound","test","true"
"null","","audio-keyboard-response","63","3649904","0.0-13.0-3.2","a","24","Sounds/correct.wav","null","1","","","","","","",""
"null","","audio-keyboard-response","64","3650812","0.0-13.0-0.3","a","24","Sounds/frog_sound.wav","null","1","","","","","","",""
"null","","html-keyboard-response","65","3651816","0.0-13.0-1.3","a","24","<p style=""font-size: 48px;"">+</p>","null","1","","","","","","",""
"565.2049999916926","","image-keyboard-response","66","3652382","0.0-13.0-2.3","a","24","Images/motorcycle_orig.png","76","1","1582495317084","non-match","motorcycle","frog","sound","test","true"
"null","","audio-keyboard-response","67","3654389","0.0-13.0-3.3","a","24","Sounds/correct.wav","null","1","","","","","","",""
"null","","audio-keyboard-response","68","3655192","0.0-13.0-0.4","a","24","Sounds/cat_sound.wav","null","1","","","","","","",""
"null","","html-keyboard-response","69","3656199","0.0-13.0-1.4","a","24","<p style=""font-size: 48px;"">+</p>","null","1","","","","","","",""
"646.0050001041964","","image-keyboard-response","70","3656846","0.0-13.0-2.4","a","24","Images/cow_3.png","76","1","1582495321467","non-match","cow","cat","sound","test","true"
"null","","audio-keyboard-response","71","3658850","0.0-13.0-3.4","a","24","Sounds/correct.wav","null","1","","","","","","",""
"null","","audio-keyboard-response","72","3659972","0.0-13.0-0.5","a","24","Sounds/motorcycle_sound.wav","null","1","","","","","","",""
"null","","html-keyboard-response","73","3660966","0.0-13.0-1.5","a","24","<p style=""font-size: 48px;"">+</p>","null","1","","","","","","",""
"631.3649999210611","","image-keyboard-response","74","3661598","0.0-13.0-2.5","a","24","Images/cat_3.png","76","1","1582495326234","non-match","cat","motorcycle","sound","test","true"
"null","","audio-keyboard-response","75","3663602","0.0-13.0-3.5","a","24","Sounds/correct.wav","null","1","","","","","","",""
"null","","audio-keyboard-response","76","3664292","0.0-13.0-0.6","a","24","Sounds/whistle_label.wav","null","1","","","","","","",""
"null","","html-keyboard-response","77","3665283","0.0-13.0-1.6","a","24","<p style=""font-size: 48px;"">+</p>","null","1","","","","","","",""
"602.2249999223277","","image-keyboard-response","78","3665886","0.0-13.0-2.6","a","24","Images/whistle_2.png","65","1","1582495330551","match","whistle","whistle","label","test","true"
"null","","audio-keyboard-response","79","3667902","0.0-13.0-3.6","a","24","Sounds/correct.wav","null","1","","","","","","",""
"null","","audio-keyboard-response","80","3669192","0.0-13.0-0.7","a","24","Sounds/train_sound.wav","null","1","","","","","","",""
"null","","html-keyboard-response","81","3670183","0.0-13.0-1.7","a","24","<p style=""font-size: 48px;"">+</p>","null","1","","","","","","",""
"502.3700000019744","","image-keyboard-response","82","3670686","0.0-13.0-2.7","a","24","Images/rooster_1.png","76","1","1582495335451","non-match","rooster","train","sound","test","true"
"null","","audio-keyboard-response","83","3672694","0.0-13.0-3.7","a","24","Sounds/correct.wav","null","1","","","","","","",""
"null","","audio-keyboard-response","84","3673612","0.0-13.0-0.8","a","24","Sounds/frog_sound.wav","null","1","","","","","","",""
"null","","html-keyboard-response","85","3674616","0.0-13.0-1.8","a","24","<p style=""font-size: 48px;"">+</p>","null","1","","","","","","",""
"477.2400000365451","","image-keyboard-response","86","3675094","0.0-13.0-2.8","a","24","Images/frog_cartoon.png","65","1","1582495339884","match","frog","frog","sound","test","true"
"null","","audio-keyboard-response","87","3677097","0.0-13.0-3.8","a","24","Sounds/correct.wav","null","1","","","","","","",""
"null","","audio-keyboard-response","88","3677812","0.0-13.0-0.9","a","24","Sounds/dog_sound.wav","null","1","","","","","","",""
"null","","html-keyboard-response","89","3678816","0.0-13.0-1.9","a","24","<p style=""font-size: 48px;"">+</p>","null","1","","","","","","",""
"524.6449999976903","","image-keyboard-response","90","3679342","0.0-13.0-2.9","a","24","Images/motorcycle_3.png","65","1","1582495344084","non-match","motorcycle","dog","sound","test","false"
"null","","audio-keyboard-response","91","3681358","0.0-13.0-3.9","a","24","Sounds/incorrect.wav","null","1","","","","","","",""
"null","","audio-keyboard-response","92","3682472","0.0-13.0-0.10","a","24","Sounds/motorcycle_label.wav","null","1","","","","","","",""
"null","","html-keyboard-response","93","3683466","0.0-13.0-1.10","a","24","<p style=""font-size: 48px;"">+</p>","null","1","","","","","","",""
"570.8350000204518","","image-keyboard-response","94","3684038","0.0-13.0-2.10","a","24","Images/whistle_2.png","76","1","1582495348734","non-match","whistle","motorcycle","label","test","true"
"null","","audio-keyboard-response","95","3686055","0.0-13.0-3.10","a","24","Sounds/correct.wav","null","1","","","","","","",""
"null","","audio-keyboard-response","96","3686752","0.0-13.0-0.11","a","24","Sounds/dog_sound.wav","null","1","","","","","","",""
"null","","html-keyboard-response","97","3687749","0.0-13.0-1.11","a","24","<p style=""font-size: 48px;"">+</p>","null","1","","","","","","",""
"623.5249999444932","","image-keyboard-response","98","3688374","0.0-13.0-2.11","a","24","Images/gun_2.png","76","1","1582495353017","non-match","gun","dog","sound","test","true"
"null","","audio-keyboard-response","99","3690384","0.0-13.0-3.11","a","24","Sounds/correct.wav","null","1","","","","","","",""
"null","","audio-keyboard-response","100","3691092","0.0-13.0-0.12","a","24","Sounds/rooster_sound.wav","null","1","","","","","","",""
"null","","html-keyboard-response","101","3692083","0.0-13.0-1.12","a","24","<p style=""font-size: 48px;"">+</p>","null","1","","","","","","",""
"650.2199999522418","","image-keyboard-response","102","3692734","0.0-13.0-2.12","a","24","Images/rooster_orig.png","65","1","1582495357351","match","rooster","rooster","sound","test","true"
"null","","audio-keyboard-response","103","3694750","0.0-13.0-3.12","a","24","Sounds/correct.wav","null","1","","","","","","",""
"null","","audio-keyboard-response","104","3695592","0.0-13.0-0.13","a","24","Sounds/cat_sound.wav","null","1","","","","","","",""
"null","","html-keyboard-response","105","3696583","0.0-13.0-1.13","a","24","<p style=""font-size: 48px;"">+</p>","null","1","","","","","","",""
"541.9800000963733","","image-keyboard-response","106","3697126","0.0-13.0-2.13","a","24","Images/rooster_orig.png","76","1","1582495361851","non-match","rooster","cat","sound","test","true"
"null","","audio-keyboard-response","107","3699140","0.0-13.0-3.13","a","24","Sounds/correct.wav","null","1","","","","","","",""
"null","","audio-keyboard-response","108","3700252","0.0-13.0-0.14","a","24","Sounds/motorcycle_label.wav","null","1","","","","","","",""
"null","","html-keyboard-response","109","3701249","0.0-13.0-1.14","a","24","<p style=""font-size: 48px;"">+</p>","null","1","","","","","","",""
"619.2449999507517","","image-keyboard-response","110","3701870","0.0-13.0-2.14","a","24","Images/motorcycle_cartoon.png","65","1","1582495366518","match","motorcycle","motorcycle","label","test","true"
"null","","audio-keyboard-response","111","3703884","0.0-13.0-3.14","a","24","Sounds/correct.wav","null","1","","","","","","",""
"null","","audio-keyboard-response","112","3704452","0.0-13.0-0.15","a","24","Sounds/gun_sound.wav","null","1","","","","","","",""
"null","","html-keyboard-response","113","3705449","0.0-13.0-1.15","a","24","<p style=""font-size: 48px;"">+</p>","null","1","","","","","","",""
"859.5450000138953","","image-keyboard-response","114","3706310","0.0-13.0-2.15","a","24","Images/gun_3.png","65","1","1582495370718","match","gun","gun","sound","test","true"
"null","","audio-keyboard-response","115","3708317","0.0-13.0-3.15","a","24","Sounds/correct.wav","null","1","","","","","","",""
"null","","audio-keyboard-response","116","3709392","0.0-13.0-0.16","a","24","Sounds/car_label.wav","null","1","","","","","","",""
"null","","html-keyboard-response","117","3710383","0.0-13.0-1.16","a","24","<p style=""font-size: 48px;"">+</p>","null","1","","","","","","",""
"574.06000001356","","image-keyboard-response","118","3710958","0.0-13.0-2.16","a","24","Images/car_1.png","65","1","1582495375651","match","car","car","label","test","true"
"null","","audio-keyboard-response","119","3712973","0.0-13.0-3.16","a","24","Sounds/correct.wav","null","1","","","","","","",""
"null","","audio-keyboard-response","120","3713672","0.0-13.0-0.17","a","24","Sounds/whistle_label.wav","null","1","","","","","","",""
"null","","html-keyboard-response","121","3714666","0.0-13.0-1.17","a","24","<p style=""font-size: 48px;"">+</p>","null","1","","","","","","",""
"546.7750000534579","","image-keyboard-response","122","3715214","0.0-13.0-2.17","a","24","Images/whistle_cartoon.png","65","1","1582495379935","match","whistle","whistle","label","test","true"
"null","","audio-keyboard-response","123","3717225","0.0-13.0-3.17","a","24","Sounds/correct.wav","null","1","","","","","","",""
"null","","audio-keyboard-response","124","3718292","0.0-13.0-0.18","a","24","Sounds/car_sound.wav","null","1","","","","","","",""
"null","","html-keyboard-response","125","3719283","0.0-13.0-1.18","a","24","<p style=""font-size: 48px;"">+</p>","null","1","","","","","","",""
"609.9000000394881","","image-keyboard-response","126","3719894","0.0-13.0-2.18","a","24","Images/car_cartoon.png","65","1","1582495384551","match","car","car","sound","test","true"
"null","","audio-keyboard-response","127","3721904","0.0-13.0-3.18","a","24","Sounds/correct.wav","null","1","","","","","","",""
"null","","audio-keyboard-response","128","3722792","0.0-13.0-0.19","a","24","Sounds/frog_label.wav","null","1","","","","","","",""
"null","","html-keyboard-response","129","3723783","0.0-13.0-1.19","a","24","<p style=""font-size: 48px;"">+</p>","null","1","","","","","","",""
"549.8150000348687","","image-keyboard-response","130","3724334","0.0-13.0-2.19","a","24","Images/gun_cartoon.png","76","1","1582495389051","non-match","gun","frog","label","test","true"
"null","","audio-keyboard-response","131","3726343","0.0-13.0-3.19","a","24","Sounds/correct.wav","null","1","","","","","","",""
"null","","audio-keyboard-response","132","3727472","0.0-13.0-0.20","a","24","Sounds/motorcycle_label.wav","null","1","","","","","","",""
"null","","html-keyboard-response","133","3728466","0.0-13.0-1.20","a","24","<p style=""font-size: 48px;"">+</p>","null","1","","","","","","",""
"530.6600000476465","","image-keyboard-response","134","3728998","0.0-13.0-2.20","a","24","Images/motorcycle_2.png","65","1","1582495393735","match","motorcycle","motorcycle","label","test","true"
"null","","audio-keyboard-response","135","3731010","0.0-13.0-3.20","a","24","Sounds/correct.wav","null","1","","","","","","",""
"null","","audio-keyboard-response","136","3732132","0.0-13.0-0.21","a","24","Sounds/motorcycle_sound.wav","null","1","","","","","","",""
"null","","html-keyboard-response","137","3733150","0.0-13.0-1.21","a","24","<p style=""font-size: 48px;"">+</p>","null","1","","","","","","",""
"703.099999926053","","image-keyboard-response","138","3733854","0.0-13.0-2.21","a","24","Images/train_cartoon.png","76","1","1582495398418","non-match","train","motorcycle","sound","test","true"
"null","","audio-keyboard-response","139","3735861","0.0-13.0-3.21","a","24","Sounds/correct.wav","null","1","","","","","","",""
"null","","audio-keyboard-response","140","3736872","0.0-13.0-0.22","a","24","Sounds/cow_sound.wav","null","1","","","","","","",""
"null","","html-keyboard-response","141","3737867","0.0-13.0-1.22","a","24","<p style=""font-size: 48px;"">+</p>","null","1","","","","","","",""
"434.27499989047647","","image-keyboard-response","142","3738302","0.0-13.0-2.22","a","24","Images/cow_2.png","65","1","1582495403135","match","cow","cow","sound","test","true"
"null","","audio-keyboard-response","143","3740315","0.0-13.0-3.22","a","24","Sounds/correct.wav","null","1","","","","","","",""
"null","","audio-keyboard-response","144","3741212","0.0-13.0-0.23","a","24","Sounds/frog_label.wav","null","1","","","","","","",""
"null","","html-keyboard-response","145","3742217","0.0-13.0-1.23","a","24","<p style=""font-size: 48px;"">+</p>","null","1","","","","","","",""
"548.3249999815598","","image-keyboard-response","146","3742766","0.0-13.0-2.23","a","24","Images/frog_2.png","65","1","1582495407485","match","frog","frog","label","test","true"
"null","","audio-keyboard-response","147","3744773","0.0-13.0-3.23","a","24","Sounds/correct.wav","null","1","","","","","","",""
"null","","audio-keyboard-response","148","3745672","0.0-13.0-0.24","a","24","Sounds/frog_sound.wav","null","1","","","","","","",""
"null","","html-keyboard-response","149","3746667","0.0-13.0-1.24","a","24","<p style=""font-size: 48px;"">+</p>","null","1","","","","","","",""
"546.0200000088662","","image-keyboard-response","150","3747214","0.0-13.0-2.24","a","24","Images/rooster_3.png","76","1","1582495411935","non-match","rooster","frog","sound","test","true"
"null","","audio-keyboard-response","151","3749226","0.0-13.0-3.24","a","24","Sounds/correct.wav","null","1","","","","","","",""
"null","","audio-keyboard-response","152","3749812","0.0-13.0-0.25","a","24","Sounds/gun_label.wav","null","1","","","","","","",""
"null","","html-keyboard-response","153","3750817","0.0-13.0-1.25","a","24","<p style=""font-size: 48px;"">+</p>","null","1","","","","","","",""
"539.9000000907108","","image-keyboard-response","154","3751358","0.0-13.0-2.25","a","24","Images/gun_1.png","65","1","1582495416085","match","gun","gun","label","test","true"
"null","","audio-keyboard-response","155","3753375","0.0-13.0-3.25","a","24","Sounds/correct.wav","null","1","","","","","","",""
"null","","audio-keyboard-response","156","3754272","0.0-13.0-0.26","a","24","Sounds/frog_sound.wav","null","1","","","","","","",""
"null","","html-keyboard-response","157","3755267","0.0-13.0-1.26","a","24","<p style=""font-size: 48px;"">+</p>","null","1","","","","","","",""
"490.23499991744757","","image-keyboard-response","158","3755758","0.0-13.0-2.26","a","24","Images/frog_1.png","65","1","1582495420535","match","frog","frog","sound","test","true"
"null","","audio-keyboard-response","159","3757761","0.0-13.0-3.26","a","24","Sounds/correct.wav","null","1","","","","","","",""
"null","","audio-keyboard-response","160","3758592","0.0-13.0-0.27","a","24","Sounds/cat_label.wav","null","1","","","","","","",""
"null","","html-keyboard-response","161","3759583","0.0-13.0-1.27","a","24","<p style=""font-size: 48px;"">+</p>","null","1","","","","","","",""
"661.2299999687821","","image-keyboard-response","162","3760246","0.0-13.0-2.27","a","24","Images/car_3.png","76","1","1582495424851","non-match","car","cat","label","test","true"
"null","","audio-keyboard-response","163","3762250","0.0-13.0-3.27","a","24","Sounds/correct.wav","null","1","","","","","","",""
"null","","audio-keyboard-response","164","3763332","0.0-13.0-0.28","a","24","Sounds/car_label.wav","null","1","","","","","","",""
"null","","html-keyboard-response","165","3764350","0.0-13.0-1.28","a","24","<p style=""font-size: 48px;"">+</p>","null","1","","","","","","",""
"582.9149999190122","","image-keyboard-response","166","3764934","0.0-13.0-2.28","a","24","Images/cat_cartoon.png","76","1","1582495429618","non-match","cat","car","label","test","true"
"null","","audio-keyboard-response","167","3766944","0.0-13.0-3.28","a","24","Sounds/correct.wav","null","1","","","","","","",""
"null","","audio-keyboard-response","168","3767832","0.0-13.0-0.29","a","24","Sounds/frog_sound.wav","null","1","","","","","","",""
"null","","html-keyboard-response","169","3768850","0.0-13.0-1.29","a","24","<p style=""font-size: 48px;"">+</p>","null","1","","","","","","",""
"658.835000009276","","image-keyboard-response","170","3769510","0.0-13.0-2.29","a","24","Images/cow_2.png","76","1","1582495434118","non-match","cow","frog","sound","test","true"
"null","","audio-keyboard-response","171","3771521","0.0-13.0-3.29","a","24","Sounds/correct.wav","null","1","","","","","","",""
"null","","audio-keyboard-response","172","3772352","0.0-13.0-0.30","a","24","Sounds/cat_sound.wav","null","1","","","","","","",""
"null","","html-keyboard-response","173","3773350","0.0-13.0-1.30","a","24","<p style=""font-size: 48px;"">+</p>","null","1","","","","","","",""
"430.6850000284612","","image-keyboard-response","174","3773782","0.0-13.0-2.30","a","24","Images/cat_cartoon.png","65","1","1582495438618","match","cat","cat","sound","test","true"
"null","","audio-keyboard-response","175","3775798","0.0-13.0-3.30","a","24","Sounds/correct.wav","null","1","","","","","","",""
"null","","audio-keyboard-response","176","3776932","0.0-13.0-0.31","a","24","Sounds/motorcycle_label.wav","null","1","","","","","","",""
"null","","html-keyboard-response","177","3777950","0.0-13.0-1.31","a","24","<p style=""font-size: 48px;"">+</p>","null","1","","","","","","",""
"710.5699999956414","","image-keyboard-response","178","3778662","0.0-13.0-2.31","a","24","Images/frog_2.png","76","1","1582495443218","non-match","frog","motorcycle","label","test","true"
"null","","audio-keyboard-response","179","3780677","0.0-13.0-3.31","a","24","Sounds/correct.wav","null","1","","","","","","",""
"null","","audio-keyboard-response","180","3781252","0.0-13.0-0.32","a","24","Sounds/gun_label.wav","null","1","","","","","","",""
"null","","html-keyboard-response","181","3782250","0.0-13.0-1.32","a","24","<p style=""font-size: 48px;"">+</p>","null","1","","","","","","",""
"553.1900000059977","","image-keyboard-response","182","3782806","0.0-13.0-2.32","a","24","Images/gun_2.png","65","1","1582495447518","match","gun","gun","label","test","true"
"null","","audio-keyboard-response","183","3784810","0.0-13.0-3.32","a","24","Sounds/correct.wav","null","1","","","","","","",""
"null","","audio-keyboard-response","184","3785512","0.0-13.0-0.33","a","24","Sounds/rooster_label.wav","null","1","","","","","","",""
"null","","html-keyboard-response","185","3786500","0.0-13.0-1.33","a","24","<p style=""font-size: 48px;"">+</p>","null","1","","","","","","",""
"560.289999935776","","image-keyboard-response","186","3787062","0.0-13.0-2.33","a","24","Images/train_2.png","76","1","1582495451768","non-match","train","rooster","label","test","true"
"null","","audio-keyboard-response","187","3789072","0.0-13.0-3.33","a","24","Sounds/correct.wav","null","1","","","","","","",""
"null","","audio-keyboard-response","188","3789772","0.0-13.0-0.34","a","24","Sounds/rooster_sound.wav","null","1","","","","","","",""
"null","","html-keyboard-response","189","3790766","0.0-13.0-1.34","a","24","<p style=""font-size: 48px;"">+</p>","null","1","","","","","","",""
"565.9049999667332","","image-keyboard-response","190","3791333","0.0-13.0-2.34","a","24","Images/rooster_3.png","65","1","1582495456035","match","rooster","rooster","sound","test","true"
"null","","audio-keyboard-response","191","3793340","0.0-13.0-3.34","a","24","Sounds/correct.wav","null","1","","","","","","",""
"null","","audio-keyboard-response","192","3794012","0.0-13.0-0.35","a","24","Sounds/rooster_label.wav","null","1","","","","","","",""
"null","","html-keyboard-response","193","3795000","0.0-13.0-1.35","a","24","<p style=""font-size: 48px;"">+</p>","null","1","","","","","","",""
"724.515000008978","","image-keyboard-response","194","3795726","0.0-13.0-2.35","a","24","Images/rooster_cartoon.png","76","1","1582495460268","match","rooster","rooster","label","test","false"
"null","","audio-keyboard-response","195","3797729","0.0-13.0-3.35","a","24","Sounds/incorrect.wav","null","1","","","","","","",""
"null","","audio-keyboard-response","196","3798432","0.0-13.0-0.36","a","24","Sounds/whistle_sound.wav","null","1","","","","","","",""
"null","","html-keyboard-response","197","3799450","0.0-13.0-1.36","a","24","<p style=""font-size: 48px;"">+</p>","null","1","","","","","","",""
"506.4249999122694","","image-keyboard-response","198","3799957","0.0-13.0-2.36","a","24","Images/whistle_1.png","65","1","1582495464718","match","whistle","whistle","sound","test","true"
"null","","audio-keyboard-response","199","3801975","0.0-13.0-3.36","a","24","Sounds/correct.wav","null","1","","","","","","",""
"null","","audio-keyboard-response","200","3802992","0.0-13.0-0.37","a","24","Sounds/cow_sound.wav","null","1","","","","","","",""
"null","","html-keyboard-response","201","3803983","0.0-13.0-1.37","a","24","<p style=""font-size: 48px;"">+</p>","null","1","","","","","","",""
"509.0600000694394","","image-keyboard-response","202","3804493","0.0-13.0-2.37","a","24","Images/cow_cartoon.png","65","1","1582495469251","match","cow","cow","sound","test","true"
"null","","audio-keyboard-response","203","3806497","0.0-13.0-3.37","a","24","Sounds/correct.wav","null","1","","","","","","",""
"null","","audio-keyboard-response","204","3807332","0.0-13.0-0.38","a","24","Sounds/cat_sound.wav","null","1","","","","","","",""
"null","","html-keyboard-response","205","3808333","0.0-13.0-1.38","a","24","<p style=""font-size: 48px;"">+</p>","null","1","","","","","","",""
"647.1599999349564","","image-keyboard-response","206","3808982","0.0-13.0-2.38","a","24","Images/dog_3.png","76","1","1582495473602","non-match","dog","cat","sound","test","true"
"null","","audio-keyboard-response","207","3810992","0.0-13.0-3.38","a","24","Sounds/correct.wav","null","1","","","","","","",""
"null","","audio-keyboard-response","208","3811672","0.0-13.0-0.39","a","24","Sounds/whistle_sound.wav","null","1","","","","","","",""
"null","","html-keyboard-response","209","3812667","0.0-13.0-1.39","a","24","<p style=""font-size: 48px;"">+</p>","null","1","","","","","","",""
"609.5500000519678","","image-keyboard-response","210","3813277","0.0-13.0-2.39","a","24","Images/gun_3.png","76","1","1582495477935","non-match","gun","whistle","sound","test","true"
"null","","audio-keyboard-response","211","3815287","0.0-13.0-3.39","a","24","Sounds/correct.wav","null","1","","","","","","",""
"null","","audio-keyboard-response","212","3816432","0.0-13.0-0.40","a","24","Sounds/motorcycle_label.wav","null","1","","","","","","",""
"null","","html-keyboard-response","213","3817433","0.0-13.0-1.40","a","24","<p style=""font-size: 48px;"">+</p>","null","1","","","","","","",""
"490.85000006016344","","image-keyboard-response","214","3817925","0.0-13.0-2.40","a","24","Images/motorcycle_3.png","65","1","1582495482702","match","motorcycle","motorcycle","label","test","true"
"null","","audio-keyboard-response","215","3819928","0.0-13.0-3.40","a","24","Sounds/correct.wav","null","1","","","","","","",""
"null","","audio-keyboard-response","216","3820592","0.0-13.0-0.41","a","24","Sounds/dog_label.wav","null","1","","","","","","",""
"null","","html-keyboard-response","217","3821584","0.0-13.0-1.41","a","24","<p style=""font-size: 48px;"">+</p>","null","1","","","","","","",""
"628.8199999835342","","image-keyboard-response","218","3822213","0.0-13.0-2.41","a","24","Images/frog_3.png","76","1","1582495486852","non-match","frog","dog","label","test","true"
"null","","audio-keyboard-response","219","3824222","0.0-13.0-3.41","a","24","Sounds/correct.wav","null","1","","","","","","",""
"null","","audio-keyboard-response","220","3825231","0.0-13.0-0.42","a","24","Sounds/cow_sound.wav","null","1","","","","","","",""
"null","","html-keyboard-response","221","3826234","0.0-13.0-1.42","a","24","<p style=""font-size: 48px;"">+</p>","null","1","","","","","","",""
"522.7700000395998","","image-keyboard-response","222","3826757","0.0-13.0-2.42","a","24","Images/cow_1.png","65","1","1582495491502","match","cow","cow","sound","test","true"
"null","","audio-keyboard-response","223","3828775","0.0-13.0-3.42","a","24","Sounds/correct.wav","null","1","","","","","","",""
"null","","audio-keyboard-response","224","3829852","0.0-13.0-0.43","a","24","Sounds/car_label.wav","null","1","","","","","","",""
"null","","html-keyboard-response","225","3830850","0.0-13.0-1.43","a","24","<p style=""font-size: 48px;"">+</p>","null","1","","","","","","",""
"530.0950000528246","","image-keyboard-response","226","3831381","0.0-13.0-2.43","a","24","Images/dog_1.png","76","1","1582495496118","non-match","dog","car","label","test","true"
"null","","audio-keyboard-response","227","3833391","0.0-13.0-3.43","a","24","Sounds/correct.wav","null","1","","","","","","",""
"null","","audio-keyboard-response","228","3834692","0.0-13.0-0.44","a","24","Sounds/train_sound.wav","null","1","","","","","","",""
"null","","html-keyboard-response","229","3835684","0.0-13.0-1.44","a","24","<p style=""font-size: 48px;"">+</p>","null","1","","","","","","",""
"496.3599999900907","","image-keyboard-response","230","3836181","0.0-13.0-2.44","a","24","Images/gun_1.png","76","1","1582495500951","non-match","gun","train","sound","test","true"
"null","","audio-keyboard-response","231","3838194","0.0-13.0-3.44","a","24","Sounds/correct.wav","null","1","","","","","","",""
"null","","audio-keyboard-response","232","3838892","0.0-13.0-0.45","a","24","Sounds/whistle_sound.wav","null","1","","","","","","",""
"null","","html-keyboard-response","233","3839884","0.0-13.0-1.45","a","24","<p style=""font-size: 48px;"">+</p>","null","1","","","","","","",""
"816.6850000852719","","image-keyboard-response","234","3840702","0.0-13.0-2.45","a","24","Images/whistle_3.png","65","1","1582495505152","match","whistle","whistle","sound","test","true"
"null","","audio-keyboard-response","235","3842705","0.0-13.0-3.45","a","24","Sounds/correct.wav","null","1","","","","","","",""
"null","","audio-keyboard-response","236","3843412","0.0-13.0-0.46","a","24","Sounds/dog_sound.wav","null","1","","","","","","",""
"null","","html-keyboard-response","237","3844401","0.0-13.0-1.46","a","24","<p style=""font-size: 48px;"">+</p>","null","1","","","","","","",""
"459.84499994665384","","image-keyboard-response","238","3844861","0.0-13.0-2.46","a","24","Images/dog_3.png","65","1","1582495509669","match","dog","dog","sound","test","true"
"null","","audio-keyboard-response","239","3846866","0.0-13.0-3.46","a","24","Sounds/correct.wav","null","1","","","","","","",""
"null","","audio-keyboard-response","240","3848132","0.0-13.0-0.47","a","24","Sounds/train_sound.wav","null","1","","","","","","",""
"null","","html-keyboard-response","241","3849135","0.0-13.0-1.47","a","24","<p style=""font-size: 48px;"">+</p>","null","1","","","","","","",""
"638.7000000104308","","image-keyboard-response","242","3849775","0.0-13.0-2.47","a","24","Images/train_1.png","65","1","1582495514403","match","train","train","sound","test","true"
"null","","audio-keyboard-response","243","3851785","0.0-13.0-3.47","a","24","Sounds/correct.wav","null","1","","","","","","",""
"null","","audio-keyboard-response","244","3852613","0.0-13.0-0.48","a","24","Sounds/cat_label.wav","null","1","","","","","","",""
"null","","html-keyboard-response","245","3853602","0.0-13.0-1.48","a","24","<p style=""font-size: 48px;"">+</p>","null","1","","","","","","",""
"459.874999942258","","image-keyboard-response","246","3854062","0.0-13.0-2.48","a","24","Images/train_3.png","76","1","1582495518870","non-match","train","cat","label","test","true"
"null","","audio-keyboard-response","247","3856073","0.0-13.0-3.48","a","24","Sounds/correct.wav","null","1","","","","","","",""
"null","","audio-keyboard-response","248","3856773","0.0-13.0-0.49","a","24","Sounds/whistle_label.wav","null","1","","","","","","",""
"null","","html-keyboard-response","249","3857768","0.0-13.0-1.49","a","24","<p style=""font-size: 48px;"">+</p>","null","1","","","","","","",""
"581.0950000304729","","image-keyboard-response","250","3858350","0.0-13.0-2.49","a","24","Images/car_1.png","76","1","1582495523036","non-match","car","whistle","label","test","true"
"null","","audio-keyboard-response","251","3860358","0.0-13.0-3.49","a","24","Sounds/correct.wav","null","1","","","","","","",""
"null","","audio-keyboard-response","252","3860933","0.0-13.0-0.50","a","24","Sounds/gun_sound.wav","null","1","","","","","","",""
"null","","html-keyboard-response","253","3861935","0.0-13.0-1.50","a","24","<p style=""font-size: 48px;"">+</p>","null","1","","","","","","",""
"526.7549999989569","","image-keyboard-response","254","3862463","0.0-13.0-2.50","a","24","Images/cat_orig.png","76","1","1582495527203","non-match","cat","gun","sound","test","true"
"null","","audio-keyboard-response","255","3864478","0.0-13.0-3.50","a","24","Sounds/correct.wav","null","1","","","","","","",""
"null","","audio-keyboard-response","256","3865553","0.0-13.0-0.51","a","24","Sounds/car_label.wav","null","1","","","","","","",""
"null","","html-keyboard-response","257","3866552","0.0-13.0-1.51","a","24","<p style=""font-size: 48px;"">+</p>","null","1","","","","","","",""
"565.5300000216812","","image-keyboard-response","258","3867118","0.0-13.0-2.51","a","24","Images/train_1.png","76","1","1582495531820","non-match","train","car","label","test","true"
"null","","audio-keyboard-response","259","3869128","0.0-13.0-3.51","a","24","Sounds/correct.wav","null","1","","","","","","",""
"null","","audio-keyboard-response","260","3869713","0.0-13.0-0.52","a","24","Sounds/gun_label.wav","null","1","","","","","","",""
"null","","html-keyboard-response","261","3870702","0.0-13.0-1.52","a","24","<p style=""font-size: 48px;"">+</p>","null","1","","","","","","",""
"575.3999999724329","","image-keyboard-response","262","3871278","0.0-13.0-2.52","a","24","Images/gun_cartoon.png","65","1","1582495535970","match","gun","gun","label","test","true"
"null","","audio-keyboard-response","263","3873291","0.0-13.0-3.52","a","24","Sounds/correct.wav","null","1","","","","","","",""
"null","","audio-keyboard-response","264","3874593","0.0-13.0-0.53","a","24","Sounds/train_sound.wav","null","1","","","","","","",""
"null","","html-keyboard-response","265","3875585","0.0-13.0-1.53","a","24","<p style=""font-size: 48px;"">+</p>","null","1","","","","","","",""
"668.2749999454245","","image-keyboard-response","266","3876255","0.0-13.0-2.53","a","24","Images/dog_orig.png","76","1","1582495540853","non-match","dog","train","sound","test","true"
"null","","audio-keyboard-response","267","3878270","0.0-13.0-3.53","a","24","Sounds/correct.wav","null","1","","","","","","",""
"null","","audio-keyboard-response","268","3878973","0.0-13.0-0.54","a","24","Sounds/rooster_label.wav","null","1","","","","","","",""
"null","","html-keyboard-response","269","3879969","0.0-13.0-1.54","a","24","<p style=""font-size: 48px;"">+</p>","null","1","","","","","","",""
"596.7749999836087","","image-keyboard-response","270","3880566","0.0-13.0-2.54","a","24","Images/cat_2.png","76","1","1582495545237","non-match","cat","rooster","label","test","true"
"null","","audio-keyboard-response","271","3882572","0.0-13.0-3.54","a","24","Sounds/correct.wav","null","1","","","","","","",""
"null","","audio-keyboard-response","272","3883413","0.0-13.0-0.55","a","24","Sounds/cat_sound.wav","null","1","","","","","","",""
"null","","html-keyboard-response","273","3884402","0.0-13.0-1.55","a","24","<p style=""font-size: 48px;"">+</p>","null","1","","","","","","",""
"459.4450000440702","","image-keyboard-response","274","3884862","0.0-13.0-2.55","a","24","Images/cat_3.png","65","1","1582495549670","match","cat","cat","sound","test","true"
"null","","audio-keyboard-response","275","3886867","0.0-13.0-3.55","a","24","Sounds/correct.wav","null","1","","","","","","",""
"null","","audio-keyboard-response","276","3887893","0.0-13.0-0.56","a","24","Sounds/cow_label.wav","null","1","","","","","","",""
"null","","html-keyboard-response","277","3888885","0.0-13.0-1.56","a","24","<p style=""font-size: 48px;"">+</p>","null","1","","","","","","",""
"488.2350000552833","","image-keyboard-response","278","3889375","0.0-13.0-2.56","a","24","Images/cow_orig.png","65","1","1582495554154","match","cow","cow","label","test","true"
"null","","audio-keyboard-response","279","3891380","0.0-13.0-3.56","a","24","Sounds/correct.wav","null","1","","","","","","",""
"null","","audio-keyboard-response","280","3892213","0.0-13.0-0.57","a","24","Sounds/cat_label.wav","null","1","","","","","","",""
"null","","html-keyboard-response","281","3893202","0.0-13.0-1.57","a","24","<p style=""font-size: 48px;"">+</p>","null","1","","","","","","",""
"459.49999999720603","","image-keyboard-response","282","3893662","0.0-13.0-2.57","a","24","Images/cat_orig.png","65","1","1582495558470","match","cat","cat","label","test","true"
"null","","audio-keyboard-response","283","3895668","0.0-13.0-3.57","a","24","Sounds/correct.wav","null","1","","","","","","",""
"null","","audio-keyboard-response","284","3896793","0.0-13.0-0.58","a","24","Sounds/motorcycle_sound.wav","null","1","","","","","","",""
"null","","html-keyboard-response","285","3897785","0.0-13.0-1.58","a","24","<p style=""font-size: 48px;"">+</p>","null","1","","","","","","",""
"916.0300000803545","","image-keyboard-response","286","3898703","0.0-13.0-2.58","a","24","Images/motorcycle_1.png","65","1","1582495563053","match","motorcycle","motorcycle","sound","test","true"
"null","","audio-keyboard-response","287","3900715","0.0-13.0-3.58","a","24","Sounds/correct.wav","null","1","","","","","","",""
"null","","audio-keyboard-response","288","3901713","0.0-13.0-0.59","a","24","Sounds/cow_label.wav","null","1","","","","","","",""
"null","","html-keyboard-response","289","3902702","0.0-13.0-1.59","a","24","<p style=""font-size: 48px;"">+</p>","null","1","","","","","","",""
"607.4099999386817","","image-keyboard-response","290","3903311","0.0-13.0-2.59","a","24","Images/dog_2.png","76","1","1582495567970","non-match","dog","cow","label","test","true"
"null","","audio-keyboard-response","291","3905322","0.0-13.0-3.59","a","24","Sounds/correct.wav","null","1","","","","","","",""
"null","","audio-keyboard-response","292","3906333","0.0-13.0-0.60","a","24","Sounds/cow_sound.wav","null","1","","","","","","",""
"null","","html-keyboard-response","293","3907336","0.0-13.0-1.60","a","24","<p style=""font-size: 48px;"">+</p>","null","1","","","","","","",""
"461.72999998088926","","image-keyboard-response","294","3907798","0.0-13.0-2.60","a","24","Images/cow_3.png","65","1","1582495572604","match","cow","cow","sound","test","true"
"null","","audio-keyboard-response","295","3909818","0.0-13.0-3.60","a","24","Sounds/correct.wav","null","1","","","","","","",""
"null","","audio-keyboard-response","296","3910395","0.0-13.0-0.61","a","24","Sounds/gun_label.wav","null","1","","","","","","",""
"null","","html-keyboard-response","297","3911388","0.0-13.0-1.61","a","24","<p style=""font-size: 48px;"">+</p>","null","1","","","","","","",""
"475.9449999546632","","image-keyboard-response","298","3911865","0.0-13.0-2.61","a","24","Images/motorcycle_2.png","76","1","1582495576656","non-match","motorcycle","gun","label","test","true"
"null","","audio-keyboard-response","299","3913882","0.0-13.0-3.61","a","24","Sounds/correct.wav","null","1","","","","","","",""
"null","","audio-keyboard-response","300","3914575","0.0-13.0-0.62","a","24","Sounds/rooster_sound.wav","null","1","","","","","","",""
"null","","html-keyboard-response","301","3915571","0.0-13.0-1.62","a","24","<p style=""font-size: 48px;"">+</p>","null","1","","","","","","",""
"524.5049999793991","","image-keyboard-response","302","3916097","0.0-13.0-2.62","a","24","Images/gun_orig.png","76","1","1582495580840","non-match","gun","rooster","sound","test","true"
"null","","audio-keyboard-response","303","3918100","0.0-13.0-3.62","a","24","Sounds/correct.wav","null","1","","","","","","",""
"null","","audio-keyboard-response","304","3918995","0.0-13.0-0.63","a","24","Sounds/frog_label.wav","null","1","","","","","","",""
"null","","html-keyboard-response","305","3919988","0.0-13.0-1.63","a","24","<p style=""font-size: 48px;"">+</p>","null","1","","","","","","",""
"371.7250000918284","","image-keyboard-response","306","3920361","0.0-13.0-2.63","a","24","Images/frog_orig.png","65","1","1582495585256","match","frog","frog","label","test","true"
"null","","audio-keyboard-response","307","3922375","0.0-13.0-3.63","a","24","Sounds/correct.wav","null","1","","","","","","",""
"null","","audio-keyboard-response","308","3923495","0.0-13.0-0.64","a","24","Sounds/motorcycle_label.wav","null","1","","","","","","",""
"null","","html-keyboard-response","309","3924488","0.0-13.0-1.64","a","24","<p style=""font-size: 48px;"">+</p>","null","1","","","","","","",""
"599.709999980405","","image-keyboard-response","310","3925089","0.0-13.0-2.64","a","24","Images/motorcycle_orig.png","65","1","1582495589756","match","motorcycle","motorcycle","label","test","true"
"null","","audio-keyboard-response","311","3927093","0.0-13.0-3.64","a","24","Sounds/correct.wav","null","1","","","","","","",""
"null","","audio-keyboard-response","312","3928175","0.0-13.0-0.65","a","24","Sounds/car_sound.wav","null","1","","","","","","",""
"null","","html-keyboard-response","313","3929172","0.0-13.0-1.65","a","24","<p style=""font-size: 48px;"">+</p>","null","1","","","","","","",""
"476.7050000373274","","image-keyboard-response","314","3929649","0.0-13.0-2.65","a","24","Images/car_3.png","65","1","1582495594440","match","car","car","sound","test","true"
"null","","audio-keyboard-response","315","3931653","0.0-13.0-3.65","a","24","Sounds/correct.wav","null","1","","","","","","",""
"null","","audio-keyboard-response","316","3932495","0.0-13.0-0.66","a","24","Sounds/cat_sound.wav","null","1","","","","","","",""
"null","","html-keyboard-response","317","3933488","0.0-13.0-1.66","a","24","<p style=""font-size: 48px;"">+</p>","null","1","","","","","","",""
"503.46999999601394","","image-keyboard-response","318","3933993","0.0-13.0-2.66","a","24","Images/cat_2.png","65","1","1582495598757","match","cat","cat","sound","test","true"
"null","","audio-keyboard-response","319","3936001","0.0-13.0-3.66","a","24","Sounds/correct.wav","null","1","","","","","","",""
"null","","audio-keyboard-response","320","3936695","0.0-13.0-0.67","a","24","Sounds/whistle_label.wav","null","1","","","","","","",""
"null","","html-keyboard-response","321","3937688","0.0-13.0-1.67","a","24","<p style=""font-size: 48px;"">+</p>","null","1","","","","","","",""
"559.4800000544637","","image-keyboard-response","322","3938249","0.0-13.0-2.67","a","24","Images/dog_cartoon.png","76","1","1582495602957","non-match","dog","whistle","label","test","true"
"null","","audio-keyboard-response","323","3940264","0.0-13.0-3.67","a","24","Sounds/correct.wav","null","1","","","","","","",""
"null","","audio-keyboard-response","324","3940975","0.0-13.0-0.68","a","24","Sounds/dog_sound.wav","null","1","","","","","","",""
"null","","html-keyboard-response","325","3941972","0.0-13.0-1.68","a","24","<p style=""font-size: 48px;"">+</p>","null","1","","","","","","",""
"444.4849999854341","","image-keyboard-response","326","3942417","0.0-13.0-2.68","a","24","Images/dog_cartoon.png","76","1","1582495607240","match","dog","dog","sound","test","false"
"null","","audio-keyboard-response","327","3944426","0.0-13.0-3.68","a","24","Sounds/incorrect.wav","null","1","","","","","","",""
"null","","audio-keyboard-response","328","3944995","0.0-13.0-0.69","a","24","Sounds/gun_label.wav","null","1","","","","","","",""
"null","","html-keyboard-response","329","3945988","0.0-13.0-1.69","a","24","<p style=""font-size: 48px;"">+</p>","null","1","","","","","","",""
"715.4799998970702","","image-keyboard-response","330","3946705","0.0-13.0-2.69","a","24","Images/whistle_cartoon.png","76","1","1582495611257","non-match","whistle","gun","label","test","true"
"null","","audio-keyboard-response","331","3948716","0.0-13.0-3.69","a","24","Sounds/correct.wav","null","1","","","","","","",""
"null","","audio-keyboard-response","332","3949415","0.0-13.0-0.70","a","24","Sounds/rooster_label.wav","null","1","","","","","","",""
"null","","html-keyboard-response","333","3950405","0.0-13.0-1.70","a","24","<p style=""font-size: 48px;"">+</p>","null","1","","","","","","",""
"418.73999999370426","","image-keyboard-response","334","3950825","0.0-13.0-2.70","a","24","Images/rooster_1.png","65","1","1582495615673","match","rooster","rooster","label","test","true"
"null","","audio-keyboard-response","335","3952840","0.0-13.0-3.70","a","24","Sounds/correct.wav","null","1","","","","","","",""
"null","","audio-keyboard-response","336","3953535","0.0-13.0-0.71","a","24","Sounds/dog_sound.wav","null","1","","","","","","",""
"null","","html-keyboard-response","337","3954539","0.0-13.0-1.71","a","24","<p style=""font-size: 48px;"">+</p>","null","1","","","","","","",""
"557.6350000919774","","image-keyboard-response","338","3955097","0.0-13.0-2.71","a","24","Images/car_cartoon.png","76","1","1582495619807","non-match","car","dog","sound","test","true"
"null","","audio-keyboard-response","339","3957113","0.0-13.0-3.71","a","24","Sounds/correct.wav","null","1","","","","","","",""
"null","","audio-keyboard-response","340","3958395","0.0-13.0-0.72","a","24","Sounds/train_label.wav","null","1","","","","","","",""
"null","","html-keyboard-response","341","3959389","0.0-13.0-1.72","a","24","<p style=""font-size: 48px;"">+</p>","null","1","","","","","","",""
"523.505000048317","","image-keyboard-response","342","3959913","0.0-13.0-2.72","a","24","Images/train_3.png","65","1","1582495624657","match","train","train","label","test","true"
"null","","audio-keyboard-response","343","3961930","0.0-13.0-3.72","a","24","Sounds/correct.wav","null","1","","","","","","",""
"null","","audio-keyboard-response","344","3962835","0.0-13.0-0.73","a","24","Sounds/frog_sound.wav","null","1","","","","","","",""
"null","","html-keyboard-response","345","3963839","0.0-13.0-1.73","a","24","<p style=""font-size: 48px;"">+</p>","null","1","","","","","","",""
"537.3750000726432","","image-keyboard-response","346","3964377","0.0-13.0-2.73","a","24","Images/frog_3.png","65","1","1582495629107","match","frog","frog","sound","test","true"
"null","","audio-keyboard-response","347","3966385","0.0-13.0-3.73","a","24","Sounds/correct.wav","null","1","","","","","","",""
"null","","audio-keyboard-response","348","3967395","0.0-13.0-0.74","a","24","Sounds/cow_label.wav","null","1","","","","","","",""
"null","","html-keyboard-response","349","3968389","0.0-13.0-1.74","a","24","<p style=""font-size: 48px;"">+</p>","null","1","","","","","","",""
"483.3349999971688","","image-keyboard-response","350","3968873","0.0-13.0-2.74","a","24","Images/rooster_2.png","76","1","1582495633657","non-match","rooster","cow","label","test","true"
"null","","audio-keyboard-response","351","3970887","0.0-13.0-3.74","a","24","Sounds/correct.wav","null","1","","","","","","",""
"null","","audio-keyboard-response","352","3971538","0.0-13.0-0.75","a","24","Sounds/dog_label.wav","null","1","","","","","","",""
"null","","html-keyboard-response","353","3972541","0.0-13.0-1.75","a","24","<p style=""font-size: 48px;"">+</p>","null","1","","","","","","",""
"533.1849999492988","","image-keyboard-response","354","3973075","0.0-13.0-2.75","a","24","Images/dog_orig.png","65","1","1582495637809","match","dog","dog","label","test","true"
"null","","audio-keyboard-response","355","3975083","0.0-13.0-3.75","a","24","Sounds/correct.wav","null","1","","","","","","",""
"null","","audio-keyboard-response","356","3975778","0.0-13.0-0.76","a","24","Sounds/rooster_label.wav","null","1","","","","","","",""
"null","","html-keyboard-response","357","3976775","0.0-13.0-1.76","a","24","<p style=""font-size: 48px;"">+</p>","null","1","","","","","","",""
"451.7700000433251","","image-keyboard-response","358","3977228","0.0-13.0-2.76","a","24","Images/cow_orig.png","76","1","1582495642043","non-match","cow","rooster","label","test","true"
"null","","audio-keyboard-response","359","3979245","0.0-13.0-3.76","a","24","Sounds/correct.wav","null","1","","","","","","",""
"null","","audio-keyboard-response","360","3979878","0.0-13.0-0.77","a","24","Sounds/dog_label.wav","null","1","","","","","","",""
"null","","html-keyboard-response","361","3980875","0.0-13.0-1.77","a","24","<p style=""font-size: 48px;"">+</p>","null","1","","","","","","",""
"535.9750000061467","","image-keyboard-response","362","3981412","0.0-13.0-2.77","a","24","Images/dog_1.png","65","1","1582495646143","match","dog","dog","label","test","true"
"null","","audio-keyboard-response","363","3983417","0.0-13.0-3.77","a","24","Sounds/correct.wav","null","1","","","","","","",""
"null","","audio-keyboard-response","364","3984498","0.0-13.0-0.78","a","24","Sounds/car_label.wav","null","1","","","","","","",""
"null","","html-keyboard-response","365","3985491","0.0-13.0-1.78","a","24","<p style=""font-size: 48px;"">+</p>","null","1","","","","","","",""
"462.9450000356883","","image-keyboard-response","366","3985956","0.0-13.0-2.78","a","24","Images/car_orig.png","65","1","1582495650760","match","car","car","label","test","true"
"null","","audio-keyboard-response","367","3987963","0.0-13.0-3.78","a","24","Sounds/correct.wav","null","1","","","","","","",""
"null","","audio-keyboard-response","368","3988598","0.0-13.0-0.79","a","24","Sounds/dog_label.wav","null","1","","","","","","",""
"null","","html-keyboard-response","369","3989591","0.0-13.0-1.79","a","24","<p style=""font-size: 48px;"">+</p>","null","1","","","","","","",""
"435.0399998947978","","image-keyboard-response","370","3990028","0.0-13.0-2.79","a","24","Images/dog_2.png","65","1","1582495654860","match","dog","dog","label","test","true"
"null","","audio-keyboard-response","371","3992041","0.0-13.0-3.79","a","24","Sounds/correct.wav","null","1","","","","","","",""
"null","","audio-keyboard-response","372","3993318","0.0-13.0-0.80","a","24","Sounds/train_label.wav","null","1","","","","","","",""
"null","","html-keyboard-response","373","3994308","0.0-13.0-1.80","a","24","<p style=""font-size: 48px;"">+</p>","null","1","","","","","","",""
"518.7600000062957","","image-keyboard-response","374","3994828","0.0-13.0-2.80","a","24","Images/car_2.png","65","1","1582495659576","non-match","car","train","label","test","false"
"null","","audio-keyboard-response","375","3996834","0.0-13.0-3.80","a","24","Sounds/incorrect.wav","null","1","","","","","","",""
"null","","audio-keyboard-response","376","3998138","0.0-13.0-0.81","a","24","Sounds/train_sound.wav","null","1","","","","","","",""
"null","","html-keyboard-response","377","3999142","0.0-13.0-1.81","a","24","<p style=""font-size: 48px;"">+</p>","null","1","","","","","","",""
"564.9449999909848","","image-keyboard-response","378","3999708","0.0-13.0-2.81","a","24","Images/whistle_3.png","76","1","1582495664410","non-match","whistle","train","sound","test","true"
"null","","audio-keyboard-response","379","4001715","0.0-13.0-3.81","a","24","Sounds/correct.wav","null","1","","","","","","",""
"null","","audio-keyboard-response","380","4002418","0.0-13.0-0.82","a","24","Sounds/rooster_label.wav","null","1","","","","","","",""
"null","","html-keyboard-response","381","4003408","0.0-13.0-1.82","a","24","<p style=""font-size: 48px;"">+</p>","null","1","","","","","","",""
"530.1800000015646","","image-keyboard-response","382","4003939","0.0-13.0-2.82","a","24","Images/rooster_2.png","65","1","1582495668676","match","rooster","rooster","label","test","true"
"null","","audio-keyboard-response","383","4005949","0.0-13.0-3.82","a","24","Sounds/correct.wav","null","1","","","","","","",""
"null","","audio-keyboard-response","384","4006618","0.0-13.0-0.83","a","24","Sounds/rooster_label.wav","null","1","","","","","","",""
"null","","html-keyboard-response","385","4007609","0.0-13.0-1.83","a","24","<p style=""font-size: 48px;"">+</p>","null","1","","","","","","",""
"426.15000007208437","","image-keyboard-response","386","4008036","0.0-13.0-2.83","a","24","Images/whistle_orig.png","76","1","1582495672876","non-match","whistle","rooster","label","test","true"
"null","","audio-keyboard-response","387","4010042","0.0-13.0-3.83","a","24","Sounds/correct.wav","null","1","","","","","","",""
"null","","audio-keyboard-response","388","4010618","0.0-13.0-0.84","a","24","Sounds/gun_sound.wav","null","1","","","","","","",""
"null","","html-keyboard-response","389","4011608","0.0-13.0-1.84","a","24","<p style=""font-size: 48px;"">+</p>","null","1","","","","","","",""
"609.9450000328943","","image-keyboard-response","390","4012219","0.0-13.0-2.84","a","24","Images/gun_orig.png","76","1","1582495676877","match","gun","gun","sound","test","false"
"null","","audio-keyboard-response","391","4014228","0.0-13.0-3.84","a","24","Sounds/incorrect.wav","null","1","","","","","","",""
"null","","audio-keyboard-response","392","4015238","0.0-13.0-0.85","a","24","Sounds/cow_sound.wav","null","1","","","","","","",""
"null","","html-keyboard-response","393","4016242","0.0-13.0-1.85","a","24","<p style=""font-size: 48px;"">+</p>","null","1","","","","","","",""
"638.4800000814721","","image-keyboard-response","394","4016884","0.0-13.0-2.85","a","24","Images/frog_orig.png","76","1","1582495681510","non-match","frog","cow","sound","test","true"
"null","","audio-keyboard-response","395","4018892","0.0-13.0-3.85","a","24","Sounds/correct.wav","null","1","","","","","","",""
"null","","audio-keyboard-response","396","4019478","0.0-13.0-0.86","a","24","Sounds/gun_label.wav","null","1","","","","","","",""
"null","","html-keyboard-response","397","4020475","0.0-13.0-1.86","a","24","<p style=""font-size: 48px;"">+</p>","null","1","","","","","","",""
"511.43499999307096","","image-keyboard-response","398","4020988","0.0-13.0-2.86","a","24","Images/frog_cartoon.png","76","1","1582495685743","non-match","frog","gun","label","test","true"
"null","","audio-keyboard-response","399","4023001","0.0-13.0-3.86","a","24","Sounds/correct.wav","null","1","","","","","","",""
"null","","audio-keyboard-response","400","4023998","0.0-13.0-0.87","a","24","Sounds/cow_sound.wav","null","1","","","","","","",""
"null","","html-keyboard-response","401","4024992","0.0-13.0-1.87","a","24","<p style=""font-size: 48px;"">+</p>","null","1","","","","","","",""
"418.76499995123595","","image-keyboard-response","402","4025412","0.0-13.0-2.87","a","24","Images/cat_1.png","76","1","1582495690260","non-match","cat","cow","sound","test","true"
"null","","audio-keyboard-response","403","4027426","0.0-13.0-3.87","a","24","Sounds/correct.wav","null","1","","","","","","",""
"null","","audio-keyboard-response","404","4028318","0.0-13.0-0.88","a","24","Sounds/frog_label.wav","null","1","","","","","","",""
"null","","html-keyboard-response","405","4029309","0.0-13.0-1.88","a","24","<p style=""font-size: 48px;"">+</p>","null","1","","","","","","",""
"429.9950000131503","","image-keyboard-response","406","4029740","0.0-13.0-2.88","a","24","Images/car_orig.png","76","1","1582495694577","non-match","car","frog","label","test","true"
"null","","audio-keyboard-response","407","4031747","0.0-13.0-3.88","a","24","Sounds/correct.wav","null","1","","","","","","",""
"null","","audio-keyboard-response","408","4033040","0.0-13.0-0.89","a","24","Sounds/train_sound.wav","null","1","","","","","","",""
"null","","html-keyboard-response","409","4034044","0.0-13.0-1.89","a","24","<p style=""font-size: 48px;"">+</p>","null","1","","","","","","",""
"464.9000000208616","","image-keyboard-response","410","4034510","0.0-13.0-2.89","a","24","Images/train_2.png","65","1","1582495699313","match","train","train","sound","test","true"
"null","","audio-keyboard-response","411","4036524","0.0-13.0-3.89","a","24","Sounds/correct.wav","null","1","","","","","","",""
"null","","audio-keyboard-response","412","4037601","0.0-13.0-0.90","a","24","Sounds/car_sound.wav","null","1","","","","","","",""
"null","","html-keyboard-response","413","4038595","0.0-13.0-1.90","a","24","<p style=""font-size: 48px;"">+</p>","null","1","","","","","","",""
"538.3649999275804","","image-keyboard-response","414","4039134","0.0-13.0-2.90","a","24","Images/motorcycle_1.png","76","1","1582495703863","non-match","motorcycle","car","sound","test","true"
"null","","audio-keyboard-response","415","4041137","0.0-13.0-3.90","a","24","Sounds/correct.wav","null","1","","","","","","",""
"null","","audio-keyboard-response","416","4042421","0.0-13.0-0.91","a","24","Sounds/train_label.wav","null","1","","","","","","",""
"null","","html-keyboard-response","417","4043411","0.0-13.0-1.91","a","24","<p style=""font-size: 48px;"">+</p>","null","1","","","","","","",""
"522.1499999752268","","image-keyboard-response","418","4043934","0.0-13.0-2.91","a","24","Images/train_cartoon.png","65","1","1582495708679","match","train","train","label","test","true"
"null","","audio-keyboard-response","419","4045953","0.0-13.0-3.91","a","24","Sounds/correct.wav","null","1","","","","","","",""
"null","","audio-keyboard-response","420","4047220","0.0-13.0-0.92","a","24","Sounds/train_sound.wav","null","1","","","","","","",""
"null","","html-keyboard-response","421","4048211","0.0-13.0-1.92","a","24","<p style=""font-size: 48px;"">+</p>","null","1","","","","","","",""
"458.03500001784414","","image-keyboard-response","422","4048671","0.0-13.0-2.92","a","24","Images/train_orig.png","65","1","1582495713480","match","train","train","sound","test","true"
"null","","audio-keyboard-response","423","4050677","0.0-13.0-3.92","a","24","Sounds/correct.wav","null","1","","","","","","",""
"null","","audio-keyboard-response","424","4051761","0.0-13.0-0.93","a","24","Sounds/car_label.wav","null","1","","","","","","",""
"null","","html-keyboard-response","425","4052778","0.0-13.0-1.93","a","24","<p style=""font-size: 48px;"">+</p>","null","1","","","","","","",""
"434.9200000287965","","image-keyboard-response","426","4053214","0.0-13.0-2.93","a","24","Images/frog_1.png","76","1","1582495718046","non-match","frog","car","label","test","true"
"null","","audio-keyboard-response","427","4055217","0.0-13.0-3.93","a","24","Sounds/correct.wav","null","1","","","","","","",""
"null","","audio-keyboard-response","428","4055880","0.0-13.0-0.94","a","24","Sounds/dog_label.wav","null","1","","","","","","",""
"null","","html-keyboard-response","429","4056878","0.0-13.0-1.94","a","24","<p style=""font-size: 48px;"">+</p>","null","1","","","","","","",""
"430.9249999932945","","image-keyboard-response","430","4057310","0.0-13.0-2.94","a","24","Images/rooster_cartoon.png","76","1","1582495722146","non-match","rooster","dog","label","test","true"
"null","","audio-keyboard-response","431","4059326","0.0-13.0-3.94","a","24","Sounds/correct.wav","null","1","","","","","","",""
"null","","audio-keyboard-response","432","4060440","0.0-13.0-0.95","a","24","Sounds/motorcycle_sound.wav","null","1","","","","","","",""
"null","","html-keyboard-response","433","4061445","0.0-13.0-1.95","a","24","<p style=""font-size: 48px;"">+</p>","null","1","","","","","","",""
"655.1350000081584","","image-keyboard-response","434","4062102","0.0-13.0-2.95","a","24","Images/cow_cartoon.png","65","1","1582495726713","non-match","cow","motorcycle","sound","test","false"
"null","","audio-keyboard-response","435","4064110","0.0-13.0-3.95","a","24","Sounds/incorrect.wav","null","1","","","","","","",""
"null","","audio-keyboard-response","436","4065161","0.0-13.0-0.96","a","24","Sounds/car_label.wav","null","1","","","","","","",""
"null","","html-keyboard-response","437","4066195","0.0-13.0-1.96","a","24","<p style=""font-size: 48px;"">+</p>","null","1","","","","","","",""
"466.09999996144325","","image-keyboard-response","438","4066662","0.0-13.0-2.96","a","24","Images/car_2.png","65","1","1582495731463","match","car","car","label","test","true"
"null","","audio-keyboard-response","439","4068672","0.0-13.0-3.96","a","24","Sounds/correct.wav","null","1","","","","","","",""
"null","","audio-keyboard-response","440","4069720","0.0-13.0-0.97","a","24","Sounds/car_label.wav","null","1","","","","","","",""
"null","","html-keyboard-response","441","4070712","0.0-13.0-1.97","a","24","<p style=""font-size: 48px;"">+</p>","null","1","","","","","","",""
"493.49000002257526","","image-keyboard-response","442","4071206","0.0-13.0-2.97","a","24","Images/whistle_1.png","76","1","1582495735980","non-match","whistle","car","label","test","true"
"null","","audio-keyboard-response","443","4073222","0.0-13.0-3.97","a","24","Sounds/correct.wav","null","1","","","","","","",""
"null","","audio-keyboard-response","444","4074241","0.0-13.0-0.98","a","24","Sounds/cow_sound.wav","null","1","","","","","","",""
"null","","html-keyboard-response","445","4075245","0.0-13.0-1.98","a","24","<p style=""font-size: 48px;"">+</p>","null","1","","","","","","",""
"400.5550000583753","","image-keyboard-response","446","4075647","0.0-13.0-2.98","a","24","Images/motorcycle_cartoon.png","76","1","1582495740513","non-match","motorcycle","cow","sound","test","true"
"null","","audio-keyboard-response","447","4077662","0.0-13.0-3.98","a","24","Sounds/correct.wav","null","1","","","","","","",""
"null","","audio-keyboard-response","448","4078361","0.0-13.0-0.99","a","24","Sounds/whistle_label.wav","null","1","","","","","","",""
"null","","html-keyboard-response","449","4079395","0.0-13.0-1.99","a","24","<p style=""font-size: 48px;"">+</p>","null","1","","","","","","",""
"457.91999995708466","","image-keyboard-response","450","4079854","0.0-13.0-2.99","a","24","Images/whistle_orig.png","76","1","1582495744663","match","whistle","whistle","label","test","false"
"null","","audio-keyboard-response","451","4081858","0.0-13.0-3.99","a","24","Sounds/incorrect.wav","null","1","","","","","","",""
"45500.34999998752","","html-keyboard-response","452","4127362","0.0-14.0","a","24","<p>Please take this opportunity to rest your eyes before proceeding.</p><p>When ready, press the enter key to continue to the next set of trials.</p>","13","","","","","","","",""
"null","","audio-keyboard-response","453","4130471","0.0-15.0-0.0","a","24","Sounds/car_label.wav","null","2","","","","","","",""
"null","","html-keyboard-response","454","4131466","0.0-15.0-1.0","a","24","<p style=""font-size: 48px;"">+</p>","null","2","","","","","","",""
"486.9350000517443","","image-keyboard-response","455","4131954","0.0-15.0-2.0","a","24","Images/train_2.png","76","2","1582495796734","non-match","train","car","label","test","true"
"null","","audio-keyboard-response","456","4133969","0.0-15.0-3.0","a","24","Sounds/correct.wav","null","2","","","","","","",""
"null","","audio-keyboard-response","457","4134671","0.0-15.0-0.1","a","24","Sounds/whistle_sound.wav","null","2","","","","","","",""
"null","","html-keyboard-response","458","4135666","0.0-15.0-1.1","a","24","<p style=""font-size: 48px;"">+</p>","null","2","","","","","","",""
"534.8350000567734","","image-keyboard-response","459","4136202","0.0-15.0-2.1","a","24","Images/motorcycle_1.png","76","2","1582495800934","non-match","motorcycle","whistle","sound","test","true"
"null","","audio-keyboard-response","460","4138206","0.0-15.0-3.1","a","24","Sounds/correct.wav","null","2","","","","","","",""
"null","","audio-keyboard-response","461","4139051","0.0-15.0-0.2","a","24","Sounds/cat_label.wav","null","2","","","","","","",""
"null","","html-keyboard-response","462","4140049","0.0-15.0-1.2","a","24","<p style=""font-size: 48px;"">+</p>","null","2","","","","","","",""
"399.66500003356487","","image-keyboard-response","463","4140450","0.0-15.0-2.2","a","24","Images/cat_3.png","65","2","1582495805317","match","cat","cat","label","test","true"
"null","","audio-keyboard-response","464","4142467","0.0-15.0-3.2","a","24","Sounds/correct.wav","null","2","","","","","","",""
"null","","audio-keyboard-response","465","4143591","0.0-15.0-0.3","a","24","Sounds/motorcycle_sound.wav","null","2","","","","","","",""
"null","","html-keyboard-response","466","4144583","0.0-15.0-1.3","a","24","<p style=""font-size: 48px;"">+</p>","null","2","","","","","","",""
"777.3550000274554","","image-keyboard-response","467","4145362","0.0-15.0-2.3","a","24","Images/motorcycle_cartoon.png","65","2","1582495809851","match","motorcycle","motorcycle","sound","test","true"
"null","","audio-keyboard-response","468","4147373","0.0-15.0-3.3","a","24","Sounds/correct.wav","null","2","","","","","","",""
"null","","audio-keyboard-response","469","4148031","0.0-15.0-0.4","a","24","Sounds/dog_label.wav","null","2","","","","","","",""
"null","","html-keyboard-response","470","4149049","0.0-15.0-1.4","a","24","<p style=""font-size: 48px;"">+</p>","null","2","","","","","","",""
"399.17999994941056","","image-keyboard-response","471","4149450","0.0-15.0-2.4","a","24","Images/motorcycle_3.png","76","2","1582495814317","non-match","motorcycle","dog","label","test","true"
"null","","audio-keyboard-response","472","4151465","0.0-15.0-3.4","a","24","Sounds/correct.wav","null","2","","","","","","",""
"null","","audio-keyboard-response","473","4152091","0.0-15.0-0.5","a","24","Sounds/dog_label.wav","null","2","","","","","","",""
"null","","html-keyboard-response","474","4153083","0.0-15.0-1.5","a","24","<p style=""font-size: 48px;"">+</p>","null","2","","","","","","",""
"516.7149999178946","","image-keyboard-response","475","4153602","0.0-15.0-2.5","a","24","Images/rooster_cartoon.png","76","2","1582495818351","non-match","rooster","dog","label","test","true"
"null","","audio-keyboard-response","476","4155608","0.0-15.0-3.5","a","24","Sounds/correct.wav","null","2","","","","","","",""
"null","","audio-keyboard-response","477","4156191","0.0-15.0-0.6","a","24","Sounds/gun_sound.wav","null","2","","","","","","",""
"null","","html-keyboard-response","478","4157183","0.0-15.0-1.6","a","24","<p style=""font-size: 48px;"">+</p>","null","2","","","","","","",""
"433.8999999454245","","image-keyboard-response","479","4157618","0.0-15.0-2.6","a","24","Images/gun_cartoon.png","65","2","1582495822451","match","gun","gun","sound","test","true"
"null","","audio-keyboard-response","480","4159632","0.0-15.0-3.6","a","24","Sounds/correct.wav","null","2","","","","","","",""
"null","","audio-keyboard-response","481","4160711","0.0-15.0-0.7","a","24","Sounds/car_label.wav","null","2","","","","","","",""
"null","","html-keyboard-response","482","4161716","0.0-15.0-1.7","a","24","<p style=""font-size: 48px;"">+</p>","null","2","","","","","","",""
"420.47999997157604","","image-keyboard-response","483","4162138","0.0-15.0-2.7","a","24","Images/car_2.png","65","2","1582495826984","match","car","car","label","test","true"
"null","","audio-keyboard-response","484","4164153","0.0-15.0-3.7","a","24","Sounds/correct.wav","null","2","","","","","","",""
"null","","audio-keyboard-response","485","4165031","0.0-15.0-0.8","a","24","Sounds/frog_label.wav","null","2","","","","","","",""
"null","","html-keyboard-response","486","4166049","0.0-15.0-1.8","a","24","<p style=""font-size: 48px;"">+</p>","null","2","","","","","","",""
"431.23999994713813","","image-keyboard-response","487","4166484","0.0-15.0-2.8","a","24","Images/cow_1.png","76","2","1582495831317","non-match","cow","frog","label","test","true"
"null","","audio-keyboard-response","488","4168494","0.0-15.0-3.8","a","24","Sounds/correct.wav","null","2","","","","","","",""
"null","","audio-keyboard-response","489","4169513","0.0-15.0-0.9","a","24","Sounds/cow_sound.wav","null","2","","","","","","",""
"null","","html-keyboard-response","490","4170518","0.0-15.0-1.9","a","24","<p style=""font-size: 48px;"">+</p>","null","2","","","","","","",""
"540.2049999684095","","image-keyboard-response","491","4171059","0.0-15.0-2.9","a","24","Images/cow_1.png","65","2","1582495835786","match","cow","cow","sound","test","true"
"null","","audio-keyboard-response","492","4173075","0.0-15.0-3.9","a","24","Sounds/correct.wav","null","2","","","","","","",""
"null","","audio-keyboard-response","493","4173773","0.0-15.0-0.10","a","24","Sounds/rooster_label.wav","null","2","","","","","","",""
"null","","html-keyboard-response","494","4174768","0.0-15.0-1.10","a","24","<p style=""font-size: 48px;"">+</p>","null","2","","","","","","",""
"578.4799999091774","","image-keyboard-response","495","4175347","0.0-15.0-2.10","a","24","Images/rooster_3.png","65","2","1582495840036","match","rooster","rooster","label","test","true"
"null","","audio-keyboard-response","496","4177357","0.0-15.0-3.10","a","24","Sounds/correct.wav","null","2","","","","","","",""
"null","","audio-keyboard-response","497","4178233","0.0-15.0-0.11","a","24","Sounds/frog_label.wav","null","2","","","","","","",""
"null","","html-keyboard-response","498","4179235","0.0-15.0-1.11","a","24","<p style=""font-size: 48px;"">+</p>","null","2","","","","","","",""
"399.9700000276789","","image-keyboard-response","499","4179636","0.0-15.0-2.11","a","24","Images/gun_1.png","76","2","1582495844503","non-match","gun","frog","label","test","true"
"null","","audio-keyboard-response","500","4181653","0.0-15.0-3.11","a","24","Sounds/correct.wav","null","2","","","","","","",""
"null","","audio-keyboard-response","501","4182953","0.0-15.0-0.12","a","24","Sounds/train_sound.wav","null","2","","","","","","",""
"null","","html-keyboard-response","502","4183951","0.0-15.0-1.12","a","24","<p style=""font-size: 48px;"">+</p>","null","2","","","","","","",""
"482.8099999576807","","image-keyboard-response","503","4184435","0.0-15.0-2.12","a","24","Images/car_3.png","76","2","1582495849219","non-match","car","train","sound","test","true"
"null","","audio-keyboard-response","504","4186447","0.0-15.0-3.12","a","24","Sounds/correct.wav","null","2","","","","","","",""
"null","","audio-keyboard-response","505","4187533","0.0-15.0-0.13","a","24","Sounds/car_label.wav","null","2","","","","","","",""
"null","","html-keyboard-response","506","4188535","0.0-15.0-1.13","a","24","<p style=""font-size: 48px;"">+</p>","null","2","","","","","","",""
"435.5800000485033","","image-keyboard-response","507","4188971","0.0-15.0-2.13","a","24","Images/car_3.png","65","2","1582495853803","match","car","car","label","test","true"
"null","","audio-keyboard-response","508","4190989","0.0-15.0-3.13","a","24","Sounds/correct.wav","null","2","","","","","","",""
"null","","audio-keyboard-response","509","4191693","0.0-15.0-0.14","a","24","Sounds/whistle_label.wav","null","2","","","","","","",""
"null","","html-keyboard-response","510","4192685","0.0-15.0-1.14","a","24","<p style=""font-size: 48px;"">+</p>","null","2","","","","","","",""
"485.7300000730902","","image-keyboard-response","511","4193172","0.0-15.0-2.14","a","24","Images/dog_1.png","76","2","1582495857953","non-match","dog","whistle","label","test","true"
"null","","audio-keyboard-response","512","4195179","0.0-15.0-3.14","a","24","Sounds/correct.wav","null","2","","","","","","",""
"null","","audio-keyboard-response","513","4195873","0.0-15.0-0.15","a","24","Sounds/whistle_sound.wav","null","2","","","","","","",""
"null","","html-keyboard-response","514","4196868","0.0-15.0-1.15","a","24","<p style=""font-size: 48px;"">+</p>","null","2","","","","","","",""
"550.0900000333786","","image-keyboard-response","515","4197419","0.0-15.0-2.15","a","24","Images/whistle_3.png","65","2","1582495862136","match","whistle","whistle","sound","test","true"
"null","","audio-keyboard-response","516","4199429","0.0-15.0-3.15","a","24","Sounds/correct.wav","null","2","","","","","","",""
"null","","audio-keyboard-response","517","4200093","0.0-15.0-0.16","a","24","Sounds/whistle_sound.wav","null","2","","","","","","",""
"null","","html-keyboard-response","518","4201085","0.0-15.0-1.16","a","24","<p style=""font-size: 48px;"">+</p>","null","2","","","","","","",""
"445.4200000036508","","image-keyboard-response","519","4201531","0.0-15.0-2.16","a","24","Images/whistle_orig.png","65","2","1582495866353","match","whistle","whistle","sound","test","true"
"null","","audio-keyboard-response","520","4203549","0.0-15.0-3.16","a","24","Sounds/correct.wav","null","2","","","","","","",""
"null","","audio-keyboard-response","521","4204133","0.0-15.0-0.17","a","24","Sounds/gun_sound.wav","null","2","","","","","","",""
"null","","html-keyboard-response","522","4205135","0.0-15.0-1.17","a","24","<p style=""font-size: 48px;"">+</p>","null","2","","","","","","",""
"435.5500000528991","","image-keyboard-response","523","4205572","0.0-15.0-2.17","a","24","Images/gun_2.png","65","2","1582495870403","match","gun","gun","sound","test","true"
"null","","audio-keyboard-response","524","4207583","0.0-15.0-3.17","a","24","Sounds/correct.wav","null","2","","","","","","",""
"null","","audio-keyboard-response","525","4208413","0.0-15.0-0.18","a","24","Sounds/cat_label.wav","null","2","","","","","","",""
"null","","html-keyboard-response","526","4209401","0.0-15.0-1.18","a","24","<p style=""font-size: 48px;"">+</p>","null","2","","","","","","",""
"471.96999995503575","","image-keyboard-response","527","4209875","0.0-15.0-2.18","a","24","Images/cat_cartoon.png","65","2","1582495874670","match","cat","cat","label","test","true"
"null","","audio-keyboard-response","528","4211882","0.0-15.0-3.18","a","24","Sounds/correct.wav","null","2","","","","","","",""
"null","","audio-keyboard-response","529","4212553","0.0-15.0-0.19","a","24","Sounds/whistle_sound.wav","null","2","","","","","","",""
"null","","html-keyboard-response","530","4213552","0.0-15.0-1.19","a","24","<p style=""font-size: 48px;"">+</p>","null","2","","","","","","",""
"570.5999999772757","","image-keyboard-response","531","4214123","0.0-15.0-2.19","a","24","Images/whistle_2.png","65","2","1582495878820","match","whistle","whistle","sound","test","true"
"null","","audio-keyboard-response","532","4216139","0.0-15.0-3.19","a","24","Sounds/correct.wav","null","2","","","","","","",""
"null","","audio-keyboard-response","533","4217213","0.0-15.0-0.20","a","24","Sounds/car_sound.wav","null","2","","","","","","",""
"null","","html-keyboard-response","534","4218219","0.0-15.0-1.20","a","24","<p style=""font-size: 48px;"">+</p>","null","2","","","","","","",""
"816.1349999718368","","image-keyboard-response","535","4219036","0.0-15.0-2.20","a","24","Images/car_cartoon.png","65","2","1582495883486","match","car","car","sound","test","true"
"null","","audio-keyboard-response","536","4221039","0.0-15.0-3.20","a","24","Sounds/correct.wav","null","2","","","","","","",""
"null","","audio-keyboard-response","537","4222053","0.0-15.0-0.21","a","24","Sounds/cow_sound.wav","null","2","","","","","","",""
"null","","html-keyboard-response","538","4223052","0.0-15.0-1.21","a","24","<p style=""font-size: 48px;"">+</p>","null","2","","","","","","",""
"518.4900000458583","","image-keyboard-response","539","4223571","0.0-15.0-2.21","a","24","Images/cat_1.png","76","2","1582495888320","non-match","cat","cow","sound","test","true"
"null","","audio-keyboard-response","540","4225577","0.0-15.0-3.21","a","24","Sounds/correct.wav","null","2","","","","","","",""
"null","","audio-keyboard-response","541","4226233","0.0-15.0-0.22","a","24","Sounds/dog_label.wav","null","2","","","","","","",""
"null","","html-keyboard-response","542","4227236","0.0-15.0-1.22","a","24","<p style=""font-size: 48px;"">+</p>","null","2","","","","","","",""
"351.1700000381097","","image-keyboard-response","543","4227589","0.0-15.0-2.22","a","24","Images/dog_1.png","65","2","1582495892505","match","dog","dog","label","test","true"
"null","","audio-keyboard-response","544","4229592","0.0-15.0-3.22","a","24","Sounds/correct.wav","null","2","","","","","","",""
"null","","audio-keyboard-response","545","4230634","0.0-15.0-0.23","a","24","Sounds/car_sound.wav","null","2","","","","","","",""
"null","","html-keyboard-response","546","4231637","0.0-15.0-1.23","a","24","<p style=""font-size: 48px;"">+</p>","null","2","","","","","","",""
"423.42000000644475","","image-keyboard-response","547","4232061","0.0-15.0-2.23","a","24","Images/frog_orig.png","76","2","1582495896905","non-match","frog","car","sound","test","true"
"null","","audio-keyboard-response","548","4234072","0.0-15.0-3.23","a","24","Sounds/correct.wav","null","2","","","","","","",""
"null","","audio-keyboard-response","549","4234754","0.0-15.0-0.24","a","24","Sounds/whistle_sound.wav","null","2","","","","","","",""
"null","","html-keyboard-response","550","4235753","0.0-15.0-1.24","a","24","<p style=""font-size: 48px;"">+</p>","null","2","","","","","","",""
"634.3750000232831","","image-keyboard-response","551","4236389","0.0-15.0-2.24","a","24","Images/gun_2.png","76","2","1582495901021","non-match","gun","whistle","sound","test","true"
"null","","audio-keyboard-response","552","4238403","0.0-15.0-3.24","a","24","Sounds/correct.wav","null","2","","","","","","",""
"null","","audio-keyboard-response","553","4239694","0.0-15.0-0.25","a","24","Sounds/train_sound.wav","null","2","","","","","","",""
"null","","html-keyboard-response","554","4240686","0.0-15.0-1.25","a","24","<p style=""font-size: 48px;"">+</p>","null","2","","","","","","",""
"413.11999992467463","","image-keyboard-response","555","4241101","0.0-15.0-2.25","a","24","Images/train_orig.png","65","2","1582495905955","match","train","train","sound","test","true"
"null","","audio-keyboard-response","556","4243106","0.0-15.0-3.25","a","24","Sounds/correct.wav","null","2","","","","","","",""
"null","","audio-keyboard-response","557","4244214","0.0-15.0-0.26","a","24","Sounds/motorcycle_sound.wav","null","2","","","","","","",""
"null","","html-keyboard-response","558","4245220","0.0-15.0-1.26","a","24","<p style=""font-size: 48px;"">+</p>","null","2","","","","","","",""
"695.7049999618903","","image-keyboard-response","559","4245917","0.0-15.0-2.26","a","24","Images/motorcycle_orig.png","65","2","1582495910488","match","motorcycle","motorcycle","sound","test","true"
"null","","audio-keyboard-response","560","4247932","0.0-15.0-3.26","a","24","Sounds/correct.wav","null","2","","","","","","",""
"null","","audio-keyboard-response","561","4249014","0.0-15.0-0.27","a","24","Sounds/car_label.wav","null","2","","","","","","",""
"null","","html-keyboard-response","562","4250020","0.0-15.0-1.27","a","24","<p style=""font-size: 48px;"">+</p>","null","2","","","","","","",""
"415.525000076741","","image-keyboard-response","563","4250437","0.0-15.0-2.27","a","24","Images/cat_orig.png","76","2","1582495915288","non-match","cat","car","label","test","true"
"null","","audio-keyboard-response","564","4252453","0.0-15.0-3.27","a","24","Sounds/correct.wav","null","2","","","","","","",""
"null","","audio-keyboard-response","565","4253294","0.0-15.0-0.28","a","24","Sounds/cat_sound.wav","null","2","","","","","","",""
"null","","html-keyboard-response","566","4254287","0.0-15.0-1.28","a","24","<p style=""font-size: 48px;"">+</p>","null","2","","","","","","",""
"452.8300000820309","","image-keyboard-response","567","4254741","0.0-15.0-2.28","a","24","Images/cat_2.png","65","2","1582495919555","match","cat","cat","sound","test","true"
"null","","audio-keyboard-response","568","4256744","0.0-15.0-3.28","a","24","Sounds/correct.wav","null","2","","","","","","",""
"null","","audio-keyboard-response","569","4257314","0.0-15.0-0.29","a","24","Sounds/gun_label.wav","null","2","","","","","","",""
"null","","html-keyboard-response","570","4258303","0.0-15.0-1.29","a","24","<p style=""font-size: 48px;"">+</p>","null","2","","","","","","",""
"436.6199999349192","","image-keyboard-response","571","4258741","0.0-15.0-2.29","a","24","Images/gun_1.png","76","2","1582495923572","match","gun","gun","label","test","false"
"null","","audio-keyboard-response","572","4260753","0.0-15.0-3.29","a","24","Sounds/incorrect.wav","null","2","","","","","","",""
"null","","audio-keyboard-response","573","4261774","0.0-15.0-0.30","a","24","Sounds/cow_sound.wav","null","2","","","","","","",""
"null","","html-keyboard-response","574","4262770","0.0-15.0-1.30","a","24","<p style=""font-size: 48px;"">+</p>","null","2","","","","","","",""
"473.4300000127405","","image-keyboard-response","575","4263245","0.0-15.0-2.30","a","24","Images/cow_cartoon.png","65","2","1582495928038","match","cow","cow","sound","test","true"
"null","","audio-keyboard-response","576","4265250","0.0-15.0-3.30","a","24","Sounds/correct.wav","null","2","","","","","","",""
"null","","audio-keyboard-response","577","4265954","0.0-15.0-0.31","a","24","Sounds/rooster_sound.wav","null","2","","","","","","",""
"null","","html-keyboard-response","578","4266953","0.0-15.0-1.31","a","24","<p style=""font-size: 48px;"">+</p>","null","2","","","","","","",""
"522.205000044778","","image-keyboard-response","579","4267477","0.0-15.0-2.31","a","24","Images/rooster_2.png","65","2","1582495932222","match","rooster","rooster","sound","test","true"
"null","","audio-keyboard-response","580","4269495","0.0-15.0-3.31","a","24","Sounds/correct.wav","null","2","","","","","","",""
"null","","audio-keyboard-response","581","4270394","0.0-15.0-0.32","a","24","Sounds/frog_sound.wav","null","2","","","","","","",""
"null","","html-keyboard-response","582","4271387","0.0-15.0-1.32","a","24","<p style=""font-size: 48px;"">+</p>","null","2","","","","","","",""
"433.04000003263354","","image-keyboard-response","583","4271821","0.0-15.0-2.32","a","24","Images/frog_2.png","65","2","1582495936655","match","frog","frog","sound","test","true"
"null","","audio-keyboard-response","584","4273825","0.0-15.0-3.32","a","24","Sounds/correct.wav","null","2","","","","","","",""
"null","","audio-keyboard-response","585","4274474","0.0-15.0-0.33","a","24","Sounds/dog_label.wav","null","2","","","","","","",""
"null","","html-keyboard-response","586","4275470","0.0-15.0-1.33","a","24","<p style=""font-size: 48px;"">+</p>","null","2","","","","","","",""
"429.34999999124557","","image-keyboard-response","587","4275901","0.0-15.0-2.33","a","24","Images/dog_3.png","65","2","1582495940738","match","dog","dog","label","test","true"
"null","","audio-keyboard-response","588","4277903","0.0-15.0-3.33","a","24","Sounds/correct.wav","null","2","","","","","","",""
"null","","audio-keyboard-response","589","4278794","0.0-15.0-0.34","a","24","Sounds/frog_sound.wav","null","2","","","","","","",""
"null","","html-keyboard-response","590","4279787","0.0-15.0-1.34","a","24","<p style=""font-size: 48px;"">+</p>","null","2","","","","","","",""
"392.69000000786036","","image-keyboard-response","591","4280181","0.0-15.0-2.34","a","24","Images/frog_1.png","65","2","1582495945055","match","frog","frog","sound","test","true"
"null","","audio-keyboard-response","592","4282190","0.0-15.0-3.34","a","24","Sounds/correct.wav","null","2","","","","","","",""
"null","","audio-keyboard-response","593","4282894","0.0-15.0-0.35","a","24","Sounds/rooster_label.wav","null","2","","","","","","",""
"null","","html-keyboard-response","594","4283887","0.0-15.0-1.35","a","24","<p style=""font-size: 48px;"">+</p>","null","2","","","","","","",""
"460.7349999714643","","image-keyboard-response","595","4284349","0.0-15.0-2.35","a","24","Images/rooster_orig.png","65","2","1582495949155","match","rooster","rooster","label","test","true"
"null","","audio-keyboard-response","596","4286353","0.0-15.0-3.35","a","24","Sounds/correct.wav","null","2","","","","","","",""
"null","","audio-keyboard-response","597","4287475","0.0-15.0-0.36","a","24","Sounds/motorcycle_sound.wav","null","2","","","","","","",""
"null","","html-keyboard-response","598","4288472","0.0-15.0-1.36","a","24","<p style=""font-size: 48px;"">+</p>","null","2","","","","","","",""
"404.2800000170246","","image-keyboard-response","599","4288878","0.0-15.0-2.36","a","24","Images/frog_3.png","76","2","1582495953740","non-match","frog","motorcycle","sound","test","true"
"null","","audio-keyboard-response","600","4290888","0.0-15.0-3.36","a","24","Sounds/correct.wav","null","2","","","","","","",""
"null","","audio-keyboard-response","601","4291975","0.0-15.0-0.37","a","24","Sounds/motorcycle_sound.wav","null","2","","","","","","",""
"null","","html-keyboard-response","602","4292971","0.0-15.0-1.37","a","24","<p style=""font-size: 48px;"">+</p>","null","2","","","","","","",""
"601.2499999487773","","image-keyboard-response","603","4293574","0.0-15.0-2.37","a","24","Images/motorcycle_2.png","65","2","1582495958240","match","motorcycle","motorcycle","sound","test","true"
"null","","audio-keyboard-response","604","4295576","0.0-15.0-3.37","a","24","Sounds/correct.wav","null","2","","","","","","",""
"null","","audio-keyboard-response","605","4296655","0.0-15.0-0.38","a","24","Sounds/car_sound.wav","null","2","","","","","","",""
"null","","html-keyboard-response","606","4297655","0.0-15.0-1.38","a","24","<p style=""font-size: 48px;"">+</p>","null","2","","","","","","",""
"518.3999999426305","","image-keyboard-response","607","4298174","0.0-15.0-2.38","a","24","Images/car_1.png","65","2","1582495962923","match","car","car","sound","test","true"
"null","","audio-keyboard-response","608","4300181","0.0-15.0-3.38","a","24","Sounds/correct.wav","null","2","","","","","","",""
"null","","audio-keyboard-response","609","4300755","0.0-15.0-0.39","a","24","Sounds/gun_label.wav","null","2","","","","","","",""
"null","","html-keyboard-response","610","4301755","0.0-15.0-1.39","a","24","<p style=""font-size: 48px;"">+</p>","null","2","","","","","","",""
"465.87499999441206","","image-keyboard-response","611","4302222","0.0-15.0-2.39","a","24","Images/gun_orig.png","65","2","1582495967023","match","gun","gun","label","test","true"
"null","","audio-keyboard-response","612","4304235","0.0-15.0-3.39","a","24","Sounds/correct.wav","null","2","","","","","","",""
"null","","audio-keyboard-response","613","4304935","0.0-15.0-0.40","a","24","Sounds/rooster_label.wav","null","2","","","","","","",""
"null","","html-keyboard-response","614","4305938","0.0-15.0-1.40","a","24","<p style=""font-size: 48px;"">+</p>","null","2","","","","","","",""
"450.39000001270324","","image-keyboard-response","615","4306390","0.0-15.0-2.40","a","24","Images/frog_cartoon.png","65","2","1582495971206","non-match","frog","rooster","label","test","false"
"null","","audio-keyboard-response","616","4308402","0.0-15.0-3.40","a","24","Sounds/incorrect.wav","null","2","","","","","","",""
"null","","audio-keyboard-response","617","4309075","0.0-15.0-0.41","a","24","Sounds/rooster_label.wav","null","2","","","","","","",""
"null","","html-keyboard-response","618","4310072","0.0-15.0-1.41","a","24","<p style=""font-size: 48px;"">+</p>","null","2","","","","","","",""
"436.42499996349216","","image-keyboard-response","619","4310510","0.0-15.0-2.41","a","24","Images/rooster_1.png","65","2","1582495975340","match","rooster","rooster","label","test","true"
"null","","audio-keyboard-response","620","4312525","0.0-15.0-3.41","a","24","Sounds/correct.wav","null","2","","","","","","",""
"null","","audio-keyboard-response","621","4313235","0.0-15.0-0.42","a","24","Sounds/rooster_sound.wav","null","2","","","","","","",""
"null","","html-keyboard-response","622","4314238","0.0-15.0-1.42","a","24","<p style=""font-size: 48px;"">+</p>","null","2","","","","","","",""
"422.37499996554106","","image-keyboard-response","623","4314662","0.0-15.0-2.42","a","24","Images/rooster_cartoon.png","65","2","1582495979506","match","rooster","rooster","sound","test","true"
"null","","audio-keyboard-response","624","4316671","0.0-15.0-3.42","a","24","Sounds/correct.wav","null","2","","","","","","",""
"null","","audio-keyboard-response","625","4317975","0.0-15.0-0.43","a","24","Sounds/train_sound.wav","null","2","","","","","","",""
"null","","html-keyboard-response","626","4318972","0.0-15.0-1.43","a","24","<p style=""font-size: 48px;"">+</p>","null","2","","","","","","",""
"408.8899999624118","","image-keyboard-response","627","4319382","0.0-15.0-2.43","a","24","Images/motorcycle_2.png","76","2","1582495984240","non-match","motorcycle","train","sound","test","true"
"null","","audio-keyboard-response","628","4321389","0.0-15.0-3.43","a","24","Sounds/correct.wav","null","2","","","","","","",""
"null","","audio-keyboard-response","629","4322035","0.0-15.0-0.44","a","24","Sounds/dog_label.wav","null","2","","","","","","",""
"null","","html-keyboard-response","630","4323038","0.0-15.0-1.44","a","24","<p style=""font-size: 48px;"">+</p>","null","2","","","","","","",""
"502.4699999485165","","image-keyboard-response","631","4323542","0.0-15.0-2.44","a","24","Images/dog_cartoon.png","65","2","1582495988307","match","dog","dog","label","test","true"
"null","","audio-keyboard-response","632","4325549","0.0-15.0-3.44","a","24","Sounds/correct.wav","null","2","","","","","","",""
"null","","audio-keyboard-response","633","4326575","0.0-15.0-0.45","a","24","Sounds/cow_label.wav","null","2","","","","","","",""
"null","","html-keyboard-response","634","4327572","0.0-15.0-1.45","a","24","<p style=""font-size: 48px;"">+</p>","null","2","","","","","","",""
"400.80499998293817","","image-keyboard-response","635","4327974","0.0-15.0-2.45","a","24","Images/cow_2.png","76","2","1582495992840","match","cow","cow","label","test","false"
"null","","audio-keyboard-response","636","4329990","0.0-15.0-3.45","a","24","Sounds/incorrect.wav","null","2","","","","","","",""
"null","","audio-keyboard-response","637","4330975","0.0-15.0-0.46","a","24","Sounds/cow_label.wav","null","2","","","","","","",""
"null","","html-keyboard-response","638","4331972","0.0-15.0-1.46","a","24","<p style=""font-size: 48px;"">+</p>","null","2","","","","","","",""
"592.85000001546","","image-keyboard-response","639","4332566","0.0-15.0-2.46","a","24","Images/rooster_orig.png","76","2","1582495997240","non-match","rooster","cow","label","test","true"
"null","","audio-keyboard-response","640","4334576","0.0-15.0-3.46","a","24","Sounds/correct.wav","null","2","","","","","","",""
"null","","audio-keyboard-response","641","4335475","0.0-15.0-0.47","a","24","Sounds/frog_label.wav","null","2","","","","","","",""
"null","","html-keyboard-response","642","4336472","0.0-15.0-1.47","a","24","<p style=""font-size: 48px;"">+</p>","null","2","","","","","","",""
"428.9150000549853","","image-keyboard-response","643","4336902","0.0-15.0-2.47","a","24","Images/frog_cartoon.png","65","2","1582496001740","match","frog","frog","label","test","true"
"null","","audio-keyboard-response","644","4338920","0.0-15.0-3.47","a","24","Sounds/correct.wav","null","2","","","","","","",""
"null","","audio-keyboard-response","645","4340215","0.0-15.0-0.48","a","24","Sounds/train_sound.wav","null","2","","","","","","",""
"null","","html-keyboard-response","646","4341205","0.0-15.0-1.48","a","24","<p style=""font-size: 48px;"">+</p>","null","2","","","","","","",""
"439.4349999492988","","image-keyboard-response","647","4341646","0.0-15.0-2.48","a","24","Images/train_3.png","65","2","1582496006473","match","train","train","sound","test","true"
"null","","audio-keyboard-response","648","4343656","0.0-15.0-3.48","a","24","Sounds/correct.wav","null","2","","","","","","",""
"null","","audio-keyboard-response","649","4344235","0.0-15.0-0.49","a","24","Sounds/gun_sound.wav","null","2","","","","","","",""
"null","","html-keyboard-response","650","4345239","0.0-15.0-1.49","a","24","<p style=""font-size: 48px;"">+</p>","null","2","","","","","","",""
"565.1050000451505","","image-keyboard-response","651","4345806","0.0-15.0-2.49","a","24","Images/cow_3.png","76","2","1582496010507","non-match","cow","gun","sound","test","true"
"null","","audio-keyboard-response","652","4347813","0.0-15.0-3.49","a","24","Sounds/correct.wav","null","2","","","","","","",""
"null","","audio-keyboard-response","653","4348516","0.0-15.0-0.50","a","24","Sounds/rooster_label.wav","null","2","","","","","","",""
"null","","html-keyboard-response","654","4349507","0.0-15.0-1.50","a","24","<p style=""font-size: 48px;"">+</p>","null","2","","","","","","",""
"467.4850000301376","","image-keyboard-response","655","4349975","0.0-15.0-2.50","a","24","Images/car_orig.png","76","2","1582496014775","non-match","car","rooster","label","test","true"
"null","","audio-keyboard-response","656","4351987","0.0-15.0-3.50","a","24","Sounds/correct.wav","null","2","","","","","","",""
"null","","audio-keyboard-response","657","4353256","0.0-15.0-0.51","a","24","Sounds/train_label.wav","null","2","","","","","","",""
