"rt","responses","trial_type","trial_index","time_elapsed","internal_node_id","match_key","participant_id","stimulus","key_press","block","stim_onset","match_type","image_category","sound_category","audio_type","phase","correct"
"12572.294999961741","{""Q0"":""COGS219_2020_29""}","survey-text","0","12627","0.0-0.0","a","COGS219_2020_29","","","","","","","","","",""
"37629.650000017136","","html-keyboard-response","1","50269","0.0-1.0","a","COGS219_2020_29","<p>Use KEYBOARD 2 (match LEFT)</p><p>Press MATCH to continue.</p>","65","","","","","","","",""
"2754077.410000027","","html-keyboard-response","2","2804659","0.0-2.0","a","COGS219_2020_29","<p>Welcome to the experiment.</p>","32","","","","","","","",""
"3063.345000031404","","html-keyboard-response","3","2807728","0.0-3.0","a","COGS219_2020_29","<p>Thank you for agreeing to participate in this study.</p><p>If during any part of the procedure you must stop for any reason, please inform the researcher that you do not wish to continue.</p>","32","","","","","","","",""
"2807.024999987334","","html-keyboard-response","4","2810536","0.0-4.0","a","COGS219_2020_29","<p>In this experiment, you will hear various words or sounds and see pictures of various animals and objects.</p><p>Most of the images will be of common everyday objects, such as cars, cats, cows, firearms, frogs, chickens, whistles, trains, motorcycles, and dogs.</p><p>Some of the images will be real-life stills, while others will be cartoons.</p>","32","","","","","","","",""
"25567.775000003166","","html-keyboard-response","5","2836099","0.0-5.0","a","COGS219_2020_29","<p>Sometimes, the word/sound will match the picture, for example you'll hear a meowing sound and see a cat.</p><p>Other times, the picture will not match the sound or word.</p><p>Your task is to decide as quickly as possible if the word/sound matches the picture or not. </p>","32","","","","","","","",""
"15286.410000058822","","html-keyboard-response","6","2851387","0.0-6.0","a","COGS219_2020_29","<p>For example, if you hear the word ""cat"" or hear a meowing sound, and then see a picture of a cat, you should press the MATCH key.</p><p> If the sound and image do not match, press the NOT-MATCH key to indicate that there is not a match.</p>","32","","","","","","","",""
"14910.24999995716","","html-keyboard-response","7","2866298","0.0-7.0","a","COGS219_2020_29","<p>If you make a mistake, you will hear a buzzing sound instead of a more pleasant sound.</p><p> Try to respond as quickly as possible, while making as few errors as possible. If you are making mistakes, you are probably rushing.</p>","32","","","","","","","",""
"12238.6749999132","","html-keyboard-response","8","2878538","0.0-8.0","a","COGS219_2020_29","<p>Please try to not move or blink your eyes during the presentation of the images. You can move and blink between images.</p><p>During the experiment there will be some breaks during which you can rest your eyes.</p>","32","","","","","","","",""
"7790.969999972731","","html-keyboard-response","9","2886330","0.0-9.0","a","COGS219_2020_29","<p>We will begin with 10 practice trials. Please let the experimenter know if you have any questions.</p>","32","","","","","","","",""
"null","","audio-keyboard-response","10","2887119","0.0-10.0-0.0","a","COGS219_2020_29","Sounds/rooster_label.wav","null","0","","","","","","",""
"null","","html-keyboard-response","11","2888114","0.0-10.0-1.0","a","COGS219_2020_29","<p style=""font-size: 48px;"">+</p>","null","0","","","","","","",""
"1053.7799999583513","","image-keyboard-response","12","2889170","0.0-10.0-2.0","a","COGS219_2020_29","Images/rooster_3.png","65","0","1582842207754","match","rooster","rooster","label","practice","true"
"null","","audio-keyboard-response","13","2891185","0.0-10.0-3.0","a","COGS219_2020_29","Sounds/correct.wav","null","0","","","","","","",""
"null","","audio-keyboard-response","14","2892459","0.0-10.0-0.1","a","COGS219_2020_29","Sounds/train_label.wav","null","0","","","","","","",""
"null","","html-keyboard-response","15","2893465","0.0-10.0-1.1","a","COGS219_2020_29","<p style=""font-size: 48px;"">+</p>","null","0","","","","","","",""
"719.8649999918416","","image-keyboard-response","16","2894186","0.0-10.0-2.1","a","COGS219_2020_29","Images/rooster_orig.png","76","0","1582842213104","non-match","rooster","train","label","practice","true"
"null","","audio-keyboard-response","17","2896196","0.0-10.0-3.1","a","COGS219_2020_29","Sounds/correct.wav","null","0","","","","","","",""
"null","","audio-keyboard-response","18","2896764","0.0-10.0-0.2","a","COGS219_2020_29","Sounds/gun_label.wav","null","0","","","","","","",""
"null","","html-keyboard-response","19","2897754","0.0-10.0-1.2","a","COGS219_2020_29","<p style=""font-size: 48px;"">+</p>","null","0","","","","","","",""
"412.6549999928102","","image-keyboard-response","20","2898168","0.0-10.0-2.2","a","COGS219_2020_29","Images/gun_1.png","65","0","1582842217393","match","gun","gun","label","practice","true"
"null","","audio-keyboard-response","21","2900172","0.0-10.0-3.2","a","COGS219_2020_29","Sounds/correct.wav","null","0","","","","","","",""
"null","","audio-keyboard-response","22","2900864","0.0-10.0-0.3","a","COGS219_2020_29","Sounds/rooster_sound.wav","null","0","","","","","","",""
"null","","html-keyboard-response","23","2901854","0.0-10.0-1.3","a","COGS219_2020_29","<p style=""font-size: 48px;"">+</p>","null","0","","","","","","",""
"416.9549999060109","","image-keyboard-response","24","2902272","0.0-10.0-2.3","a","COGS219_2020_29","Images/rooster_1.png","65","0","1582842221493","match","rooster","rooster","sound","practice","true"
"null","","audio-keyboard-response","25","2904287","0.0-10.0-3.3","a","COGS219_2020_29","Sounds/correct.wav","null","0","","","","","","",""
"null","","audio-keyboard-response","26","2905584","0.0-10.0-0.4","a","COGS219_2020_29","Sounds/train_sound.wav","null","0","","","","","","",""
"null","","html-keyboard-response","27","2906587","0.0-10.0-1.4","a","COGS219_2020_29","<p style=""font-size: 48px;"">+</p>","null","0","","","","","","",""
"690.6550000421703","","image-keyboard-response","28","2907280","0.0-10.0-2.4","a","COGS219_2020_29","Images/train_1.png","76","0","1582842226227","match","train","train","sound","practice","false"
"null","","audio-keyboard-response","29","2909284","0.0-10.0-3.4","a","COGS219_2020_29","Sounds/incorrect.wav","null","0","","","","","","",""
"null","","audio-keyboard-response","30","2909944","0.0-10.0-0.5","a","COGS219_2020_29","Sounds/dog_label.wav","null","0","","","","","","",""
"null","","html-keyboard-response","31","2910937","0.0-10.0-1.5","a","COGS219_2020_29","<p style=""font-size: 48px;"">+</p>","null","0","","","","","","",""
"501.3299999991432","","image-keyboard-response","32","2911440","0.0-10.0-2.5","a","COGS219_2020_29","Images/dog_3.png","65","0","1582842230576","match","dog","dog","label","practice","true"
"null","","audio-keyboard-response","33","2913447","0.0-10.0-3.5","a","COGS219_2020_29","Sounds/correct.wav","null","0","","","","","","",""
"null","","audio-keyboard-response","34","2914164","0.0-10.0-0.6","a","COGS219_2020_29","Sounds/dog_sound.wav","null","0","","","","","","",""
"null","","html-keyboard-response","35","2915154","0.0-10.0-1.6","a","COGS219_2020_29","<p style=""font-size: 48px;"">+</p>","null","0","","","","","","",""
"548.8100000657141","","image-keyboard-response","36","2915704","0.0-10.0-2.6","a","COGS219_2020_29","Images/rooster_2.png","76","0","1582842234793","non-match","rooster","dog","sound","practice","true"
"null","","audio-keyboard-response","37","2917714","0.0-10.0-3.6","a","COGS219_2020_29","Sounds/correct.wav","null","0","","","","","","",""
"null","","audio-keyboard-response","38","2918404","0.0-10.0-0.7","a","COGS219_2020_29","Sounds/whistle_sound.wav","null","0","","","","","","",""
"null","","html-keyboard-response","39","2919404","0.0-10.0-1.7","a","COGS219_2020_29","<p style=""font-size: 48px;"">+</p>","null","0","","","","","","",""
"794.6700000902638","","image-keyboard-response","40","2920200","0.0-10.0-2.7","a","COGS219_2020_29","Images/whistle_cartoon.png","65","0","1582842239043","match","whistle","whistle","sound","practice","true"
"null","","audio-keyboard-response","41","2922211","0.0-10.0-3.7","a","COGS219_2020_29","Sounds/correct.wav","null","0","","","","","","",""
"null","","audio-keyboard-response","42","2923284","0.0-10.0-0.8","a","COGS219_2020_29","Sounds/car_sound.wav","null","0","","","","","","",""
"null","","html-keyboard-response","43","2924287","0.0-10.0-1.8","a","COGS219_2020_29","<p style=""font-size: 48px;"">+</p>","null","0","","","","","","",""
"591.0150000127032","","image-keyboard-response","44","2924880","0.0-10.0-2.8","a","COGS219_2020_29","Images/rooster_cartoon.png","76","0","1582842243927","non-match","rooster","car","sound","practice","true"
"null","","audio-keyboard-response","45","2926891","0.0-10.0-3.8","a","COGS219_2020_29","Sounds/correct.wav","null","0","","","","","","",""
"null","","audio-keyboard-response","46","2927724","0.0-10.0-0.9","a","COGS219_2020_29","Sounds/cat_label.wav","null","0","","","","","","",""
"null","","html-keyboard-response","47","2928721","0.0-10.0-1.9","a","COGS219_2020_29","<p style=""font-size: 48px;"">+</p>","null","0","","","","","","",""
"413.8050000183284","","image-keyboard-response","48","2929136","0.0-10.0-2.9","a","COGS219_2020_29","Images/cat_1.png","65","0","1582842248360","match","cat","cat","label","practice","true"
"null","","audio-keyboard-response","49","2931153","0.0-10.0-3.9","a","COGS219_2020_29","Sounds/correct.wav","null","0","","","","","","",""
"35877.835000050254","","html-keyboard-response","50","2967031","0.0-11.0","a","COGS219_2020_29","<p>The rest of the experiment is divided into five blocks with 100 trials in each block. It will take about 45 minutes to complete.</p><p>The experimenter will be in the outer room and you can communicate with them through the monitor if you have any questions or wish to stop the experiment.</p>","32","","","","","","","",""
"4630.494999932125","","html-keyboard-response","51","2971663","0.0-12.0","a","COGS219_2020_29","<p>Remember, please try not to move or blink your eyes during the presentation of the images. </p><p>At the end of the experiment, we will show you your scores on the task so you can see how you did.</p><p>The experiment will start on the next screen.</p>","32","","","","","","","",""
"null","","audio-keyboard-response","52","2974346","0.0-13.0-0.0","a","COGS219_2020_29","Sounds/dog_label.wav","null","1","","","","","","",""
"null","","html-keyboard-response","53","2975337","0.0-13.0-1.0","a","COGS219_2020_29","<p style=""font-size: 48px;"">+</p>","null","1","","","","","","",""
"420.56500003673136","","image-keyboard-response","54","2975759","0.0-13.0-2.0","a","COGS219_2020_29","Images/dog_cartoon.png","76","1","1582842294976","match","dog","dog","label","test","false"
"null","","audio-keyboard-response","55","2977770","0.0-13.0-3.0","a","COGS219_2020_29","Sounds/incorrect.wav","null","1","","","","","","",""
"null","","audio-keyboard-response","56","2978887","0.0-13.0-0.1","a","COGS219_2020_29","Sounds/motorcycle_sound.wav","null","1","","","","","","",""
"null","","html-keyboard-response","57","2979904","0.0-13.0-1.1","a","COGS219_2020_29","<p style=""font-size: 48px;"">+</p>","null","1","","","","","","",""
"1006.1449999921024","","image-keyboard-response","58","2980911","0.0-13.0-2.1","a","COGS219_2020_29","Images/frog_1.png","76","1","1582842299543","non-match","frog","motorcycle","sound","test","true"
"null","","audio-keyboard-response","59","2982925","0.0-13.0-3.1","a","COGS219_2020_29","Sounds/correct.wav","null","1","","","","","","",""
"null","","audio-keyboard-response","60","2984006","0.0-13.0-0.2","a","COGS219_2020_29","Sounds/car_sound.wav","null","1","","","","","","",""
"null","","html-keyboard-response","61","2985004","0.0-13.0-1.2","a","COGS219_2020_29","<p style=""font-size: 48px;"">+</p>","null","1","","","","","","",""
"417.93499991763383","","image-keyboard-response","62","2985423","0.0-13.0-2.2","a","COGS219_2020_29","Images/car_3.png","65","1","1582842304643","match","car","car","sound","test","true"
"null","","audio-keyboard-response","63","2987436","0.0-13.0-3.2","a","COGS219_2020_29","Sounds/correct.wav","null","1","","","","","","",""
"null","","audio-keyboard-response","64","2988446","0.0-13.0-0.3","a","COGS219_2020_29","Sounds/cow_sound.wav","null","1","","","","","","",""
"null","","html-keyboard-response","65","2989437","0.0-13.0-1.3","a","COGS219_2020_29","<p style=""font-size: 48px;"">+</p>","null","1","","","","","","",""
"680.4499999852851","","image-keyboard-response","66","2990119","0.0-13.0-2.3","a","COGS219_2020_29","Images/rooster_1.png","76","1","1582842309076","non-match","rooster","cow","sound","test","true"
"null","","audio-keyboard-response","67","2992134","0.0-13.0-3.3","a","COGS219_2020_29","Sounds/correct.wav","null","1","","","","","","",""
"null","","audio-keyboard-response","68","2992966","0.0-13.0-0.4","a","COGS219_2020_29","Sounds/cat_sound.wav","null","1","","","","","","",""
"null","","html-keyboard-response","69","2993970","0.0-13.0-1.4","a","COGS219_2020_29","<p style=""font-size: 48px;"">+</p>","null","1","","","","","","",""
"627.8800000436604","","image-keyboard-response","70","2994599","0.0-13.0-2.4","a","COGS219_2020_29","Images/motorcycle_1.png","76","1","1582842313610","non-match","motorcycle","cat","sound","test","true"
"null","","audio-keyboard-response","71","2996605","0.0-13.0-3.4","a","COGS219_2020_29","Sounds/correct.wav","null","1","","","","","","",""
"null","","audio-keyboard-response","72","2997606","0.0-13.0-0.5","a","COGS219_2020_29","Sounds/cow_sound.wav","null","1","","","","","","",""
"null","","html-keyboard-response","73","2998604","0.0-13.0-1.5","a","COGS219_2020_29","<p style=""font-size: 48px;"">+</p>","null","1","","","","","","",""
"649.8600000049919","","image-keyboard-response","74","2999255","0.0-13.0-2.5","a","COGS219_2020_29","Images/cat_1.png","76","1","1582842318243","non-match","cat","cow","sound","test","true"
"null","","audio-keyboard-response","75","3001271","0.0-13.0-3.5","a","COGS219_2020_29","Sounds/correct.wav","null","1","","","","","","",""
"null","","audio-keyboard-response","76","3001846","0.0-13.0-0.6","a","COGS219_2020_29","Sounds/gun_label.wav","null","1","","","","","","",""
"null","","html-keyboard-response","77","3002837","0.0-13.0-1.6","a","COGS219_2020_29","<p style=""font-size: 48px;"">+</p>","null","1","","","","","","",""
"432.4749999213964","","image-keyboard-response","78","3003271","0.0-13.0-2.6","a","COGS219_2020_29","Images/gun_cartoon.png","65","1","1582842322476","match","gun","gun","label","test","true"
"null","","audio-keyboard-response","79","3005287","0.0-13.0-3.6","a","COGS219_2020_29","Sounds/correct.wav","null","1","","","","","","",""
"null","","audio-keyboard-response","80","3005866","0.0-13.0-0.7","a","COGS219_2020_29","Sounds/gun_sound.wav","null","1","","","","","","",""
"null","","html-keyboard-response","81","3006871","0.0-13.0-1.7","a","COGS219_2020_29","<p style=""font-size: 48px;"">+</p>","null","1","","","","","","",""
"534.8849999718368","","image-keyboard-response","82","3007407","0.0-13.0-2.7","a","COGS219_2020_29","Images/cat_3.png","76","1","1582842326511","non-match","cat","gun","sound","test","true"
"null","","audio-keyboard-response","83","3009413","0.0-13.0-3.7","a","COGS219_2020_29","Sounds/correct.wav","null","1","","","","","","",""
"null","","audio-keyboard-response","84","3010546","0.0-13.0-0.8","a","COGS219_2020_29","Sounds/motorcycle_label.wav","null","1","","","","","","",""
"null","","html-keyboard-response","85","3011537","0.0-13.0-1.8","a","COGS219_2020_29","<p style=""font-size: 48px;"">+</p>","null","1","","","","","","",""
"444.3149999715388","","image-keyboard-response","86","3011983","0.0-13.0-2.8","a","COGS219_2020_29","Images/dog_cartoon.png","76","1","1582842331177","non-match","dog","motorcycle","label","test","true"
"null","","audio-keyboard-response","87","3013987","0.0-13.0-3.8","a","COGS219_2020_29","Sounds/correct.wav","null","1","","","","","","",""
"null","","audio-keyboard-response","88","3015066","0.0-13.0-0.9","a","COGS219_2020_29","Sounds/car_sound.wav","null","1","","","","","","",""
"null","","html-keyboard-response","89","3016071","0.0-13.0-1.9","a","COGS219_2020_29","<p style=""font-size: 48px;"">+</p>","null","1","","","","","","",""
"638.7899999972433","","image-keyboard-response","90","3016711","0.0-13.0-2.9","a","COGS219_2020_29","Images/whistle_3.png","76","1","1582842335710","non-match","whistle","car","sound","test","true"
"null","","audio-keyboard-response","91","3018720","0.0-13.0-3.9","a","COGS219_2020_29","Sounds/correct.wav","null","1","","","","","","",""
"null","","audio-keyboard-response","92","3019386","0.0-13.0-0.10","a","COGS219_2020_29","Sounds/dog_label.wav","null","1","","","","","","",""
"null","","html-keyboard-response","93","3020404","0.0-13.0-1.10","a","COGS219_2020_29","<p style=""font-size: 48px;"">+</p>","null","1","","","","","","",""
"553.6800000118092","","image-keyboard-response","94","3020959","0.0-13.0-2.10","a","COGS219_2020_29","Images/rooster_2.png","76","1","1582842340043","non-match","rooster","dog","label","test","true"
"null","","audio-keyboard-response","95","3022961","0.0-13.0-3.10","a","COGS219_2020_29","Sounds/correct.wav","null","1","","","","","","",""
"null","","audio-keyboard-response","96","3024006","0.0-13.0-0.11","a","COGS219_2020_29","Sounds/car_sound.wav","null","1","","","","","","",""
"null","","html-keyboard-response","97","3025005","0.0-13.0-1.11","a","COGS219_2020_29","<p style=""font-size: 48px;"">+</p>","null","1","","","","","","",""
"625.7299999706447","","image-keyboard-response","98","3025631","0.0-13.0-2.11","a","COGS219_2020_29","Images/car_cartoon.png","76","1","1582842344644","match","car","car","sound","test","false"
"null","","audio-keyboard-response","99","3027639","0.0-13.0-3.11","a","COGS219_2020_29","Sounds/incorrect.wav","null","1","","","","","","",""
"null","","audio-keyboard-response","100","3028546","0.0-13.0-0.12","a","COGS219_2020_29","Sounds/frog_label.wav","null","1","","","","","","",""
"null","","html-keyboard-response","101","3029538","0.0-13.0-1.12","a","COGS219_2020_29","<p style=""font-size: 48px;"">+</p>","null","1","","","","","","",""
"468.0800000205636","","image-keyboard-response","102","3030007","0.0-13.0-2.12","a","COGS219_2020_29","Images/frog_2.png","65","1","1582842349177","match","frog","frog","label","test","true"
"null","","audio-keyboard-response","103","3032017","0.0-13.0-3.12","a","COGS219_2020_29","Sounds/correct.wav","null","1","","","","","","",""
"null","","audio-keyboard-response","104","3032846","0.0-13.0-0.13","a","COGS219_2020_29","Sounds/cat_label.wav","null","1","","","","","","",""
"null","","html-keyboard-response","105","3033838","0.0-13.0-1.13","a","COGS219_2020_29","<p style=""font-size: 48px;"">+</p>","null","1","","","","","","",""
"448.5100000165403","","image-keyboard-response","106","3034288","0.0-13.0-2.13","a","COGS219_2020_29","Images/cat_1.png","65","1","1582842353477","match","cat","cat","label","test","true"
"null","","audio-keyboard-response","107","3036293","0.0-13.0-3.13","a","COGS219_2020_29","Sounds/correct.wav","null","1","","","","","","",""
"null","","audio-keyboard-response","108","3037006","0.0-13.0-0.14","a","COGS219_2020_29","Sounds/dog_sound.wav","null","1","","","","","","",""
"null","","html-keyboard-response","109","3038005","0.0-13.0-1.14","a","COGS219_2020_29","<p style=""font-size: 48px;"">+</p>","null","1","","","","","","",""
"433.6650000186637","","image-keyboard-response","110","3038439","0.0-13.0-2.14","a","COGS219_2020_29","Images/dog_2.png","65","1","1582842357644","match","dog","dog","sound","test","true"
"null","","audio-keyboard-response","111","3040445","0.0-13.0-3.14","a","COGS219_2020_29","Sounds/correct.wav","null","1","","","","","","",""
"null","","audio-keyboard-response","112","3041466","0.0-13.0-0.15","a","COGS219_2020_29","Sounds/cow_label.wav","null","1","","","","","","",""
"null","","html-keyboard-response","113","3042472","0.0-13.0-1.15","a","COGS219_2020_29","<p style=""font-size: 48px;"">+</p>","null","1","","","","","","",""
"446.55500003136694","","image-keyboard-response","114","3042919","0.0-13.0-2.15","a","COGS219_2020_29","Images/car_1.png","76","1","1582842362111","non-match","car","cow","label","test","true"
"null","","audio-keyboard-response","115","3044935","0.0-13.0-3.15","a","COGS219_2020_29","Sounds/correct.wav","null","1","","","","","","",""
"null","","audio-keyboard-response","116","3046006","0.0-13.0-0.16","a","COGS219_2020_29","Sounds/car_label.wav","null","1","","","","","","",""
"null","","html-keyboard-response","117","3047005","0.0-13.0-1.16","a","COGS219_2020_29","<p style=""font-size: 48px;"">+</p>","null","1","","","","","","",""
"433.4650000091642","","image-keyboard-response","118","3047439","0.0-13.0-2.16","a","COGS219_2020_29","Images/car_2.png","65","1","1582842366644","match","car","car","label","test","true"
"null","","audio-keyboard-response","119","3049454","0.0-13.0-3.16","a","COGS219_2020_29","Sounds/correct.wav","null","1","","","","","","",""
"null","","audio-keyboard-response","120","3050586","0.0-13.0-0.17","a","COGS219_2020_29","Sounds/motorcycle_label.wav","null","1","","","","","","",""
"null","","html-keyboard-response","121","3051588","0.0-13.0-1.17","a","COGS219_2020_29","<p style=""font-size: 48px;"">+</p>","null","1","","","","","","",""
"473.824999993667","","image-keyboard-response","122","3052063","0.0-13.0-2.17","a","COGS219_2020_29","Images/motorcycle_cartoon.png","65","1","1582842371227","match","motorcycle","motorcycle","label","test","true"
"null","","audio-keyboard-response","123","3054076","0.0-13.0-3.17","a","COGS219_2020_29","Sounds/correct.wav","null","1","","","","","","",""
"null","","audio-keyboard-response","124","3055346","0.0-13.0-0.18","a","COGS219_2020_29","Sounds/train_label.wav","null","1","","","","","","",""
"null","","html-keyboard-response","125","3056338","0.0-13.0-1.18","a","COGS219_2020_29","<p style=""font-size: 48px;"">+</p>","null","1","","","","","","",""
"411.9799999753013","","image-keyboard-response","126","3056751","0.0-13.0-2.18","a","COGS219_2020_29","Images/car_orig.png","65","1","1582842375978","non-match","car","train","label","test","false"
"null","","audio-keyboard-response","127","3058756","0.0-13.0-3.18","a","COGS219_2020_29","Sounds/incorrect.wav","null","1","","","","","","",""
"null","","audio-keyboard-response","128","3059806","0.0-13.0-0.19","a","COGS219_2020_29","Sounds/car_label.wav","null","1","","","","","","",""
"null","","html-keyboard-response","129","3060805","0.0-13.0-1.19","a","COGS219_2020_29","<p style=""font-size: 48px;"">+</p>","null","1","","","","","","",""
"513.5749999899417","","image-keyboard-response","130","3061320","0.0-13.0-2.19","a","COGS219_2020_29","Images/train_3.png","65","1","1582842380444","non-match","train","car","label","test","false"
"null","","audio-keyboard-response","131","3063331","0.0-13.0-3.19","a","COGS219_2020_29","Sounds/incorrect.wav","null","1","","","","","","",""
"null","","audio-keyboard-response","132","3064166","0.0-13.0-0.20","a","COGS219_2020_29","Sounds/cat_sound.wav","null","1","","","","","","",""
"null","","html-keyboard-response","133","3065155","0.0-13.0-1.20","a","COGS219_2020_29","<p style=""font-size: 48px;"">+</p>","null","1","","","","","","",""
"467.18000003602356","","image-keyboard-response","134","3065623","0.0-13.0-2.20","a","COGS219_2020_29","Images/cat_orig.png","65","1","1582842384795","match","cat","cat","sound","test","true"
"null","","audio-keyboard-response","135","3067631","0.0-13.0-3.20","a","COGS219_2020_29","Sounds/correct.wav","null","1","","","","","","",""
"null","","audio-keyboard-response","136","3068326","0.0-13.0-0.21","a","COGS219_2020_29","Sounds/whistle_sound.wav","null","1","","","","","","",""
"null","","html-keyboard-response","137","3069322","0.0-13.0-1.21","a","COGS219_2020_29","<p style=""font-size: 48px;"">+</p>","null","1","","","","","","",""
"532.3799999896437","","image-keyboard-response","138","3069855","0.0-13.0-2.21","a","COGS219_2020_29","Images/motorcycle_3.png","76","1","1582842388961","non-match","motorcycle","whistle","sound","test","true"
"null","","audio-keyboard-response","139","3071865","0.0-13.0-3.21","a","COGS219_2020_29","Sounds/correct.wav","null","1","","","","","","",""
"null","","audio-keyboard-response","140","3072527","0.0-13.0-0.22","a","COGS219_2020_29","Sounds/dog_label.wav","null","1","","","","","","",""
"null","","html-keyboard-response","141","3073522","0.0-13.0-1.22","a","COGS219_2020_29","<p style=""font-size: 48px;"">+</p>","null","1","","","","","","",""
"524.4700000621378","","image-keyboard-response","142","3074047","0.0-13.0-2.22","a","COGS219_2020_29","Images/gun_cartoon.png","76","1","1582842393161","non-match","gun","dog","label","test","true"
"null","","audio-keyboard-response","143","3076063","0.0-13.0-3.22","a","COGS219_2020_29","Sounds/correct.wav","null","1","","","","","","",""
"null","","audio-keyboard-response","144","3076966","0.0-13.0-0.23","a","COGS219_2020_29","Sounds/frog_label.wav","null","1","","","","","","",""
"null","","html-keyboard-response","145","3077955","0.0-13.0-1.23","a","COGS219_2020_29","<p style=""font-size: 48px;"">+</p>","null","1","","","","","","",""
"491.06000002939254","","image-keyboard-response","146","3078447","0.0-13.0-2.23","a","COGS219_2020_29","Images/gun_1.png","76","1","1582842397594","non-match","gun","frog","label","test","true"
"null","","audio-keyboard-response","147","3080451","0.0-13.0-3.23","a","COGS219_2020_29","Sounds/correct.wav","null","1","","","","","","",""
"null","","audio-keyboard-response","148","3081726","0.0-13.0-0.24","a","COGS219_2020_29","Sounds/train_label.wav","null","1","","","","","","",""
"null","","html-keyboard-response","149","3082722","0.0-13.0-1.24","a","COGS219_2020_29","<p style=""font-size: 48px;"">+</p>","null","1","","","","","","",""
"532.3750000679865","","image-keyboard-response","150","3083255","0.0-13.0-2.24","a","COGS219_2020_29","Images/frog_3.png","76","1","1582842402361","non-match","frog","train","label","test","true"
"null","","audio-keyboard-response","151","3085264","0.0-13.0-3.24","a","COGS219_2020_29","Sounds/correct.wav","null","1","","","","","","",""
"null","","audio-keyboard-response","152","3086566","0.0-13.0-0.25","a","COGS219_2020_29","Sounds/train_sound.wav","null","1","","","","","","",""
"null","","html-keyboard-response","153","3087572","0.0-13.0-1.25","a","COGS219_2020_29","<p style=""font-size: 48px;"">+</p>","null","1","","","","","","",""
"466.31000004708767","","image-keyboard-response","154","3088040","0.0-13.0-2.25","a","COGS219_2020_29","Images/dog_1.png","76","1","1582842407211","non-match","dog","train","sound","test","true"
"null","","audio-keyboard-response","155","3090052","0.0-13.0-3.25","a","COGS219_2020_29","Sounds/correct.wav","null","1","","","","","","",""
"null","","audio-keyboard-response","156","3091067","0.0-13.0-0.26","a","COGS219_2020_29","Sounds/cow_label.wav","null","1","","","","","","",""
"null","","html-keyboard-response","157","3092072","0.0-13.0-1.26","a","COGS219_2020_29","<p style=""font-size: 48px;"">+</p>","null","1","","","","","","",""
"422.469999990426","","image-keyboard-response","158","3092496","0.0-13.0-2.26","a","COGS219_2020_29","Images/cow_1.png","65","1","1582842411711","match","cow","cow","label","test","true"
"null","","audio-keyboard-response","159","3094505","0.0-13.0-3.26","a","COGS219_2020_29","Sounds/correct.wav","null","1","","","","","","",""
"null","","audio-keyboard-response","160","3095587","0.0-13.0-0.27","a","COGS219_2020_29","Sounds/car_label.wav","null","1","","","","","","",""
"null","","html-keyboard-response","161","3096589","0.0-13.0-1.27","a","COGS219_2020_29","<p style=""font-size: 48px;"">+</p>","null","1","","","","","","",""
"433.51000000257045","","image-keyboard-response","162","3097023","0.0-13.0-2.27","a","COGS219_2020_29","Images/car_1.png","65","1","1582842416228","match","car","car","label","test","true"
"null","","audio-keyboard-response","163","3099037","0.0-13.0-3.27","a","COGS219_2020_29","Sounds/correct.wav","null","1","","","","","","",""
"null","","audio-keyboard-response","164","3099727","0.0-13.0-0.28","a","COGS219_2020_29","Sounds/rooster_sound.wav","null","1","","","","","","",""
"null","","html-keyboard-response","165","3100722","0.0-13.0-1.28","a","COGS219_2020_29","<p style=""font-size: 48px;"">+</p>","null","1","","","","","","",""
"452.27499993052334","","image-keyboard-response","166","3101176","0.0-13.0-2.28","a","COGS219_2020_29","Images/rooster_2.png","65","1","1582842420362","match","rooster","rooster","sound","test","true"
"null","","audio-keyboard-response","167","3103186","0.0-13.0-3.28","a","COGS219_2020_29","Sounds/correct.wav","null","1","","","","","","",""
"null","","audio-keyboard-response","168","3103887","0.0-13.0-0.29","a","COGS219_2020_29","Sounds/dog_sound.wav","null","1","","","","","","",""
"null","","html-keyboard-response","169","3104889","0.0-13.0-1.29","a","COGS219_2020_29","<p style=""font-size: 48px;"">+</p>","null","1","","","","","","",""
"381.3300000037998","","image-keyboard-response","170","3105271","0.0-13.0-2.29","a","COGS219_2020_29","Images/dog_1.png","65","1","1582842424528","match","dog","dog","sound","test","true"
"null","","audio-keyboard-response","171","3107276","0.0-13.0-3.29","a","COGS219_2020_29","Sounds/correct.wav","null","1","","","","","","",""
"null","","audio-keyboard-response","172","3107947","0.0-13.0-0.30","a","COGS219_2020_29","Sounds/rooster_sound.wav","null","1","","","","","","",""
"null","","html-keyboard-response","173","3108939","0.0-13.0-1.30","a","COGS219_2020_29","<p style=""font-size: 48px;"">+</p>","null","1","","","","","","",""
"499.0449999459088","","image-keyboard-response","174","3109439","0.0-13.0-2.30","a","COGS219_2020_29","Images/frog_orig.png","76","1","1582842428579","non-match","frog","rooster","sound","test","true"
"null","","audio-keyboard-response","175","3111450","0.0-13.0-3.30","a","COGS219_2020_29","Sounds/correct.wav","null","1","","","","","","",""
"null","","audio-keyboard-response","176","3112727","0.0-13.0-0.31","a","COGS219_2020_29","Sounds/train_label.wav","null","1","","","","","","",""
"null","","html-keyboard-response","177","3113722","0.0-13.0-1.31","a","COGS219_2020_29","<p style=""font-size: 48px;"">+</p>","null","1","","","","","","",""
"548.2149999588728","","image-keyboard-response","178","3114272","0.0-13.0-2.31","a","COGS219_2020_29","Images/whistle_2.png","76","1","1582842433362","non-match","whistle","train","label","test","true"
"null","","audio-keyboard-response","179","3116280","0.0-13.0-3.31","a","COGS219_2020_29","Sounds/correct.wav","null","1","","","","","","",""
"null","","audio-keyboard-response","180","3116847","0.0-13.0-0.32","a","COGS219_2020_29","Sounds/gun_sound.wav","null","1","","","","","","",""
"null","","html-keyboard-response","181","3117839","0.0-13.0-1.32","a","COGS219_2020_29","<p style=""font-size: 48px;"">+</p>","null","1","","","","","","",""
"455.1449998980388","","image-keyboard-response","182","3118295","0.0-13.0-2.32","a","COGS219_2020_29","Images/gun_orig.png","65","1","1582842437478","match","gun","gun","sound","test","true"
"null","","audio-keyboard-response","183","3120304","0.0-13.0-3.32","a","COGS219_2020_29","Sounds/correct.wav","null","1","","","","","","",""
"null","","audio-keyboard-response","184","3120987","0.0-13.0-0.33","a","COGS219_2020_29","Sounds/dog_sound.wav","null","1","","","","","","",""
"null","","html-keyboard-response","185","3121989","0.0-13.0-1.33","a","COGS219_2020_29","<p style=""font-size: 48px;"">+</p>","null","1","","","","","","",""
"417.14000003412366","","image-keyboard-response","186","3122407","0.0-13.0-2.33","a","COGS219_2020_29","Images/dog_3.png","65","1","1582842441628","match","dog","dog","sound","test","true"
"null","","audio-keyboard-response","187","3124422","0.0-13.0-3.33","a","COGS219_2020_29","Sounds/correct.wav","null","1","","","","","","",""
"null","","audio-keyboard-response","188","3125727","0.0-13.0-0.34","a","COGS219_2020_29","Sounds/train_sound.wav","null","1","","","","","","",""
"null","","html-keyboard-response","189","3126723","0.0-13.0-1.34","a","COGS219_2020_29","<p style=""font-size: 48px;"">+</p>","null","1","","","","","","",""
"539.8449999047443","","image-keyboard-response","190","3127264","0.0-13.0-2.34","a","COGS219_2020_29","Images/motorcycle_cartoon.png","76","1","1582842446362","non-match","motorcycle","train","sound","test","true"
"null","","audio-keyboard-response","191","3129281","0.0-13.0-3.34","a","COGS219_2020_29","Sounds/correct.wav","null","1","","","","","","",""
"null","","audio-keyboard-response","192","3129867","0.0-13.0-0.35","a","COGS219_2020_29","Sounds/gun_label.wav","null","1","","","","","","",""
"null","","html-keyboard-response","193","3130856","0.0-13.0-1.35","a","COGS219_2020_29","<p style=""font-size: 48px;"">+</p>","null","1","","","","","","",""
"470.2800000086427","","image-keyboard-response","194","3131329","0.0-13.0-2.35","a","COGS219_2020_29","Images/motorcycle_2.png","76","1","1582842450495","non-match","motorcycle","gun","label","test","true"
"null","","audio-keyboard-response","195","3133343","0.0-13.0-3.35","a","COGS219_2020_29","Sounds/correct.wav","null","1","","","","","","",""
"null","","audio-keyboard-response","196","3134247","0.0-13.0-0.36","a","COGS219_2020_29","Sounds/frog_sound.wav","null","1","","","","","","",""
"null","","html-keyboard-response","197","3135239","0.0-13.0-1.36","a","COGS219_2020_29","<p style=""font-size: 48px;"">+</p>","null","1","","","","","","",""
"423.08500001672655","","image-keyboard-response","198","3135663","0.0-13.0-2.36","a","COGS219_2020_29","Images/whistle_1.png","76","1","1582842454879","non-match","whistle","frog","sound","test","true"
"null","","audio-keyboard-response","199","3137674","0.0-13.0-3.36","a","COGS219_2020_29","Sounds/correct.wav","null","1","","","","","","",""
"null","","audio-keyboard-response","200","3138367","0.0-13.0-0.37","a","COGS219_2020_29","Sounds/whistle_label.wav","null","1","","","","","","",""
"null","","html-keyboard-response","201","3139356","0.0-13.0-1.37","a","COGS219_2020_29","<p style=""font-size: 48px;"">+</p>","null","1","","","","","","",""
"594.5449999999255","","image-keyboard-response","202","3139952","0.0-13.0-2.37","a","COGS219_2020_29","Images/whistle_3.png","65","1","1582842458995","match","whistle","whistle","label","test","true"
"null","","audio-keyboard-response","203","3141961","0.0-13.0-3.37","a","COGS219_2020_29","Sounds/correct.wav","null","1","","","","","","",""
"null","","audio-keyboard-response","204","3142647","0.0-13.0-0.38","a","COGS219_2020_29","Sounds/rooster_label.wav","null","1","","","","","","",""
"null","","html-keyboard-response","205","3143639","0.0-13.0-1.38","a","COGS219_2020_29","<p style=""font-size: 48px;"">+</p>","null","1","","","","","","",""
"398.76999997068197","","image-keyboard-response","206","3144039","0.0-13.0-2.38","a","COGS219_2020_29","Images/rooster_cartoon.png","65","1","1582842463279","match","rooster","rooster","label","test","true"
"null","","audio-keyboard-response","207","3146042","0.0-13.0-3.38","a","COGS219_2020_29","Sounds/correct.wav","null","1","","","","","","",""
"null","","audio-keyboard-response","208","3146747","0.0-13.0-0.39","a","COGS219_2020_29","Sounds/whistle_sound.wav","null","1","","","","","","",""
"null","","html-keyboard-response","209","3147739","0.0-13.0-1.39","a","COGS219_2020_29","<p style=""font-size: 48px;"">+</p>","null","1","","","","","","",""
"458.95000000018626","","image-keyboard-response","210","3148199","0.0-13.0-2.39","a","COGS219_2020_29","Images/whistle_2.png","65","1","1582842467379","match","whistle","whistle","sound","test","true"
"null","","audio-keyboard-response","211","3150204","0.0-13.0-3.39","a","COGS219_2020_29","Sounds/correct.wav","null","1","","","","","","",""
"null","","audio-keyboard-response","212","3151047","0.0-13.0-0.40","a","COGS219_2020_29","Sounds/cat_sound.wav","null","1","","","","","","",""
"null","","html-keyboard-response","213","3152039","0.0-13.0-1.40","a","COGS219_2020_29","<p style=""font-size: 48px;"">+</p>","null","1","","","","","","",""
"527.1799999754876","","image-keyboard-response","214","3152568","0.0-13.0-2.40","a","COGS219_2020_29","Images/whistle_orig.png","76","1","1582842471679","non-match","whistle","cat","sound","test","true"
"null","","audio-keyboard-response","215","3154581","0.0-13.0-3.40","a","COGS219_2020_29","Sounds/correct.wav","null","1","","","","","","",""
"null","","audio-keyboard-response","216","3155667","0.0-13.0-0.41","a","COGS219_2020_29","Sounds/car_label.wav","null","1","","","","","","",""
"null","","html-keyboard-response","217","3156656","0.0-13.0-1.41","a","COGS219_2020_29","<p style=""font-size: 48px;"">+</p>","null","1","","","","","","",""
"430.1700000651181","","image-keyboard-response","218","3157087","0.0-13.0-2.41","a","COGS219_2020_29","Images/gun_orig.png","76","1","1582842476296","non-match","gun","car","label","test","true"
"null","","audio-keyboard-response","219","3159105","0.0-13.0-3.41","a","COGS219_2020_29","Sounds/correct.wav","null","1","","","","","","",""
"null","","audio-keyboard-response","220","3159787","0.0-13.0-0.42","a","COGS219_2020_29","Sounds/whistle_sound.wav","null","1","","","","","","",""
"null","","html-keyboard-response","221","3160789","0.0-13.0-1.42","a","COGS219_2020_29","<p style=""font-size: 48px;"">+</p>","null","1","","","","","","",""
"408.77500001806766","","image-keyboard-response","222","3161199","0.0-13.0-2.42","a","COGS219_2020_29","Images/frog_2.png","76","1","1582842480429","non-match","frog","whistle","sound","test","true"
"null","","audio-keyboard-response","223","3163207","0.0-13.0-3.42","a","COGS219_2020_29","Sounds/correct.wav","null","1","","","","","","",""
"null","","audio-keyboard-response","224","3164287","0.0-13.0-0.43","a","COGS219_2020_29","Sounds/car_sound.wav","null","1","","","","","","",""
"null","","html-keyboard-response","225","3165290","0.0-13.0-1.43","a","COGS219_2020_29","<p style=""font-size: 48px;"">+</p>","null","1","","","","","","",""
"444.7449999861419","","image-keyboard-response","226","3165736","0.0-13.0-2.43","a","COGS219_2020_29","Images/cow_2.png","76","1","1582842484929","non-match","cow","car","sound","test","true"
"null","","audio-keyboard-response","227","3167753","0.0-13.0-3.43","a","COGS219_2020_29","Sounds/correct.wav","null","1","","","","","","",""
"null","","audio-keyboard-response","228","3168567","0.0-13.0-0.44","a","COGS219_2020_29","Sounds/cat_sound.wav","null","1","","","","","","",""
"null","","html-keyboard-response","229","3169556","0.0-13.0-1.44","a","COGS219_2020_29","<p style=""font-size: 48px;"">+</p>","null","1","","","","","","",""
"393.9300000201911","","image-keyboard-response","230","3169951","0.0-13.0-2.44","a","COGS219_2020_29","Images/cow_1.png","76","1","1582842489196","non-match","cow","cat","sound","test","true"
"null","","audio-keyboard-response","231","3171959","0.0-13.0-3.44","a","COGS219_2020_29","Sounds/correct.wav","null","1","","","","","","",""
"null","","audio-keyboard-response","232","3172847","0.0-13.0-0.45","a","COGS219_2020_29","Sounds/frog_label.wav","null","1","","","","","","",""
"null","","html-keyboard-response","233","3173840","0.0-13.0-1.45","a","COGS219_2020_29","<p style=""font-size: 48px;"">+</p>","null","1","","","","","","",""
"390.625","","image-keyboard-response","234","3174231","0.0-13.0-2.45","a","COGS219_2020_29","Images/frog_3.png","65","1","1582842493479","match","frog","frog","label","test","true"
"null","","audio-keyboard-response","235","3176242","0.0-13.0-3.45","a","COGS219_2020_29","Sounds/correct.wav","null","1","","","","","","",""
"null","","audio-keyboard-response","236","3176827","0.0-13.0-0.46","a","COGS219_2020_29","Sounds/gun_sound.wav","null","1","","","","","","",""
"null","","html-keyboard-response","237","3177823","0.0-13.0-1.46","a","COGS219_2020_29","<p style=""font-size: 48px;"">+</p>","null","1","","","","","","",""
"439.43000002764165","","image-keyboard-response","238","3178263","0.0-13.0-2.46","a","COGS219_2020_29","Images/frog_cartoon.png","76","1","1582842497462","non-match","frog","gun","sound","test","true"
"null","","audio-keyboard-response","239","3180273","0.0-13.0-3.46","a","COGS219_2020_29","Sounds/correct.wav","null","1","","","","","","",""
"null","","audio-keyboard-response","240","3180967","0.0-13.0-0.47","a","COGS219_2020_29","Sounds/rooster_sound.wav","null","1","","","","","","",""
"null","","html-keyboard-response","241","3181956","0.0-13.0-1.47","a","COGS219_2020_29","<p style=""font-size: 48px;"">+</p>","null","1","","","","","","",""
"481.8149999482557","","image-keyboard-response","242","3182439","0.0-13.0-2.47","a","COGS219_2020_29","Images/train_2.png","76","1","1582842501596","non-match","train","rooster","sound","test","true"
"null","","audio-keyboard-response","243","3184451","0.0-13.0-3.47","a","COGS219_2020_29","Sounds/correct.wav","null","1","","","","","","",""
"null","","audio-keyboard-response","244","3185366","0.0-13.0-0.48","a","COGS219_2020_29","Sounds/frog_sound.wav","null","1","","","","","","",""
"null","","html-keyboard-response","245","3186356","0.0-13.0-1.48","a","COGS219_2020_29","<p style=""font-size: 48px;"">+</p>","null","1","","","","","","",""
"601.825000019744","","image-keyboard-response","246","3186960","0.0-13.0-2.48","a","COGS219_2020_29","Images/frog_cartoon.png","65","1","1582842505996","match","frog","frog","sound","test","true"
"null","","audio-keyboard-response","247","3188974","0.0-13.0-3.48","a","COGS219_2020_29","Sounds/correct.wav","null","1","","","","","","",""
"null","","audio-keyboard-response","248","3189667","0.0-13.0-0.49","a","COGS219_2020_29","Sounds/whistle_label.wav","null","1","","","","","","",""
"null","","html-keyboard-response","249","3190656","0.0-13.0-1.49","a","COGS219_2020_29","<p style=""font-size: 48px;"">+</p>","null","1","","","","","","",""
"462.0100000174716","","image-keyboard-response","250","3191120","0.0-13.0-2.49","a","COGS219_2020_29","Images/whistle_orig.png","65","1","1582842510296","match","whistle","whistle","label","test","true"
"null","","audio-keyboard-response","251","3193137","0.0-13.0-3.49","a","COGS219_2020_29","Sounds/correct.wav","null","1","","","","","","",""
"null","","audio-keyboard-response","252","3194207","0.0-13.0-0.50","a","COGS219_2020_29","Sounds/car_label.wav","null","1","","","","","","",""
"null","","html-keyboard-response","253","3195206","0.0-13.0-1.50","a","COGS219_2020_29","<p style=""font-size: 48px;"">+</p>","null","1","","","","","","",""
"455.8800000231713","","image-keyboard-response","254","3195663","0.0-13.0-2.50","a","COGS219_2020_29","Images/cat_cartoon.png","76","1","1582842514846","non-match","cat","car","label","test","true"
"null","","audio-keyboard-response","255","3197671","0.0-13.0-3.50","a","COGS219_2020_29","Sounds/correct.wav","null","1","","","","","","",""
"null","","audio-keyboard-response","256","3198507","0.0-13.0-0.51","a","COGS219_2020_29","Sounds/cat_sound.wav","null","1","","","","","","",""
"null","","html-keyboard-response","257","3199507","0.0-13.0-1.51","a","COGS219_2020_29","<p style=""font-size: 48px;"">+</p>","null","1","","","","","","",""
"523.7249999772757","","image-keyboard-response","258","3200031","0.0-13.0-2.51","a","COGS219_2020_29","Images/dog_2.png","76","1","1582842519146","non-match","dog","cat","sound","test","true"
"null","","audio-keyboard-response","259","3202049","0.0-13.0-3.51","a","COGS219_2020_29","Sounds/correct.wav","null","1","","","","","","",""
"null","","audio-keyboard-response","260","3202947","0.0-13.0-0.52","a","COGS219_2020_29","Sounds/frog_label.wav","null","1","","","","","","",""
"null","","html-keyboard-response","261","3203940","0.0-13.0-1.52","a","COGS219_2020_29","<p style=""font-size: 48px;"">+</p>","null","1","","","","","","",""
"370.5399999162182","","image-keyboard-response","262","3204312","0.0-13.0-2.52","a","COGS219_2020_29","Images/frog_1.png","65","1","1582842523579","match","frog","frog","label","test","true"
"null","","audio-keyboard-response","263","3206328","0.0-13.0-3.52","a","COGS219_2020_29","Sounds/correct.wav","null","1","","","","","","",""
"null","","audio-keyboard-response","264","3206986","0.0-13.0-0.53","a","COGS219_2020_29","Sounds/dog_label.wav","null","1","","","","","","",""
"null","","html-keyboard-response","265","3207990","0.0-13.0-1.53","a","COGS219_2020_29","<p style=""font-size: 48px;"">+</p>","null","1","","","","","","",""
"408.3099999697879","","image-keyboard-response","266","3208399","0.0-13.0-2.53","a","COGS219_2020_29","Images/train_1.png","76","1","1582842527629","non-match","train","dog","label","test","true"
"null","","audio-keyboard-response","267","3210407","0.0-13.0-3.53","a","COGS219_2020_29","Sounds/correct.wav","null","1","","","","","","",""
"null","","audio-keyboard-response","268","3211106","0.0-13.0-0.54","a","COGS219_2020_29","Sounds/rooster_sound.wav","null","1","","","","","","",""
"null","","html-keyboard-response","269","3212107","0.0-13.0-1.54","a","COGS219_2020_29","<p style=""font-size: 48px;"">+</p>","null","1","","","","","","",""
"459.1350000118837","","image-keyboard-response","270","3212567","0.0-13.0-2.54","a","COGS219_2020_29","Images/rooster_3.png","65","1","1582842531746","match","rooster","rooster","sound","test","true"
"null","","audio-keyboard-response","271","3214572","0.0-13.0-3.54","a","COGS219_2020_29","Sounds/correct.wav","null","1","","","","","","",""
"null","","audio-keyboard-response","272","3215266","0.0-13.0-0.55","a","COGS219_2020_29","Sounds/rooster_label.wav","null","1","","","","","","",""
"null","","html-keyboard-response","273","3216257","0.0-13.0-1.55","a","COGS219_2020_29","<p style=""font-size: 48px;"">+</p>","null","1","","","","","","",""
"437.67999997362494","","image-keyboard-response","274","3216695","0.0-13.0-2.55","a","COGS219_2020_29","Images/rooster_1.png","65","1","1582842535896","match","rooster","rooster","label","test","true"
"null","","audio-keyboard-response","275","3218706","0.0-13.0-3.55","a","COGS219_2020_29","Sounds/correct.wav","null","1","","","","","","",""
"null","","audio-keyboard-response","276","3219586","0.0-13.0-0.56","a","COGS219_2020_29","Sounds/frog_label.wav","null","1","","","","","","",""
"null","","html-keyboard-response","277","3220590","0.0-13.0-1.56","a","COGS219_2020_29","<p style=""font-size: 48px;"">+</p>","null","1","","","","","","",""
"568.3100000023842","","image-keyboard-response","278","3221159","0.0-13.0-2.56","a","COGS219_2020_29","Images/train_orig.png","76","1","1582842540229","non-match","train","frog","label","test","true"
"null","","audio-keyboard-response","279","3223163","0.0-13.0-3.56","a","COGS219_2020_29","Sounds/correct.wav","null","1","","","","","","",""
"null","","audio-keyboard-response","280","3224186","0.0-13.0-0.57","a","COGS219_2020_29","Sounds/cow_sound.wav","null","1","","","","","","",""
"null","","html-keyboard-response","281","3225190","0.0-13.0-1.57","a","COGS219_2020_29","<p style=""font-size: 48px;"">+</p>","null","1","","","","","","",""
"424.18999993242323","","image-keyboard-response","282","3225615","0.0-13.0-2.57","a","COGS219_2020_29","Images/cow_2.png","65","1","1582842544829","match","cow","cow","sound","test","true"
"null","","audio-keyboard-response","283","3227623","0.0-13.0-3.57","a","COGS219_2020_29","Sounds/correct.wav","null","1","","","","","","",""
"null","","audio-keyboard-response","284","3228206","0.0-13.0-0.58","a","COGS219_2020_29","Sounds/gun_label.wav","null","1","","","","","","",""
"null","","html-keyboard-response","285","3229207","0.0-13.0-1.58","a","COGS219_2020_29","<p style=""font-size: 48px;"">+</p>","null","1","","","","","","",""
"543.6650000046939","","image-keyboard-response","286","3229751","0.0-13.0-2.58","a","COGS219_2020_29","Images/gun_2.png","65","1","1582842548846","match","gun","gun","label","test","true"
"null","","audio-keyboard-response","287","3231764","0.0-13.0-3.58","a","COGS219_2020_29","Sounds/correct.wav","null","1","","","","","","",""
"null","","audio-keyboard-response","288","3232746","0.0-13.0-0.59","a","COGS219_2020_29","Sounds/cow_sound.wav","null","1","","","","","","",""
"null","","html-keyboard-response","289","3233740","0.0-13.0-1.59","a","COGS219_2020_29","<p style=""font-size: 48px;"">+</p>","null","1","","","","","","",""
"401.9799999659881","","image-keyboard-response","290","3234143","0.0-13.0-2.59","a","COGS219_2020_29","Images/gun_3.png","76","1","1582842553379","non-match","gun","cow","sound","test","true"
"null","","audio-keyboard-response","291","3236147","0.0-13.0-3.59","a","COGS219_2020_29","Sounds/correct.wav","null","1","","","","","","",""
"null","","audio-keyboard-response","292","3237146","0.0-13.0-0.60","a","COGS219_2020_29","Sounds/cow_sound.wav","null","1","","","","","","",""
"null","","html-keyboard-response","293","3238140","0.0-13.0-1.60","a","COGS219_2020_29","<p style=""font-size: 48px;"">+</p>","null","1","","","","","","",""
"482.0149999577552","","image-keyboard-response","294","3238623","0.0-13.0-2.60","a","COGS219_2020_29","Images/cow_orig.png","65","1","1582842557779","match","cow","cow","sound","test","true"
"null","","audio-keyboard-response","295","3240636","0.0-13.0-3.60","a","COGS219_2020_29","Sounds/correct.wav","null","1","","","","","","",""
"null","","audio-keyboard-response","296","3241646","0.0-13.0-0.61","a","COGS219_2020_29","Sounds/cow_label.wav","null","1","","","","","","",""
"null","","html-keyboard-response","297","3242640","0.0-13.0-1.61","a","COGS219_2020_29","<p style=""font-size: 48px;"">+</p>","null","1","","","","","","",""
"534.2050000326708","","image-keyboard-response","298","3243176","0.0-13.0-2.61","a","COGS219_2020_29","Images/cow_cartoon.png","65","1","1582842562279","match","cow","cow","label","test","true"
"null","","audio-keyboard-response","299","3245182","0.0-13.0-3.61","a","COGS219_2020_29","Sounds/correct.wav","null","1","","","","","","",""
"null","","audio-keyboard-response","300","3245746","0.0-13.0-0.62","a","COGS219_2020_29","Sounds/gun_label.wav","null","1","","","","","","",""
"null","","html-keyboard-response","301","3246740","0.0-13.0-1.62","a","COGS219_2020_29","<p style=""font-size: 48px;"">+</p>","null","1","","","","","","",""
"618.030000012368","","image-keyboard-response","302","3247359","0.0-13.0-2.62","a","COGS219_2020_29","Images/cow_orig.png","65","1","1582842566380","non-match","cow","gun","label","test","false"
"null","","audio-keyboard-response","303","3249376","0.0-13.0-3.62","a","COGS219_2020_29","Sounds/incorrect.wav","null","1","","","","","","",""
"null","","audio-keyboard-response","304","3250666","0.0-13.0-0.63","a","COGS219_2020_29","Sounds/train_sound.wav","null","1","","","","","","",""
"null","","html-keyboard-response","305","3251657","0.0-13.0-1.63","a","COGS219_2020_29","<p style=""font-size: 48px;"">+</p>","null","1","","","","","","",""
"469.21500004827976","","image-keyboard-response","306","3252127","0.0-13.0-2.63","a","COGS219_2020_29","Images/train_1.png","65","1","1582842571296","match","train","train","sound","test","true"
"null","","audio-keyboard-response","307","3254137","0.0-13.0-3.63","a","COGS219_2020_29","Sounds/correct.wav","null","1","","","","","","",""
"null","","audio-keyboard-response","308","3254846","0.0-13.0-0.64","a","COGS219_2020_29","Sounds/rooster_sound.wav","null","1","","","","","","",""
"null","","html-keyboard-response","309","3255841","0.0-13.0-1.64","a","COGS219_2020_29","<p style=""font-size: 48px;"">+</p>","null","1","","","","","","",""
"445.7399999955669","","image-keyboard-response","310","3256287","0.0-13.0-2.64","a","COGS219_2020_29","Images/dog_orig.png","76","1","1582842575479","non-match","dog","rooster","sound","test","true"
"null","","audio-keyboard-response","311","3258305","0.0-13.0-3.64","a","COGS219_2020_29","Sounds/correct.wav","null","1","","","","","","",""
"null","","audio-keyboard-response","312","3259006","0.0-13.0-0.65","a","COGS219_2020_29","Sounds/rooster_label.wav","null","1","","","","","","",""
"null","","html-keyboard-response","313","3260024","0.0-13.0-1.65","a","COGS219_2020_29","<p style=""font-size: 48px;"">+</p>","null","1","","","","","","",""
"406.3399999868125","","image-keyboard-response","314","3260431","0.0-13.0-2.65","a","COGS219_2020_29","Images/car_3.png","76","1","1582842579663","non-match","car","rooster","label","test","true"
"null","","audio-keyboard-response","315","3262440","0.0-13.0-3.65","a","COGS219_2020_29","Sounds/correct.wav","null","1","","","","","","",""
"null","","audio-keyboard-response","316","3263026","0.0-13.0-0.66","a","COGS219_2020_29","Sounds/gun_sound.wav","null","1","","","","","","",""
"null","","html-keyboard-response","317","3264024","0.0-13.0-1.66","a","COGS219_2020_29","<p style=""font-size: 48px;"">+</p>","null","1","","","","","","",""
"493.61499992664903","","image-keyboard-response","318","3264519","0.0-13.0-2.66","a","COGS219_2020_29","Images/gun_3.png","65","1","1582842583663","match","gun","gun","sound","test","true"
"null","","audio-keyboard-response","319","3266533","0.0-13.0-3.66","a","COGS219_2020_29","Sounds/correct.wav","null","1","","","","","","",""
"null","","audio-keyboard-response","320","3267366","0.0-13.0-0.67","a","COGS219_2020_29","Sounds/cat_label.wav","null","1","","","","","","",""
"null","","html-keyboard-response","321","3268357","0.0-13.0-1.67","a","COGS219_2020_29","<p style=""font-size: 48px;"">+</p>","null","1","","","","","","",""
"584.6499999752268","","image-keyboard-response","322","3268943","0.0-13.0-2.67","a","COGS219_2020_29","Images/cat_3.png","65","1","1582842587996","match","cat","cat","label","test","true"
"null","","audio-keyboard-response","323","3270961","0.0-13.0-3.67","a","COGS219_2020_29","Sounds/correct.wav","null","1","","","","","","",""
"null","","audio-keyboard-response","324","3271666","0.0-13.0-0.68","a","COGS219_2020_29","Sounds/whistle_sound.wav","null","1","","","","","","",""
"null","","html-keyboard-response","325","3272674","0.0-13.0-1.68","a","COGS219_2020_29","<p style=""font-size: 48px;"">+</p>","null","1","","","","","","",""
"516.3750000065193","","image-keyboard-response","326","3273191","0.0-13.0-2.68","a","COGS219_2020_29","Images/dog_3.png","76","1","1582842592313","non-match","dog","whistle","sound","test","true"
"null","","audio-keyboard-response","327","3275198","0.0-13.0-3.68","a","COGS219_2020_29","Sounds/correct.wav","null","1","","","","","","",""
"null","","audio-keyboard-response","328","3276106","0.0-13.0-0.69","a","COGS219_2020_29","Sounds/frog_label.wav","null","1","","","","","","",""
"null","","html-keyboard-response","329","3277124","0.0-13.0-1.69","a","COGS219_2020_29","<p style=""font-size: 48px;"">+</p>","null","1","","","","","","",""
"458.1849999958649","","image-keyboard-response","330","3277583","0.0-13.0-2.69","a","COGS219_2020_29","Images/cat_orig.png","76","1","1582842596763","non-match","cat","frog","label","test","true"
"null","","audio-keyboard-response","331","3279586","0.0-13.0-3.69","a","COGS219_2020_29","Sounds/correct.wav","null","1","","","","","","",""
"null","","audio-keyboard-response","332","3280886","0.0-13.0-0.70","a","COGS219_2020_29","Sounds/train_sound.wav","null","1","","","","","","",""
"null","","html-keyboard-response","333","3281890","0.0-13.0-1.70","a","COGS219_2020_29","<p style=""font-size: 48px;"">+</p>","null","1","","","","","","",""
"547.7849999442697","","image-keyboard-response","334","3282439","0.0-13.0-2.70","a","COGS219_2020_29","Images/train_2.png","65","1","1582842601530","match","train","train","sound","test","true"
"null","","audio-keyboard-response","335","3284447","0.0-13.0-3.70","a","COGS219_2020_29","Sounds/correct.wav","null","1","","","","","","",""
"null","","audio-keyboard-response","336","3285026","0.0-13.0-0.71","a","COGS219_2020_29","Sounds/gun_label.wav","null","1","","","","","","",""
"null","","html-keyboard-response","337","3286024","0.0-13.0-1.71","a","COGS219_2020_29","<p style=""font-size: 48px;"">+</p>","null","1","","","","","","",""
"502.0500000100583","","image-keyboard-response","338","3286527","0.0-13.0-2.71","a","COGS219_2020_29","Images/rooster_orig.png","76","1","1582842605663","non-match","rooster","gun","label","test","true"
"null","","audio-keyboard-response","339","3288534","0.0-13.0-3.71","a","COGS219_2020_29","Sounds/correct.wav","null","1","","","","","","",""
"null","","audio-keyboard-response","340","3289366","0.0-13.0-0.72","a","COGS219_2020_29","Sounds/cat_label.wav","null","1","","","","","","",""
"null","","html-keyboard-response","341","3290357","0.0-13.0-1.72","a","COGS219_2020_29","<p style=""font-size: 48px;"">+</p>","null","1","","","","","","",""
"568.764999974519","","image-keyboard-response","342","3290927","0.0-13.0-2.72","a","COGS219_2020_29","Images/cat_cartoon.png","65","1","1582842609996","match","cat","cat","label","test","true"
"null","","audio-keyboard-response","343","3292930","0.0-13.0-3.72","a","COGS219_2020_29","Sounds/correct.wav","null","1","","","","","","",""
"null","","audio-keyboard-response","344","3294046","0.0-13.0-0.73","a","COGS219_2020_29","Sounds/motorcycle_sound.wav","null","1","","","","","","",""
"null","","html-keyboard-response","345","3295040","0.0-13.0-1.73","a","COGS219_2020_29","<p style=""font-size: 48px;"">+</p>","null","1","","","","","","",""
"685.7500000623986","","image-keyboard-response","346","3295727","0.0-13.0-2.73","a","COGS219_2020_29","Images/motorcycle_3.png","76","1","1582842614680","match","motorcycle","motorcycle","sound","test","false"
"null","","audio-keyboard-response","347","3297738","0.0-13.0-3.73","a","COGS219_2020_29","Sounds/incorrect.wav","null","1","","","","","","",""
"null","","audio-keyboard-response","348","3298546","0.0-13.0-0.74","a","COGS219_2020_29","Sounds/cat_label.wav","null","1","","","","","","",""
"null","","html-keyboard-response","349","3299541","0.0-13.0-1.74","a","COGS219_2020_29","<p style=""font-size: 48px;"">+</p>","null","1","","","","","","",""
"449.27999994251877","","image-keyboard-response","350","3299991","0.0-13.0-2.74","a","COGS219_2020_29","Images/cat_2.png","65","1","1582842619180","match","cat","cat","label","test","true"
"null","","audio-keyboard-response","351","3301996","0.0-13.0-3.74","a","COGS219_2020_29","Sounds/correct.wav","null","1","","","","","","",""
"null","","audio-keyboard-response","352","3302886","0.0-13.0-0.75","a","COGS219_2020_29","Sounds/frog_label.wav","null","1","","","","","","",""
"null","","html-keyboard-response","353","3303891","0.0-13.0-1.75","a","COGS219_2020_29","<p style=""font-size: 48px;"">+</p>","null","1","","","","","","",""
"419.2350000375882","","image-keyboard-response","354","3304311","0.0-13.0-2.75","a","COGS219_2020_29","Images/frog_orig.png","65","1","1582842623530","match","frog","frog","label","test","true"
"null","","audio-keyboard-response","355","3306324","0.0-13.0-3.75","a","COGS219_2020_29","Sounds/correct.wav","null","1","","","","","","",""
"null","","audio-keyboard-response","356","3307026","0.0-13.0-0.76","a","COGS219_2020_29","Sounds/rooster_label.wav","null","1","","","","","","",""
"null","","html-keyboard-response","357","3308024","0.0-13.0-1.76","a","COGS219_2020_29","<p style=""font-size: 48px;"">+</p>","null","1","","","","","","",""
"550.2300000516698","","image-keyboard-response","358","3308575","0.0-13.0-2.76","a","COGS219_2020_29","Images/whistle_cartoon.png","76","1","1582842627663","non-match","whistle","rooster","label","test","true"
"null","","audio-keyboard-response","359","3310583","0.0-13.0-3.76","a","COGS219_2020_29","Sounds/correct.wav","null","1","","","","","","",""
"null","","audio-keyboard-response","360","3311426","0.0-13.0-0.77","a","COGS219_2020_29","Sounds/cat_sound.wav","null","1","","","","","","",""
"null","","html-keyboard-response","361","3312424","0.0-13.0-1.77","a","COGS219_2020_29","<p style=""font-size: 48px;"">+</p>","null","1","","","","","","",""
"557.8049999894574","","image-keyboard-response","362","3312983","0.0-13.0-2.77","a","COGS219_2020_29","Images/gun_2.png","76","1","1582842632063","non-match","gun","cat","sound","test","true"
"null","","audio-keyboard-response","363","3314999","0.0-13.0-3.77","a","COGS219_2020_29","Sounds/correct.wav","null","1","","","","","","",""
"null","","audio-keyboard-response","364","3315806","0.0-13.0-0.78","a","COGS219_2020_29","Sounds/cat_label.wav","null","1","","","","","","",""
"null","","html-keyboard-response","365","3316824","0.0-13.0-1.78","a","COGS219_2020_29","<p style=""font-size: 48px;"">+</p>","null","1","","","","","","",""
"613.9699999475852","","image-keyboard-response","366","3317439","0.0-13.0-2.78","a","COGS219_2020_29","Images/rooster_cartoon.png","76","1","1582842636463","non-match","rooster","cat","label","test","true"
"null","","audio-keyboard-response","367","3319442","0.0-13.0-3.78","a","COGS219_2020_29","Sounds/correct.wav","null","1","","","","","","",""
"null","","audio-keyboard-response","368","3320146","0.0-13.0-0.79","a","COGS219_2020_29","Sounds/dog_sound.wav","null","1","","","","","","",""
"null","","html-keyboard-response","369","3321141","0.0-13.0-1.79","a","COGS219_2020_29","<p style=""font-size: 48px;"">+</p>","null","1","","","","","","",""
"641.2699999054894","","image-keyboard-response","370","3321783","0.0-13.0-2.79","a","COGS219_2020_29","Images/cat_2.png","76","1","1582842640780","non-match","cat","dog","sound","test","true"
"null","","audio-keyboard-response","371","3323792","0.0-13.0-3.79","a","COGS219_2020_29","Sounds/correct.wav","null","1","","","","","","",""
"null","","audio-keyboard-response","372","3324906","0.0-13.0-0.80","a","COGS219_2020_29","Sounds/motorcycle_sound.wav","null","1","","","","","","",""
"null","","html-keyboard-response","373","3325924","0.0-13.0-1.80","a","COGS219_2020_29","<p style=""font-size: 48px;"">+</p>","null","1","","","","","","",""
"665.8399999141693","","image-keyboard-response","374","3326591","0.0-13.0-2.80","a","COGS219_2020_29","Images/motorcycle_orig.png","65","1","1582842645563","match","motorcycle","motorcycle","sound","test","true"
"null","","audio-keyboard-response","375","3328604","0.0-13.0-3.80","a","COGS219_2020_29","Sounds/correct.wav","null","1","","","","","","",""
"null","","audio-keyboard-response","376","3329506","0.0-13.0-0.81","a","COGS219_2020_29","Sounds/frog_label.wav","null","1","","","","","","",""
"null","","html-keyboard-response","377","3330524","0.0-13.0-1.81","a","COGS219_2020_29","<p style=""font-size: 48px;"">+</p>","null","1","","","","","","",""
"425.63999991398305","","image-keyboard-response","378","3330950","0.0-13.0-2.81","a","COGS219_2020_29","Images/cow_cartoon.png","76","1","1582842650163","non-match","cow","frog","label","test","true"
"null","","audio-keyboard-response","379","3332955","0.0-13.0-3.81","a","COGS219_2020_29","Sounds/correct.wav","null","1","","","","","","",""
"null","","audio-keyboard-response","380","3333606","0.0-13.0-0.82","a","COGS219_2020_29","Sounds/dog_label.wav","null","1","","","","","","",""
"null","","html-keyboard-response","381","3334624","0.0-13.0-1.82","a","COGS219_2020_29","<p style=""font-size: 48px;"">+</p>","null","1","","","","","","",""
"565.8500000135973","","image-keyboard-response","382","3335191","0.0-13.0-2.82","a","COGS219_2020_29","Images/cow_3.png","76","1","1582842654263","non-match","cow","dog","label","test","true"
"null","","audio-keyboard-response","383","3337195","0.0-13.0-3.82","a","COGS219_2020_29","Sounds/correct.wav","null","1","","","","","","",""
"null","","audio-keyboard-response","384","3338286","0.0-13.0-0.83","a","COGS219_2020_29","Sounds/motorcycle_sound.wav","null","1","","","","","","",""
"null","","html-keyboard-response","385","3339291","0.0-13.0-1.83","a","COGS219_2020_29","<p style=""font-size: 48px;"">+</p>","null","1","","","","","","",""
"714.7450000047684","","image-keyboard-response","386","3340006","0.0-13.0-2.83","a","COGS219_2020_29","Images/rooster_3.png","76","1","1582842658930","non-match","rooster","motorcycle","sound","test","true"
"null","","audio-keyboard-response","387","3342017","0.0-13.0-3.83","a","COGS219_2020_29","Sounds/correct.wav","null","1","","","","","","",""
"null","","audio-keyboard-response","388","3343086","0.0-13.0-0.84","a","COGS219_2020_29","Sounds/car_sound.wav","null","1","","","","","","",""
"null","","html-keyboard-response","389","3344091","0.0-13.0-1.84","a","COGS219_2020_29","<p style=""font-size: 48px;"">+</p>","null","1","","","","","","",""
"506.82000000961125","","image-keyboard-response","390","3344599","0.0-13.0-2.84","a","COGS219_2020_29","Images/car_orig.png","65","1","1582842663730","match","car","car","sound","test","true"
"null","","audio-keyboard-response","391","3346616","0.0-13.0-3.84","a","COGS219_2020_29","Sounds/correct.wav","null","1","","","","","","",""
"null","","audio-keyboard-response","392","3347746","0.0-13.0-0.85","a","COGS219_2020_29","Sounds/motorcycle_label.wav","null","1","","","","","","",""
"null","","html-keyboard-response","393","3348740","0.0-13.0-1.85","a","COGS219_2020_29","<p style=""font-size: 48px;"">+</p>","null","1","","","","","","",""
"774.4350000284612","","image-keyboard-response","394","3349519","0.0-13.0-2.85","a","COGS219_2020_29","Images/car_cartoon.png","76","1","1582842668380","non-match","car","motorcycle","label","test","true"
"null","","audio-keyboard-response","395","3351530","0.0-13.0-3.85","a","COGS219_2020_29","Sounds/correct.wav","null","1","","","","","","",""
"null","","audio-keyboard-response","396","3352106","0.0-13.0-0.86","a","COGS219_2020_29","Sounds/gun_sound.wav","null","1","","","","","","",""
"null","","html-keyboard-response","397","3353124","0.0-13.0-1.86","a","COGS219_2020_29","<p style=""font-size: 48px;"">+</p>","null","1","","","","","","",""
"481.4450000412762","","image-keyboard-response","398","3353606","0.0-13.0-2.86","a","COGS219_2020_29","Images/gun_1.png","65","1","1582842672763","match","gun","gun","sound","test","true"
"null","","audio-keyboard-response","399","3355620","0.0-13.0-3.86","a","COGS219_2020_29","Sounds/correct.wav","null","1","","","","","","",""
"null","","audio-keyboard-response","400","3356326","0.0-13.0-0.87","a","COGS219_2020_29","Sounds/whistle_sound.wav","null","1","","","","","","",""
"null","","html-keyboard-response","401","3357324","0.0-13.0-1.87","a","COGS219_2020_29","<p style=""font-size: 48px;"">+</p>","null","1","","","","","","",""
"625.4699999699369","","image-keyboard-response","402","3357950","0.0-13.0-2.87","a","COGS219_2020_29","Images/whistle_1.png","65","1","1582842676963","match","whistle","whistle","sound","test","true"
"null","","audio-keyboard-response","403","3359959","0.0-13.0-3.87","a","COGS219_2020_29","Sounds/correct.wav","null","1","","","","","","",""
"null","","audio-keyboard-response","404","3360646","0.0-13.0-0.88","a","COGS219_2020_29","Sounds/whistle_label.wav","null","1","","","","","","",""
"null","","html-keyboard-response","405","3361641","0.0-13.0-1.88","a","COGS219_2020_29","<p style=""font-size: 48px;"">+</p>","null","1","","","","","","",""
"484.91500003729016","","image-keyboard-response","406","3362127","0.0-13.0-2.88","a","COGS219_2020_29","Images/car_2.png","76","1","1582842681280","non-match","car","whistle","label","test","true"
"null","","audio-keyboard-response","407","3364137","0.0-13.0-3.88","a","COGS219_2020_29","Sounds/correct.wav","null","1","","","","","","",""
"null","","audio-keyboard-response","408","3364786","0.0-13.0-0.89","a","COGS219_2020_29","Sounds/dog_label.wav","null","1","","","","","","",""
"null","","html-keyboard-response","409","3365791","0.0-13.0-1.89","a","COGS219_2020_29","<p style=""font-size: 48px;"">+</p>","null","1","","","","","","",""
"534.5550000201911","","image-keyboard-response","410","3366326","0.0-13.0-2.89","a","COGS219_2020_29","Images/dog_orig.png","65","1","1582842685430","match","dog","dog","label","test","true"
"null","","audio-keyboard-response","411","3368333","0.0-13.0-3.89","a","COGS219_2020_29","Sounds/correct.wav","null","1","","","","","","",""
"null","","audio-keyboard-response","412","3369446","0.0-13.0-0.90","a","COGS219_2020_29","Sounds/motorcycle_sound.wav","null","1","","","","","","",""
"null","","html-keyboard-response","413","3370441","0.0-13.0-1.90","a","COGS219_2020_29","<p style=""font-size: 48px;"">+</p>","null","1","","","","","","",""
"996.5099999681115","","image-keyboard-response","414","3371438","0.0-13.0-2.90","a","COGS219_2020_29","Images/motorcycle_1.png","65","1","1582842690080","match","motorcycle","motorcycle","sound","test","true"
"null","","audio-keyboard-response","415","3373448","0.0-13.0-3.90","a","COGS219_2020_29","Sounds/correct.wav","null","1","","","","","","",""
"null","","audio-keyboard-response","416","3374746","0.0-13.0-0.91","a","COGS219_2020_29","Sounds/train_sound.wav","null","1","","","","","","",""
"null","","html-keyboard-response","417","3375741","0.0-13.0-1.91","a","COGS219_2020_29","<p style=""font-size: 48px;"">+</p>","null","1","","","","","","",""
"568.7949999701232","","image-keyboard-response","418","3376311","0.0-13.0-2.91","a","COGS219_2020_29","Images/train_3.png","65","1","1582842695380","match","train","train","sound","test","true"
"null","","audio-keyboard-response","419","3378314","0.0-13.0-3.91","a","COGS219_2020_29","Sounds/correct.wav","null","1","","","","","","",""
"null","","audio-keyboard-response","420","3379326","0.0-13.0-0.92","a","COGS219_2020_29","Sounds/cow_sound.wav","null","1","","","","","","",""
"null","","html-keyboard-response","421","3380324","0.0-13.0-1.92","a","COGS219_2020_29","<p style=""font-size: 48px;"">+</p>","null","1","","","","","","",""
"497.20999994315207","","image-keyboard-response","422","3380822","0.0-13.0-2.92","a","COGS219_2020_29","Images/motorcycle_orig.png","76","1","1582842699964","non-match","motorcycle","cow","sound","test","true"
"null","","audio-keyboard-response","423","3382833","0.0-13.0-3.92","a","COGS219_2020_29","Sounds/correct.wav","null","1","","","","","","",""
"null","","audio-keyboard-response","424","3383846","0.0-13.0-0.93","a","COGS219_2020_29","Sounds/cow_label.wav","null","1","","","","","","",""
"null","","html-keyboard-response","425","3384841","0.0-13.0-1.93","a","COGS219_2020_29","<p style=""font-size: 48px;"">+</p>","null","1","","","","","","",""
"452.63499999418855","","image-keyboard-response","426","3385295","0.0-13.0-2.93","a","COGS219_2020_29","Images/cow_3.png","65","1","1582842704480","match","cow","cow","label","test","true"
"null","","audio-keyboard-response","427","3387312","0.0-13.0-3.93","a","COGS219_2020_29","Sounds/correct.wav","null","1","","","","","","",""
"null","","audio-keyboard-response","428","3388585","0.0-13.0-0.94","a","COGS219_2020_29","Sounds/train_label.wav","null","1","","","","","","",""
"null","","html-keyboard-response","429","3389591","0.0-13.0-1.94","a","COGS219_2020_29","<p style=""font-size: 48px;"">+</p>","null","1","","","","","","",""
"693.7600000528619","","image-keyboard-response","430","3390286","0.0-13.0-2.94","a","COGS219_2020_29","Images/train_cartoon.png","65","1","1582842709230","match","train","train","label","test","true"
"null","","audio-keyboard-response","431","3392303","0.0-13.0-3.94","a","COGS219_2020_29","Sounds/correct.wav","null","1","","","","","","",""
"null","","audio-keyboard-response","432","3393445","0.0-13.0-0.95","a","COGS219_2020_29","Sounds/motorcycle_label.wav","null","1","","","","","","",""
"null","","html-keyboard-response","433","3394441","0.0-13.0-1.95","a","COGS219_2020_29","<p style=""font-size: 48px;"">+</p>","null","1","","","","","","",""
"777.570000034757","","image-keyboard-response","434","3395222","0.0-13.0-2.95","a","COGS219_2020_29","Images/train_cartoon.png","76","1","1582842714080","non-match","train","motorcycle","label","test","true"
"null","","audio-keyboard-response","435","3397231","0.0-13.0-3.95","a","COGS219_2020_29","Sounds/correct.wav","null","1","","","","","","",""
"null","","audio-keyboard-response","436","3398345","0.0-13.0-0.96","a","COGS219_2020_29","Sounds/motorcycle_label.wav","null","1","","","","","","",""
"null","","html-keyboard-response","437","3399341","0.0-13.0-1.96","a","COGS219_2020_29","<p style=""font-size: 48px;"">+</p>","null","1","","","","","","",""
"456.2999999616295","","image-keyboard-response","438","3399798","0.0-13.0-2.96","a","COGS219_2020_29","Images/motorcycle_2.png","65","1","1582842718980","match","motorcycle","motorcycle","label","test","true"
"null","","audio-keyboard-response","439","3401806","0.0-13.0-3.96","a","COGS219_2020_29","Sounds/correct.wav","null","1","","","","","","",""
"null","","audio-keyboard-response","440","3403065","0.0-13.0-0.97","a","COGS219_2020_29","Sounds/train_label.wav","null","1","","","","","","",""
"null","","html-keyboard-response","441","3404057","0.0-13.0-1.97","a","COGS219_2020_29","<p style=""font-size: 48px;"">+</p>","null","1","","","","","","",""
"491.950000054203","","image-keyboard-response","442","3404550","0.0-13.0-2.97","a","COGS219_2020_29","Images/train_orig.png","65","1","1582842723697","match","train","train","label","test","true"
"null","","audio-keyboard-response","443","3406568","0.0-13.0-3.97","a","COGS219_2020_29","Sounds/correct.wav","null","1","","","","","","",""
"null","","audio-keyboard-response","444","3407265","0.0-13.0-0.98","a","COGS219_2020_29","Sounds/rooster_sound.wav","null","1","","","","","","",""
"null","","html-keyboard-response","445","3408257","0.0-13.0-1.98","a","COGS219_2020_29","<p style=""font-size: 48px;"">+</p>","null","1","","","","","","",""
"467.5699999788776","","image-keyboard-response","446","3408726","0.0-13.0-2.98","a","COGS219_2020_29","Images/rooster_orig.png","65","1","1582842727897","match","rooster","rooster","sound","test","true"
"null","","audio-keyboard-response","447","3410729","0.0-13.0-3.98","a","COGS219_2020_29","Sounds/correct.wav","null","1","","","","","","",""
"null","","audio-keyboard-response","448","3411425","0.0-13.0-0.99","a","COGS219_2020_29","Sounds/whistle_sound.wav","null","1","","","","","","",""
"null","","html-keyboard-response","449","3412424","0.0-13.0-1.99","a","COGS219_2020_29","<p style=""font-size: 48px;"">+</p>","null","1","","","","","","",""
"436.83499994222075","","image-keyboard-response","450","3412862","0.0-13.0-2.99","a","COGS219_2020_29","Images/whistle_cartoon.png","65","1","1582842732063","match","whistle","whistle","sound","test","true"
"null","","audio-keyboard-response","451","3414874","0.0-13.0-3.99","a","COGS219_2020_29","Sounds/correct.wav","null","1","","","","","","",""
"38060.074999928474","","html-keyboard-response","452","3452924","0.0-14.0","a","COGS219_2020_29","<p>Please take this opportunity to rest your eyes before proceeding.</p><p>When ready, press the enter key to continue to the next set of trials.</p>","13","","","","","","","",""
"null","","audio-keyboard-response","453","3456018","0.0-15.0-0.0","a","COGS219_2020_29","Sounds/car_sound.wav","null","2","","","","","","",""
"null","","html-keyboard-response","454","3457014","0.0-15.0-1.0","a","COGS219_2020_29","<p style=""font-size: 48px;"">+</p>","null","2","","","","","","",""
"484.68999995384365","","image-keyboard-response","455","3457500","0.0-15.0-2.0","a","COGS219_2020_29","Images/cow_2.png","76","2","1582842776653","non-match","cow","car","sound","test","true"
"null","","audio-keyboard-response","456","3459510","0.0-15.0-3.0","a","COGS219_2020_29","Sounds/correct.wav","null","2","","","","","","",""
"null","","audio-keyboard-response","457","3460078","0.0-15.0-0.1","a","COGS219_2020_29","Sounds/gun_sound.wav","null","2","","","","","","",""
"null","","html-keyboard-response","458","3461081","0.0-15.0-1.1","a","COGS219_2020_29","<p style=""font-size: 48px;"">+</p>","null","2","","","","","","",""
"673.795000067912","","image-keyboard-response","459","3461755","0.0-15.0-2.1","a","COGS219_2020_29","Images/whistle_3.png","76","2","1582842780720","non-match","whistle","gun","sound","test","true"
"null","","audio-keyboard-response","460","3463764","0.0-15.0-3.1","a","COGS219_2020_29","Sounds/correct.wav","null","2","","","","","","",""
"null","","audio-keyboard-response","461","3464818","0.0-15.0-0.2","a","COGS219_2020_29","Sounds/car_sound.wav","null","2","","","","","","",""
"null","","html-keyboard-response","462","3465814","0.0-15.0-1.2","a","COGS219_2020_29","<p style=""font-size: 48px;"">+</p>","null","2","","","","","","",""
"732.6400000602007","","image-keyboard-response","463","3466548","0.0-15.0-2.2","a","COGS219_2020_29","Images/car_cartoon.png","65","2","1582842785453","match","car","car","sound","test","true"
"null","","audio-keyboard-response","464","3468557","0.0-15.0-3.2","a","COGS219_2020_29","Sounds/correct.wav","null","2","","","","","","",""
"null","","audio-keyboard-response","465","3469638","0.0-15.0-0.3","a","COGS219_2020_29","Sounds/car_label.wav","null","2","","","","","","",""
"null","","html-keyboard-response","466","3470631","0.0-15.0-1.3","a","COGS219_2020_29","<p style=""font-size: 48px;"">+</p>","null","2","","","","","","",""
"507.4849999509752","","image-keyboard-response","467","3471139","0.0-15.0-2.3","a","COGS219_2020_29","Images/rooster_orig.png","65","2","1582842790270","non-match","rooster","car","label","test","false"
"null","","audio-keyboard-response","468","3473142","0.0-15.0-3.3","a","COGS219_2020_29","Sounds/incorrect.wav","null","2","","","","","","",""
"null","","audio-keyboard-response","469","3474158","0.0-15.0-0.4","a","COGS219_2020_29","Sounds/cow_sound.wav","null","2","","","","","","",""
"null","","html-keyboard-response","470","3475164","0.0-15.0-1.4","a","COGS219_2020_29","<p style=""font-size: 48px;"">+</p>","null","2","","","","","","",""
"509.87499998882413","","image-keyboard-response","471","3475675","0.0-15.0-2.4","a","COGS219_2020_29","Images/car_orig.png","76","2","1582842794803","non-match","car","cow","sound","test","true"
"null","","audio-keyboard-response","472","3477689","0.0-15.0-3.4","a","COGS219_2020_29","Sounds/correct.wav","null","2","","","","","","",""
"null","","audio-keyboard-response","473","3478378","0.0-15.0-0.5","a","COGS219_2020_29","Sounds/whistle_sound.wav","null","2","","","","","","",""
"null","","html-keyboard-response","474","3479381","0.0-15.0-1.5","a","COGS219_2020_29","<p style=""font-size: 48px;"">+</p>","null","2","","","","","","",""
"565.6000000890344","","image-keyboard-response","475","3479948","0.0-15.0-2.5","a","COGS219_2020_29","Images/whistle_1.png","65","2","1582842799020","match","whistle","whistle","sound","test","true"
"null","","audio-keyboard-response","476","3481953","0.0-15.0-3.5","a","COGS219_2020_29","Sounds/correct.wav","null","2","","","","","","",""
"null","","audio-keyboard-response","477","3482658","0.0-15.0-0.6","a","COGS219_2020_29","Sounds/rooster_sound.wav","null","2","","","","","","",""
"null","","html-keyboard-response","478","3483648","0.0-15.0-1.6","a","COGS219_2020_29","<p style=""font-size: 48px;"">+</p>","null","2","","","","","","",""
"714.4850000040606","","image-keyboard-response","479","3484363","0.0-15.0-2.6","a","COGS219_2020_29","Images/gun_1.png","76","2","1582842803287","non-match","gun","rooster","sound","test","true"
"null","","audio-keyboard-response","480","3486375","0.0-15.0-3.6","a","COGS219_2020_29","Sounds/correct.wav","null","2","","","","","","",""
"null","","audio-keyboard-response","481","3487218","0.0-15.0-0.7","a","COGS219_2020_29","Sounds/cat_label.wav","null","2","","","","","","",""
"null","","html-keyboard-response","482","3488214","0.0-15.0-1.7","a","COGS219_2020_29","<p style=""font-size: 48px;"">+</p>","null","2","","","","","","",""
"580.0900000613183","","image-keyboard-response","483","3488795","0.0-15.0-2.7","a","COGS219_2020_29","Images/cow_orig.png","76","2","1582842807853","non-match","cow","cat","label","test","true"
"null","","audio-keyboard-response","484","3490804","0.0-15.0-3.7","a","COGS219_2020_29","Sounds/correct.wav","null","2","","","","","","",""
"null","","audio-keyboard-response","485","3491798","0.0-15.0-0.8","a","COGS219_2020_29","Sounds/cow_sound.wav","null","2","","","","","","",""
"null","","html-keyboard-response","486","3492798","0.0-15.0-1.8","a","COGS219_2020_29","<p style=""font-size: 48px;"">+</p>","null","2","","","","","","",""
"556.9899999536574","","image-keyboard-response","487","3493356","0.0-15.0-2.8","a","COGS219_2020_29","Images/train_orig.png","76","2","1582842812437","non-match","train","cow","sound","test","true"
"null","","audio-keyboard-response","488","3495369","0.0-15.0-3.8","a","COGS219_2020_29","Sounds/correct.wav","null","2","","","","","","",""
"null","","audio-keyboard-response","489","3496379","0.0-15.0-0.9","a","COGS219_2020_29","Sounds/cow_label.wav","null","2","","","","","","",""
"null","","html-keyboard-response","490","3497381","0.0-15.0-1.9","a","COGS219_2020_29","<p style=""font-size: 48px;"">+</p>","null","2","","","","","","",""
"389.4850000506267","","image-keyboard-response","491","3497772","0.0-15.0-2.9","a","COGS219_2020_29","Images/cow_2.png","65","2","1582842817020","match","cow","cow","label","test","true"
"null","","audio-keyboard-response","492","3499783","0.0-15.0-3.9","a","COGS219_2020_29","Sounds/correct.wav","null","2","","","","","","",""
"null","","audio-keyboard-response","493","3500698","0.0-15.0-0.10","a","COGS219_2020_29","Sounds/frog_sound.wav","null","2","","","","","","",""
"null","","html-keyboard-response","494","3501698","0.0-15.0-1.10","a","COGS219_2020_29","<p style=""font-size: 48px;"">+</p>","null","2","","","","","","",""
"432.84000002313405","","image-keyboard-response","495","3502132","0.0-15.0-2.10","a","COGS219_2020_29","Images/frog_1.png","65","2","1582842821337","match","frog","frog","sound","test","true"
"null","","audio-keyboard-response","496","3504146","0.0-15.0-3.10","a","COGS219_2020_29","Sounds/correct.wav","null","2","","","","","","",""
"null","","audio-keyboard-response","497","3505218","0.0-15.0-0.11","a","COGS219_2020_29","Sounds/car_sound.wav","null","2","","","","","","",""
"null","","html-keyboard-response","498","3506214","0.0-15.0-1.11","a","COGS219_2020_29","<p style=""font-size: 48px;"">+</p>","null","2","","","","","","",""
"484.1149999992922","","image-keyboard-response","499","3506700","0.0-15.0-2.11","a","COGS219_2020_29","Images/car_2.png","65","2","1582842825854","match","car","car","sound","test","true"
"null","","audio-keyboard-response","500","3508709","0.0-15.0-3.11","a","COGS219_2020_29","Sounds/correct.wav","null","2","","","","","","",""
"null","","audio-keyboard-response","501","3509838","0.0-15.0-0.12","a","COGS219_2020_29","Sounds/motorcycle_label.wav","null","2","","","","","","",""
"null","","html-keyboard-response","502","3510831","0.0-15.0-1.12","a","COGS219_2020_29","<p style=""font-size: 48px;"">+</p>","null","2","","","","","","",""
"475.3150000469759","","image-keyboard-response","503","3511308","0.0-15.0-2.12","a","COGS219_2020_29","Images/motorcycle_1.png","65","2","1582842830471","match","motorcycle","motorcycle","label","test","true"
"null","","audio-keyboard-response","504","3513320","0.0-15.0-3.12","a","COGS219_2020_29","Sounds/correct.wav","null","2","","","","","","",""
"null","","audio-keyboard-response","505","3514009","0.0-15.0-0.13","a","COGS219_2020_29","Sounds/rooster_sound.wav","null","2","","","","","","",""
"null","","html-keyboard-response","506","3515008","0.0-15.0-1.13","a","COGS219_2020_29","<p style=""font-size: 48px;"">+</p>","null","2","","","","","","",""
"636.449999990873","","image-keyboard-response","507","3515645","0.0-15.0-2.13","a","COGS219_2020_29","Images/rooster_1.png","65","2","1582842834647","match","rooster","rooster","sound","test","true"
"null","","audio-keyboard-response","508","3517658","0.0-15.0-3.13","a","COGS219_2020_29","Sounds/correct.wav","null","2","","","","","","",""
"null","","audio-keyboard-response","509","3518348","0.0-15.0-0.14","a","COGS219_2020_29","Sounds/rooster_label.wav","null","2","","","","","","",""
"null","","html-keyboard-response","510","3519341","0.0-15.0-1.14","a","COGS219_2020_29","<p style=""font-size: 48px;"">+</p>","null","2","","","","","","",""
"751.2550000101328","","image-keyboard-response","511","3520094","0.0-15.0-2.14","a","COGS219_2020_29","Images/motorcycle_3.png","76","2","1582842838981","non-match","motorcycle","rooster","label","test","true"
"null","","audio-keyboard-response","512","3522100","0.0-15.0-3.14","a","COGS219_2020_29","Sounds/correct.wav","null","2","","","","","","",""
"null","","audio-keyboard-response","513","3523388","0.0-15.0-0.15","a","COGS219_2020_29","Sounds/train_sound.wav","null","2","","","","","","",""
"null","","html-keyboard-response","514","3524392","0.0-15.0-1.15","a","COGS219_2020_29","<p style=""font-size: 48px;"">+</p>","null","2","","","","","","",""
"420.905000064522","","image-keyboard-response","515","3524814","0.0-15.0-2.15","a","COGS219_2020_29","Images/train_cartoon.png","65","2","1582842844031","match","train","train","sound","test","true"
"null","","audio-keyboard-response","516","3526825","0.0-15.0-3.15","a","COGS219_2020_29","Sounds/correct.wav","null","2","","","","","","",""
"null","","audio-keyboard-response","517","3527408","0.0-15.0-0.16","a","COGS219_2020_29","Sounds/gun_sound.wav","null","2","","","","","","",""
"null","","html-keyboard-response","518","3528408","0.0-15.0-1.16","a","COGS219_2020_29","<p style=""font-size: 48px;"">+</p>","null","2","","","","","","",""
"492.255000048317","","image-keyboard-response","519","3528901","0.0-15.0-2.16","a","COGS219_2020_29","Images/frog_1.png","76","2","1582842848047","non-match","frog","gun","sound","test","true"
"null","","audio-keyboard-response","520","3530919","0.0-15.0-3.16","a","COGS219_2020_29","Sounds/correct.wav","null","2","","","","","","",""
"null","","audio-keyboard-response","521","3531748","0.0-15.0-0.17","a","COGS219_2020_29","Sounds/cat_label.wav","null","2","","","","","","",""
"null","","html-keyboard-response","522","3532741","0.0-15.0-1.17","a","COGS219_2020_29","<p style=""font-size: 48px;"">+</p>","null","2","","","","","","",""
"471.1799999931827","","image-keyboard-response","523","3533214","0.0-15.0-2.17","a","COGS219_2020_29","Images/cat_1.png","65","2","1582842852381","match","cat","cat","label","test","true"
"null","","audio-keyboard-response","524","3535229","0.0-15.0-3.17","a","COGS219_2020_29","Sounds/correct.wav","null","2","","","","","","",""
"null","","audio-keyboard-response","525","3536068","0.0-15.0-0.18","a","COGS219_2020_29","Sounds/cat_sound.wav","null","2","","","","","","",""
"null","","html-keyboard-response","526","3537058","0.0-15.0-1.18","a","COGS219_2020_29","<p style=""font-size: 48px;"">+</p>","null","2","","","","","","",""
"498.0750000104308","","image-keyboard-response","527","3537557","0.0-15.0-2.18","a","COGS219_2020_29","Images/cat_2.png","65","2","1582842856697","match","cat","cat","sound","test","true"
"null","","audio-keyboard-response","528","3539570","0.0-15.0-3.18","a","COGS219_2020_29","Sounds/correct.wav","null","2","","","","","","",""
"null","","audio-keyboard-response","529","3540268","0.0-15.0-0.19","a","COGS219_2020_29","Sounds/whistle_sound.wav","null","2","","","","","","",""
"null","","html-keyboard-response","530","3541258","0.0-15.0-1.19","a","COGS219_2020_29","<p style=""font-size: 48px;"">+</p>","null","2","","","","","","",""
"762.1600000420585","","image-keyboard-response","531","3542022","0.0-15.0-2.19","a","COGS219_2020_29","Images/dog_2.png","76","2","1582842860898","non-match","dog","whistle","sound","test","true"
"null","","audio-keyboard-response","532","3544033","0.0-15.0-3.19","a","COGS219_2020_29","Sounds/correct.wav","null","2","","","","","","",""
"null","","audio-keyboard-response","533","3544928","0.0-15.0-0.20","a","COGS219_2020_29","Sounds/frog_sound.wav","null","2","","","","","","",""
"null","","html-keyboard-response","534","3545925","0.0-15.0-1.20","a","COGS219_2020_29","<p style=""font-size: 48px;"">+</p>","null","2","","","","","","",""
"415.36500002257526","","image-keyboard-response","535","3546342","0.0-15.0-2.20","a","COGS219_2020_29","Images/frog_3.png","65","2","1582842865564","match","frog","frog","sound","test","true"
"null","","audio-keyboard-response","536","3548348","0.0-15.0-3.20","a","COGS219_2020_29","Sounds/correct.wav","null","2","","","","","","",""
"null","","audio-keyboard-response","537","3549428","0.0-15.0-0.21","a","COGS219_2020_29","Sounds/car_sound.wav","null","2","","","","","","",""
"null","","html-keyboard-response","538","3550425","0.0-15.0-1.21","a","COGS219_2020_29","<p style=""font-size: 48px;"">+</p>","null","2","","","","","","",""
"611.5099999587983","","image-keyboard-response","539","3551038","0.0-15.0-2.21","a","COGS219_2020_29","Images/whistle_orig.png","76","2","1582842870064","non-match","whistle","car","sound","test","true"
"null","","audio-keyboard-response","540","3553044","0.0-15.0-3.21","a","COGS219_2020_29","Sounds/correct.wav","null","2","","","","","","",""
"null","","audio-keyboard-response","541","3553948","0.0-15.0-0.22","a","COGS219_2020_29","Sounds/frog_label.wav","null","2","","","","","","",""
"null","","html-keyboard-response","542","3554942","0.0-15.0-1.22","a","COGS219_2020_29","<p style=""font-size: 48px;"">+</p>","null","2","","","","","","",""
"350.8199999341741","","image-keyboard-response","543","3555294","0.0-15.0-2.22","a","COGS219_2020_29","Images/frog_cartoon.png","65","2","1582842874581","match","frog","frog","label","test","true"
"null","","audio-keyboard-response","544","3557298","0.0-15.0-3.22","a","COGS219_2020_29","Sounds/correct.wav","null","2","","","","","","",""
"null","","audio-keyboard-response","545","3558568","0.0-15.0-0.23","a","COGS219_2020_29","Sounds/train_label.wav","null","2","","","","","","",""
"null","","html-keyboard-response","546","3559558","0.0-15.0-1.23","a","COGS219_2020_29","<p style=""font-size: 48px;"">+</p>","null","2","","","","","","",""
"510.1250000298023","","image-keyboard-response","547","3560069","0.0-15.0-2.23","a","COGS219_2020_29","Images/cat_3.png","76","2","1582842879198","non-match","cat","train","label","test","true"
"null","","audio-keyboard-response","548","3562084","0.0-15.0-3.23","a","COGS219_2020_29","Sounds/correct.wav","null","2","","","","","","",""
"null","","audio-keyboard-response","549","3563208","0.0-15.0-0.24","a","COGS219_2020_29","Sounds/motorcycle_sound.wav","null","2","","","","","","",""
"null","","html-keyboard-response","550","3564209","0.0-15.0-1.24","a","COGS219_2020_29","<p style=""font-size: 48px;"">+</p>","null","2","","","","","","",""
"491.9300000183284","","image-keyboard-response","551","3564702","0.0-15.0-2.24","a","COGS219_2020_29","Images/motorcycle_orig.png","65","2","1582842883848","match","motorcycle","motorcycle","sound","test","true"
"null","","audio-keyboard-response","552","3566719","0.0-15.0-3.24","a","COGS219_2020_29","Sounds/correct.wav","null","2","","","","","","",""
"null","","audio-keyboard-response","553","3567968","0.0-15.0-0.25","a","COGS219_2020_29","Sounds/train_label.wav","null","2","","","","","","",""
"null","","html-keyboard-response","554","3568959","0.0-15.0-1.25","a","COGS219_2020_29","<p style=""font-size: 48px;"">+</p>","null","2","","","","","","",""
"541.8049999279901","","image-keyboard-response","555","3569502","0.0-15.0-2.25","a","COGS219_2020_29","Images/gun_2.png","76","2","1582842888598","non-match","gun","train","label","test","true"
"null","","audio-keyboard-response","556","3571515","0.0-15.0-3.25","a","COGS219_2020_29","Sounds/correct.wav","null","2","","","","","","",""
"null","","audio-keyboard-response","557","3572228","0.0-15.0-0.26","a","COGS219_2020_29","Sounds/dog_sound.wav","null","2","","","","","","",""
"null","","html-keyboard-response","558","3573225","0.0-15.0-1.26","a","COGS219_2020_29","<p style=""font-size: 48px;"">+</p>","null","2","","","","","","",""
"667.4699999857694","","image-keyboard-response","559","3573894","0.0-15.0-2.26","a","COGS219_2020_29","Images/dog_cartoon.png","65","2","1582842892865","match","dog","dog","sound","test","true"
"null","","audio-keyboard-response","560","3575906","0.0-15.0-3.26","a","COGS219_2020_29","Sounds/correct.wav","null","2","","","","","","",""
"null","","audio-keyboard-response","561","3577148","0.0-15.0-0.27","a","COGS219_2020_29","Sounds/train_label.wav","null","2","","","","","","",""
"null","","html-keyboard-response","562","3578142","0.0-15.0-1.27","a","COGS219_2020_29","<p style=""font-size: 48px;"">+</p>","null","2","","","","","","",""
"486.6099999053404","","image-keyboard-response","563","3578630","0.0-15.0-2.27","a","COGS219_2020_29","Images/train_orig.png","65","2","1582842897782","match","train","train","label","test","true"
"null","","audio-keyboard-response","564","3580637","0.0-15.0-3.27","a","COGS219_2020_29","Sounds/correct.wav","null","2","","","","","","",""
"null","","audio-keyboard-response","565","3581548","0.0-15.0-0.28","a","COGS219_2020_29","Sounds/frog_sound.wav","null","2","","","","","","",""
"null","","html-keyboard-response","566","3582542","0.0-15.0-1.28","a","COGS219_2020_29","<p style=""font-size: 48px;"">+</p>","null","2","","","","","","",""
"494.4849999155849","","image-keyboard-response","567","3583038","0.0-15.0-2.28","a","COGS219_2020_29","Images/train_3.png","76","2","1582842902182","non-match","train","frog","sound","test","true"
"null","","audio-keyboard-response","568","3585052","0.0-15.0-3.28","a","COGS219_2020_29","Sounds/correct.wav","null","2","","","","","","",""
"null","","audio-keyboard-response","569","3585748","0.0-15.0-0.29","a","COGS219_2020_29","Sounds/dog_sound.wav","null","2","","","","","","",""
"null","","html-keyboard-response","570","3586742","0.0-15.0-1.29","a","COGS219_2020_29","<p style=""font-size: 48px;"">+</p>","null","2","","","","","","",""
"414.5900000585243","","image-keyboard-response","571","3587158","0.0-15.0-2.29","a","COGS219_2020_29","Images/dog_orig.png","65","2","1582842906381","match","dog","dog","sound","test","true"
"null","","audio-keyboard-response","572","3589161","0.0-15.0-3.29","a","COGS219_2020_29","Sounds/correct.wav","null","2","","","","","","",""
"null","","audio-keyboard-response","573","3589729","0.0-15.0-0.30","a","COGS219_2020_29","Sounds/gun_label.wav","null","2","","","","","","",""
"null","","html-keyboard-response","574","3590725","0.0-15.0-1.30","a","COGS219_2020_29","<p style=""font-size: 48px;"">+</p>","null","2","","","","","","",""
"575.1000000163913","","image-keyboard-response","575","3591302","0.0-15.0-2.30","a","COGS219_2020_29","Images/motorcycle_cartoon.png","76","2","1582842910365","non-match","motorcycle","gun","label","test","true"
"null","","audio-keyboard-response","576","3593317","0.0-15.0-3.30","a","COGS219_2020_29","Sounds/correct.wav","null","2","","","","","","",""
"null","","audio-keyboard-response","577","3594148","0.0-15.0-0.31","a","COGS219_2020_29","Sounds/cat_label.wav","null","2","","","","","","",""
"null","","html-keyboard-response","578","3595142","0.0-15.0-1.31","a","COGS219_2020_29","<p style=""font-size: 48px;"">+</p>","null","2","","","","","","",""
"470.2399999368936","","image-keyboard-response","579","3595614","0.0-15.0-2.31","a","COGS219_2020_29","Images/car_cartoon.png","76","2","1582842914782","non-match","car","cat","label","test","true"
"null","","audio-keyboard-response","580","3597622","0.0-15.0-3.31","a","COGS219_2020_29","Sounds/correct.wav","null","2","","","","","","",""
"null","","audio-keyboard-response","581","3598329","0.0-15.0-0.32","a","COGS219_2020_29","Sounds/whistle_label.wav","null","2","","","","","","",""
"null","","html-keyboard-response","582","3599326","0.0-15.0-1.32","a","COGS219_2020_29","<p style=""font-size: 48px;"">+</p>","null","2","","","","","","",""
"565.6500000040978","","image-keyboard-response","583","3599894","0.0-15.0-2.32","a","COGS219_2020_29","Images/whistle_orig.png","65","2","1582842918965","match","whistle","whistle","label","test","true"
"null","","audio-keyboard-response","584","3601899","0.0-15.0-3.32","a","COGS219_2020_29","Sounds/correct.wav","null","2","","","","","","",""
"null","","audio-keyboard-response","585","3602708","0.0-15.0-0.33","a","COGS219_2020_29","Sounds/cat_label.wav","null","2","","","","","","",""
"null","","html-keyboard-response","586","3603709","0.0-15.0-1.33","a","COGS219_2020_29","<p style=""font-size: 48px;"">+</p>","null","2","","","","","","",""
"535.6350000947714","","image-keyboard-response","587","3604246","0.0-15.0-2.33","a","COGS219_2020_29","Images/cat_orig.png","65","2","1582842923348","match","cat","cat","label","test","true"
"null","","audio-keyboard-response","588","3606251","0.0-15.0-3.33","a","COGS219_2020_29","Sounds/correct.wav","null","2","","","","","","",""
"null","","audio-keyboard-response","589","3606828","0.0-15.0-0.34","a","COGS219_2020_29","Sounds/gun_sound.wav","null","2","","","","","","",""
"null","","html-keyboard-response","590","3607826","0.0-15.0-1.34","a","COGS219_2020_29","<p style=""font-size: 48px;"">+</p>","null","2","","","","","","",""
"427.0150000229478","","image-keyboard-response","591","3608254","0.0-15.0-2.34","a","COGS219_2020_29","Images/gun_2.png","65","2","1582842927465","match","gun","gun","sound","test","true"
"null","","audio-keyboard-response","592","3610258","0.0-15.0-3.34","a","COGS219_2020_29","Sounds/correct.wav","null","2","","","","","","",""
"null","","audio-keyboard-response","593","3611269","0.0-15.0-0.35","a","COGS219_2020_29","Sounds/cow_label.wav","null","2","","","","","","",""
"null","","html-keyboard-response","594","3612259","0.0-15.0-1.35","a","COGS219_2020_29","<p style=""font-size: 48px;"">+</p>","null","2","","","","","","",""
"441.5250000311062","","image-keyboard-response","595","3612702","0.0-15.0-2.35","a","COGS219_2020_29","Images/cow_1.png","65","2","1582842931898","match","cow","cow","label","test","true"
"null","","audio-keyboard-response","596","3614712","0.0-15.0-3.35","a","COGS219_2020_29","Sounds/correct.wav","null","2","","","","","","",""
"null","","audio-keyboard-response","597","3615268","0.0-15.0-0.36","a","COGS219_2020_29","Sounds/gun_sound.wav","null","2","","","","","","",""
"null","","html-keyboard-response","598","3616259","0.0-15.0-1.36","a","COGS219_2020_29","<p style=""font-size: 48px;"">+</p>","null","2","","","","","","",""
"409.42000003997236","","image-keyboard-response","599","3616670","0.0-15.0-2.36","a","COGS219_2020_29","Images/gun_3.png","65","2","1582842935898","match","gun","gun","sound","test","true"
"null","","audio-keyboard-response","600","3618678","0.0-15.0-3.36","a","COGS219_2020_29","Sounds/correct.wav","null","2","","","","","","",""
"null","","audio-keyboard-response","601","3619668","0.0-15.0-0.37","a","COGS219_2020_29","Sounds/cow_label.wav","null","2","","","","","","",""
"null","","html-keyboard-response","602","3620659","0.0-15.0-1.37","a","COGS219_2020_29","<p style=""font-size: 48px;"">+</p>","null","2","","","","","","",""
"401.20500000193715","","image-keyboard-response","603","3621062","0.0-15.0-2.37","a","COGS219_2020_29","Images/cow_orig.png","65","2","1582842940298","match","cow","cow","label","test","true"
"null","","audio-keyboard-response","604","3623078","0.0-15.0-3.37","a","COGS219_2020_29","Sounds/correct.wav","null","2","","","","","","",""
