"rt","responses","trial_type","trial_index","time_elapsed","internal_node_id","match_key","participant_id","stimulus","key_press","block","stim_onset","match_type","image_category","sound_category","audio_type","phase","correct"
"7472.330000018701","{""Q0"":""06""}","survey-text","0","7500","0.0-0.0","l","06","","","","","","","","","",""
"148360.1600000402","","html-keyboard-response","1","155863","0.0-1.0","l","06","<p>Use KEYBOARD 1 (match RIGHT)</p><p>Press MATCH to continue.</p>","76","","","","","","","",""
"2844110.480000032","","html-keyboard-response","2","2999907","0.0-2.0","l","06","<p>Welcome to the experiment.</p>","66","","","","","","","",""
"10155.054999981076","","html-keyboard-response","3","3010066","0.0-3.0","l","06","<p>Thank you for agreeing to participate in this study.</p><p>If during any part of the procedure you must stop for any reason, please inform the researcher that you do not wish to continue.</p>","32","","","","","","","",""
"20687.61500006076","","html-keyboard-response","4","3030755","0.0-4.0","l","06","<p>In this experiment, you will hear various words or sounds and see pictures of various animals and objects.</p><p>Most of the images will be of common everyday objects, such as cars, cats, cows, firearms, frogs, chickens, whistles, trains, motorcycles, and dogs.</p><p>Some of the images will be real-life stills, while others will be cartoons.</p>","32","","","","","","","",""
"15598.334999987856","","html-keyboard-response","5","3046354","0.0-5.0","l","06","<p>Sometimes, the word/sound will match the picture, for example you'll hear a meowing sound and see a cat.</p><p>Other times, the picture will not match the sound or word.</p><p>Your task is to decide as quickly as possible if the word/sound matches the picture or not. </p>","32","","","","","","","",""
"14494.444999960251","","html-keyboard-response","6","3060868","0.0-6.0","l","06","<p>For example, if you hear the word ""cat"" or hear a meowing sound, and then see a picture of a cat, you should press the MATCH key.</p><p> If the sound and image do not match, press the NOT-MATCH key to indicate that there is not a match.</p>","32","","","","","","","",""
"11695.11000008788","","html-keyboard-response","7","3072565","0.0-7.0","l","06","<p>If you make a mistake, you will hear a buzzing sound instead of a more pleasant sound.</p><p> Try to respond as quickly as possible, while making as few errors as possible. If you are making mistakes, you are probably rushing.</p>","32","","","","","","","",""
"11550.32499996014","","html-keyboard-response","8","3084116","0.0-8.0","l","06","<p>Please try to not move or blink your eyes during the presentation of the images. You can move and blink between images.</p><p>During the experiment there will be some breaks during which you can rest your eyes.</p>","32","","","","","","","",""
"113935.64500007778","","html-keyboard-response","9","3198057","0.0-9.0","l","06","<p>We will begin with 10 practice trials. Please let the experimenter know if you have any questions.</p>","32","","","","","","","",""
"null","","audio-keyboard-response","10","3199158","0.0-10.0-0.0","l","06","Sounds/car_sound.wav","null","0","","","","","","",""
"null","","html-keyboard-response","11","3200153","0.0-10.0-1.0","l","06","<p style=""font-size: 48px;"">+</p>","null","0","","","","","","",""
"894.0799999982119","","image-keyboard-response","12","3201049","0.0-10.0-2.0","l","06","Images/car_2.png","76","0","1581389916946","match","car","car","sound","practice","true"
"null","","audio-keyboard-response","13","3203067","0.0-10.0-3.0","l","06","Sounds/correct.wav","null","0","","","","","","",""
"null","","audio-keyboard-response","14","3204078","0.0-10.0-0.1","l","06","Sounds/cow_sound.wav","null","0","","","","","","",""
"null","","html-keyboard-response","15","3205070","0.0-10.0-1.1","l","06","<p style=""font-size: 48px;"">+</p>","null","0","","","","","","",""
"841.7050000280142","","image-keyboard-response","16","3205913","0.0-10.0-2.1","l","06","Images/cow_1.png","76","0","1581389921863","match","cow","cow","sound","practice","true"
"null","","audio-keyboard-response","17","3207923","0.0-10.0-3.1","l","06","Sounds/correct.wav","null","0","","","","","","",""
"null","","audio-keyboard-response","18","3208498","0.0-10.0-0.2","l","06","Sounds/gun_sound.wav","null","0","","","","","","",""
"null","","html-keyboard-response","19","3209503","0.0-10.0-1.2","l","06","<p style=""font-size: 48px;"">+</p>","null","0","","","","","","",""
"840.1799999410287","","image-keyboard-response","20","3210345","0.0-10.0-2.2","l","06","Images/gun_2.png","76","0","1581389926296","match","gun","gun","sound","practice","true"
"null","","audio-keyboard-response","21","3212355","0.0-10.0-3.2","l","06","Sounds/correct.wav","null","0","","","","","","",""
"null","","audio-keyboard-response","22","3212898","0.0-10.0-0.3","l","06","Sounds/gun_sound.wav","null","0","","","","","","",""
"null","","html-keyboard-response","23","3213886","0.0-10.0-1.3","l","06","<p style=""font-size: 48px;"">+</p>","null","0","","","","","","",""
"648.9600000204518","","image-keyboard-response","24","3214537","0.0-10.0-2.3","l","06","Images/gun_1.png","76","0","1581389930681","match","gun","gun","sound","practice","true"
"null","","audio-keyboard-response","25","3216545","0.0-10.0-3.3","l","06","Sounds/correct.wav","null","0","","","","","","",""
"null","","audio-keyboard-response","26","3217678","0.0-10.0-0.4","l","06","Sounds/motorcycle_label.wav","null","0","","","","","","",""
"null","","html-keyboard-response","27","3218670","0.0-10.0-1.4","l","06","<p style=""font-size: 48px;"">+</p>","null","0","","","","","","",""
"697.6349999895319","","image-keyboard-response","28","3219369","0.0-10.0-2.4","l","06","Images/whistle_cartoon.png","65","0","1581389935463","non-match","whistle","motorcycle","label","practice","true"
"null","","audio-keyboard-response","29","3221383","0.0-10.0-3.4","l","06","Sounds/correct.wav","null","0","","","","","","",""
"null","","audio-keyboard-response","30","3221958","0.0-10.0-0.5","l","06","Sounds/gun_label.wav","null","0","","","","","","",""
"null","","html-keyboard-response","31","3222953","0.0-10.0-1.5","l","06","<p style=""font-size: 48px;"">+</p>","null","0","","","","","","",""
"782.4700000928715","","image-keyboard-response","32","3223737","0.0-10.0-2.5","l","06","Images/train_3.png","65","0","1581389939746","non-match","train","gun","label","practice","true"
"null","","audio-keyboard-response","33","3225743","0.0-10.0-3.5","l","06","Sounds/correct.wav","null","0","","","","","","",""
"null","","audio-keyboard-response","34","3226438","0.0-10.0-0.6","l","06","Sounds/rooster_sound.wav","null","0","","","","","","",""
"null","","html-keyboard-response","35","3227436","0.0-10.0-1.6","l","06","<p style=""font-size: 48px;"">+</p>","null","0","","","","","","",""
"698.839999968186","","image-keyboard-response","36","3228137","0.0-10.0-2.6","l","06","Images/rooster_2.png","76","0","1581389944230","match","rooster","rooster","sound","practice","true"
"null","","audio-keyboard-response","37","3230148","0.0-10.0-3.6","l","06","Sounds/correct.wav","null","0","","","","","","",""
"null","","audio-keyboard-response","38","3230978","0.0-10.0-0.7","l","06","Sounds/cat_sound.wav","null","0","","","","","","",""
"null","","html-keyboard-response","39","3231970","0.0-10.0-1.7","l","06","<p style=""font-size: 48px;"">+</p>","null","0","","","","","","",""
"1029.249999905005","","image-keyboard-response","40","3233000","0.0-10.0-2.7","l","06","Images/frog_3.png","65","0","1581389948763","non-match","frog","cat","sound","practice","true"
"null","","audio-keyboard-response","41","3235010","0.0-10.0-3.7","l","06","Sounds/correct.wav","null","0","","","","","","",""
"null","","audio-keyboard-response","42","3236138","0.0-10.0-0.8","l","06","Sounds/motorcycle_label.wav","null","0","","","","","","",""
"null","","html-keyboard-response","43","3237137","0.0-10.0-1.8","l","06","<p style=""font-size: 48px;"">+</p>","null","0","","","","","","",""
"966.7400000616908","","image-keyboard-response","44","3238105","0.0-10.0-2.8","l","06","Images/cat_2.png","65","0","1581389953930","non-match","cat","motorcycle","label","practice","true"
"null","","audio-keyboard-response","45","3240112","0.0-10.0-3.8","l","06","Sounds/correct.wav","null","0","","","","","","",""
"null","","audio-keyboard-response","46","3241218","0.0-10.0-0.9","l","06","Sounds/motorcycle_label.wav","null","0","","","","","","",""
"null","","html-keyboard-response","47","3242220","0.0-10.0-1.9","l","06","<p style=""font-size: 48px;"">+</p>","null","0","","","","","","",""
"762.5899999402463","","image-keyboard-response","48","3242984","0.0-10.0-2.9","l","06","Images/train_1.png","65","0","1581389959013","non-match","train","motorcycle","label","practice","true"
"null","","audio-keyboard-response","49","3244994","0.0-10.0-3.9","l","06","Sounds/correct.wav","null","0","","","","","","",""
"25286.589999916032","","html-keyboard-response","50","3270293","0.0-11.0","l","06","<p>The rest of the experiment is divided into five blocks with 100 trials in each block. It will take about 45 minutes to complete.</p><p>The experimenter will be in the outer room and you can communicate with them through the monitor if you have any questions or wish to stop the experiment.</p>","32","","","","","","","",""
"54302.700000000186","","html-keyboard-response","51","3324585","0.0-12.0","l","06","<p>Remember, please try not to move or blink your eyes during the presentation of the images. </p><p>At the end of the experiment, we will show you your scores on the task so you can see how you did.</p><p>The experiment will start on the next screen.</p>","32","","","","","","","",""
"null","","audio-keyboard-response","52","3327177","0.0-13.0-0.0","l","06","Sounds/gun_label.wav","null","1","","","","","","",""
"null","","html-keyboard-response","53","3328171","0.0-13.0-1.0","l","06","<p style=""font-size: 48px;"">+</p>","null","1","","","","","","",""
"700.4149999702349","","image-keyboard-response","54","3328872","0.0-13.0-2.0","l","06","Images/gun_2.png","76","1","1581390044964","match","gun","gun","label","test","true"
"null","","audio-keyboard-response","55","3330883","0.0-13.0-3.0","l","06","Sounds/correct.wav","null","1","","","","","","",""
"null","","audio-keyboard-response","56","3332018","0.0-13.0-0.1","l","06","Sounds/motorcycle_label.wav","null","1","","","","","","",""
"null","","html-keyboard-response","57","3333021","0.0-13.0-1.1","l","06","<p style=""font-size: 48px;"">+</p>","null","1","","","","","","",""
"554.5200000051409","","image-keyboard-response","58","3333576","0.0-13.0-2.1","l","06","Images/motorcycle_orig.png","76","1","1581390049814","match","motorcycle","motorcycle","label","test","true"
"null","","audio-keyboard-response","59","3335593","0.0-13.0-3.1","l","06","Sounds/correct.wav","null","1","","","","","","",""
"null","","audio-keyboard-response","60","3336877","0.0-13.0-0.2","l","06","Sounds/train_label.wav","null","1","","","","","","",""
"null","","html-keyboard-response","61","3337871","0.0-13.0-1.2","l","06","<p style=""font-size: 48px;"">+</p>","null","1","","","","","","",""
"376.7399999778718","","image-keyboard-response","62","3338249","0.0-13.0-2.2","l","06","Images/dog_orig.png","65","1","1581390054664","non-match","dog","train","label","test","true"
"null","","audio-keyboard-response","63","3340259","0.0-13.0-3.2","l","06","Sounds/correct.wav","null","1","","","","","","",""
"null","","audio-keyboard-response","64","3340957","0.0-13.0-0.3","l","06","Sounds/whistle_label.wav","null","1","","","","","","",""
"null","","html-keyboard-response","65","3341954","0.0-13.0-1.3","l","06","<p style=""font-size: 48px;"">+</p>","null","1","","","","","","",""
"757.1349999634549","","image-keyboard-response","66","3342712","0.0-13.0-2.3","l","06","Images/whistle_cartoon.png","76","1","1581390058747","match","whistle","whistle","label","test","true"
"null","","audio-keyboard-response","67","3344728","0.0-13.0-3.3","l","06","Sounds/correct.wav","null","1","","","","","","",""
"null","","audio-keyboard-response","68","3345377","0.0-13.0-0.4","l","06","Sounds/dog_label.wav","null","1","","","","","","",""
"null","","html-keyboard-response","69","3346371","0.0-13.0-1.4","l","06","<p style=""font-size: 48px;"">+</p>","null","1","","","","","","",""
"548.4099999302998","","image-keyboard-response","70","3346920","0.0-13.0-2.4","l","06","Images/motorcycle_2.png","65","1","1581390063164","non-match","motorcycle","dog","label","test","true"
"null","","audio-keyboard-response","71","3348930","0.0-13.0-3.4","l","06","Sounds/correct.wav","null","1","","","","","","",""
"null","","audio-keyboard-response","72","3349637","0.0-13.0-0.5","l","06","Sounds/dog_sound.wav","null","1","","","","","","",""
"null","","html-keyboard-response","73","3350637","0.0-13.0-1.5","l","06","<p style=""font-size: 48px;"">+</p>","null","1","","","","","","",""
"490.1000000536442","","image-keyboard-response","74","3351128","0.0-13.0-2.5","l","06","Images/gun_3.png","65","1","1581390067431","non-match","gun","dog","sound","test","true"
"null","","audio-keyboard-response","75","3353132","0.0-13.0-3.5","l","06","Sounds/correct.wav","null","1","","","","","","",""
"null","","audio-keyboard-response","76","3354377","0.0-13.0-0.6","l","06","Sounds/train_label.wav","null","1","","","","","","",""
"null","","html-keyboard-response","77","3355371","0.0-13.0-1.6","l","06","<p style=""font-size: 48px;"">+</p>","null","1","","","","","","",""
"428.23499999940395","","image-keyboard-response","78","3355800","0.0-13.0-2.6","l","06","Images/train_cartoon.png","76","1","1581390072164","match","train","train","label","test","true"
"null","","audio-keyboard-response","79","3357804","0.0-13.0-3.6","l","06","Sounds/correct.wav","null","1","","","","","","",""
"null","","audio-keyboard-response","80","3359097","0.0-13.0-0.7","l","06","Sounds/train_sound.wav","null","1","","","","","","",""
"null","","html-keyboard-response","81","3360088","0.0-13.0-1.7","l","06","<p style=""font-size: 48px;"">+</p>","null","1","","","","","","",""
"927.5899999774992","","image-keyboard-response","82","3361016","0.0-13.0-2.7","l","06","Images/train_3.png","76","1","1581390076881","match","train","train","sound","test","true"
"null","","audio-keyboard-response","83","3363033","0.0-13.0-3.7","l","06","Sounds/correct.wav","null","1","","","","","","",""
"null","","audio-keyboard-response","84","3363677","0.0-13.0-0.8","l","06","Sounds/dog_label.wav","null","1","","","","","","",""
"null","","html-keyboard-response","85","3364671","0.0-13.0-1.8","l","06","<p style=""font-size: 48px;"">+</p>","null","1","","","","","","",""
"360.4600001126528","","image-keyboard-response","86","3365032","0.0-13.0-2.8","l","06","Images/dog_cartoon.png","76","1","1581390081464","match","dog","dog","label","test","true"
"null","","audio-keyboard-response","87","3367043","0.0-13.0-3.8","l","06","Sounds/correct.wav","null","1","","","","","","",""
"null","","audio-keyboard-response","88","3367937","0.0-13.0-0.9","l","06","Sounds/frog_label.wav","null","1","","","","","","",""
"null","","html-keyboard-response","89","3368954","0.0-13.0-1.9","l","06","<p style=""font-size: 48px;"">+</p>","null","1","","","","","","",""
"556.9700000341982","","image-keyboard-response","90","3369512","0.0-13.0-2.9","l","06","Images/rooster_2.png","65","1","1581390085748","non-match","rooster","frog","label","test","true"
"null","","audio-keyboard-response","91","3371526","0.0-13.0-3.9","l","06","Sounds/correct.wav","null","1","","","","","","",""
"null","","audio-keyboard-response","92","3372157","0.0-13.0-0.10","l","06","Sounds/dog_label.wav","null","1","","","","","","",""
"null","","html-keyboard-response","93","3373155","0.0-13.0-1.10","l","06","<p style=""font-size: 48px;"">+</p>","null","1","","","","","","",""
"372.7800000924617","","image-keyboard-response","94","3373528","0.0-13.0-2.10","l","06","Images/dog_orig.png","76","1","1581390089948","match","dog","dog","label","test","true"
"null","","audio-keyboard-response","95","3375542","0.0-13.0-3.10","l","06","Sounds/correct.wav","null","1","","","","","","",""
"null","","audio-keyboard-response","96","3376657","0.0-13.0-0.11","l","06","Sounds/motorcycle_sound.wav","null","1","","","","","","",""
"null","","html-keyboard-response","97","3377655","0.0-13.0-1.11","l","06","<p style=""font-size: 48px;"">+</p>","null","1","","","","","","",""
"641.2850000197068","","image-keyboard-response","98","3378297","0.0-13.0-2.11","l","06","Images/frog_orig.png","65","1","1581390094448","non-match","frog","motorcycle","sound","test","true"
"null","","audio-keyboard-response","99","3380305","0.0-13.0-3.11","l","06","Sounds/correct.wav","null","1","","","","","","",""
"null","","audio-keyboard-response","100","3381137","0.0-13.0-0.12","l","06","Sounds/cat_sound.wav","null","1","","","","","","",""
"null","","html-keyboard-response","101","3382154","0.0-13.0-1.12","l","06","<p style=""font-size: 48px;"">+</p>","null","1","","","","","","",""
"444.7500000242144","","image-keyboard-response","102","3382600","0.0-13.0-2.12","l","06","Images/cat_1.png","76","1","1581390098948","match","cat","cat","sound","test","true"
"null","","audio-keyboard-response","103","3384630","0.0-13.0-3.12","l","06","Sounds/correct.wav","null","1","","","","","","",""
"null","","audio-keyboard-response","104","3385210","0.0-13.0-0.13","l","06","Sounds/gun_label.wav","null","1","","","","","","",""
"null","","html-keyboard-response","105","3386201","0.0-13.0-1.13","l","06","<p style=""font-size: 48px;"">+</p>","null","1","","","","","","",""
"427.3950000060722","","image-keyboard-response","106","3386629","0.0-13.0-2.13","l","06","Images/car_orig.png","65","1","1581390102994","non-match","car","gun","label","test","true"
"null","","audio-keyboard-response","107","3388635","0.0-13.0-3.13","l","06","Sounds/correct.wav","null","1","","","","","","",""
"null","","audio-keyboard-response","108","3389470","0.0-13.0-0.14","l","06","Sounds/cat_label.wav","null","1","","","","","","",""
"null","","html-keyboard-response","109","3390468","0.0-13.0-1.14","l","06","<p style=""font-size: 48px;"">+</p>","null","1","","","","","","",""
"576.8450000323355","","image-keyboard-response","110","3391045","0.0-13.0-2.14","l","06","Images/rooster_orig.png","65","1","1581390107261","non-match","rooster","cat","label","test","true"
"null","","audio-keyboard-response","111","3393057","0.0-13.0-3.14","l","06","Sounds/correct.wav","null","1","","","","","","",""
"null","","audio-keyboard-response","112","3394150","0.0-13.0-0.15","l","06","Sounds/motorcycle_sound.wav","null","1","","","","","","",""
"null","","html-keyboard-response","113","3395167","0.0-13.0-1.15","l","06","<p style=""font-size: 48px;"">+</p>","null","1","","","","","","",""
"516.8550000526011","","image-keyboard-response","114","3395685","0.0-13.0-2.15","l","06","Images/motorcycle_3.png","76","1","1581390111961","match","motorcycle","motorcycle","sound","test","true"
"null","","audio-keyboard-response","115","3397692","0.0-13.0-3.15","l","06","Sounds/correct.wav","null","1","","","","","","",""
"null","","audio-keyboard-response","116","3398390","0.0-13.0-0.16","l","06","Sounds/whistle_sound.wav","null","1","","","","","","",""
"null","","html-keyboard-response","117","3399384","0.0-13.0-1.16","l","06","<p style=""font-size: 48px;"">+</p>","null","1","","","","","","",""
"491.8449999531731","","image-keyboard-response","118","3399877","0.0-13.0-2.16","l","06","Images/whistle_2.png","76","1","1581390116177","match","whistle","whistle","sound","test","true"
"null","","audio-keyboard-response","119","3401895","0.0-13.0-3.16","l","06","Sounds/correct.wav","null","1","","","","","","",""
"null","","audio-keyboard-response","120","3402610","0.0-13.0-0.17","l","06","Sounds/dog_sound.wav","null","1","","","","","","",""
"null","","html-keyboard-response","121","3403601","0.0-13.0-1.17","l","06","<p style=""font-size: 48px;"">+</p>","null","1","","","","","","",""
"387.4400000786409","","image-keyboard-response","122","3403990","0.0-13.0-2.17","l","06","Images/dog_2.png","76","1","1581390120394","match","dog","dog","sound","test","true"
"null","","audio-keyboard-response","123","3406004","0.0-13.0-3.17","l","06","Sounds/correct.wav","null","1","","","","","","",""
"null","","audio-keyboard-response","124","3406810","0.0-13.0-0.18","l","06","Sounds/cat_label.wav","null","1","","","","","","",""
"null","","html-keyboard-response","125","3407801","0.0-13.0-1.18","l","06","<p style=""font-size: 48px;"">+</p>","null","1","","","","","","",""
"362.95500001870096","","image-keyboard-response","126","3408165","0.0-13.0-2.18","l","06","Images/cat_cartoon.png","76","1","1581390124594","match","cat","cat","label","test","true"
"null","","audio-keyboard-response","127","3410173","0.0-13.0-3.18","l","06","Sounds/correct.wav","null","1","","","","","","",""
"null","","audio-keyboard-response","128","3411250","0.0-13.0-0.19","l","06","Sounds/car_sound.wav","null","1","","","","","","",""
"null","","html-keyboard-response","129","3412268","0.0-13.0-1.19","l","06","<p style=""font-size: 48px;"">+</p>","null","1","","","","","","",""
"440.26999990455806","","image-keyboard-response","130","3412709","0.0-13.0-2.19","l","06","Images/cow_cartoon.png","65","1","1581390129061","non-match","cow","car","sound","test","true"
"null","","audio-keyboard-response","131","3414721","0.0-13.0-3.19","l","06","Sounds/correct.wav","null","1","","","","","","",""
"null","","audio-keyboard-response","132","3415410","0.0-13.0-0.20","l","06","Sounds/rooster_label.wav","null","1","","","","","","",""
"null","","html-keyboard-response","133","3416401","0.0-13.0-1.20","l","06","<p style=""font-size: 48px;"">+</p>","null","1","","","","","","",""
"547.0900000073016","","image-keyboard-response","134","3416950","0.0-13.0-2.20","l","06","Images/cat_1.png","65","1","1581390133194","non-match","cat","rooster","label","test","true"
"null","","audio-keyboard-response","135","3418960","0.0-13.0-3.20","l","06","Sounds/correct.wav","null","1","","","","","","",""
"null","","audio-keyboard-response","136","3420010","0.0-13.0-0.21","l","06","Sounds/car_sound.wav","null","1","","","","","","",""
"null","","html-keyboard-response","137","3421001","0.0-13.0-1.21","l","06","<p style=""font-size: 48px;"">+</p>","null","1","","","","","","",""
"379.01499995496124","","image-keyboard-response","138","3421381","0.0-13.0-2.21","l","06","Images/car_3.png","76","1","1581390137795","match","car","car","sound","test","true"
"null","","audio-keyboard-response","139","3423389","0.0-13.0-3.21","l","06","Sounds/correct.wav","null","1","","","","","","",""
"null","","audio-keyboard-response","140","3424410","0.0-13.0-0.22","l","06","Sounds/cow_label.wav","null","1","","","","","","",""
"null","","html-keyboard-response","141","3425401","0.0-13.0-1.22","l","06","<p style=""font-size: 48px;"">+</p>","null","1","","","","","","",""
"410.8450000640005","","image-keyboard-response","142","3425813","0.0-13.0-2.22","l","06","Images/cat_2.png","65","1","1581390142195","non-match","cat","cow","label","test","true"
"null","","audio-keyboard-response","143","3427823","0.0-13.0-3.22","l","06","Sounds/correct.wav","null","1","","","","","","",""
"null","","audio-keyboard-response","144","3428810","0.0-13.0-0.23","l","06","Sounds/cow_label.wav","null","1","","","","","","",""
"null","","html-keyboard-response","145","3429802","0.0-13.0-1.23","l","06","<p style=""font-size: 48px;"">+</p>","null","1","","","","","","",""
"411.1000000266358","","image-keyboard-response","146","3430214","0.0-13.0-2.23","l","06","Images/frog_3.png","65","1","1581390146595","non-match","frog","cow","label","test","true"
"null","","audio-keyboard-response","147","3432220","0.0-13.0-3.23","l","06","Sounds/correct.wav","null","1","","","","","","",""
"null","","audio-keyboard-response","148","3433290","0.0-13.0-0.24","l","06","Sounds/car_label.wav","null","1","","","","","","",""
"null","","html-keyboard-response","149","3434285","0.0-13.0-1.24","l","06","<p style=""font-size: 48px;"">+</p>","null","1","","","","","","",""
"599.4250000221655","","image-keyboard-response","150","3434885","0.0-13.0-2.24","l","06","Images/gun_orig.png","65","1","1581390151078","non-match","gun","car","label","test","true"
"null","","audio-keyboard-response","151","3436891","0.0-13.0-3.24","l","06","Sounds/correct.wav","null","1","","","","","","",""
"null","","audio-keyboard-response","152","3437590","0.0-13.0-0.25","l","06","Sounds/whistle_sound.wav","null","1","","","","","","",""
"null","","html-keyboard-response","153","3438585","0.0-13.0-1.25","l","06","<p style=""font-size: 48px;"">+</p>","null","1","","","","","","",""
"443.22499993722886","","image-keyboard-response","154","3439029","0.0-13.0-2.25","l","06","Images/cat_orig.png","65","1","1581390155378","non-match","cat","whistle","sound","test","true"
"null","","audio-keyboard-response","155","3441033","0.0-13.0-3.25","l","06","Sounds/correct.wav","null","1","","","","","","",""
"null","","audio-keyboard-response","156","3442050","0.0-13.0-0.26","l","06","Sounds/cow_sound.wav","null","1","","","","","","",""
"null","","html-keyboard-response","157","3443068","0.0-13.0-1.26","l","06","<p style=""font-size: 48px;"">+</p>","null","1","","","","","","",""
"440.37500000558794","","image-keyboard-response","158","3443510","0.0-13.0-2.26","l","06","Images/cow_1.png","76","1","1581390159861","match","cow","cow","sound","test","true"
"null","","audio-keyboard-response","159","3445516","0.0-13.0-3.26","l","06","Sounds/correct.wav","null","1","","","","","","",""
"null","","audio-keyboard-response","160","3446211","0.0-13.0-0.27","l","06","Sounds/rooster_label.wav","null","1","","","","","","",""
"null","","html-keyboard-response","161","3447202","0.0-13.0-1.27","l","06","<p style=""font-size: 48px;"">+</p>","null","1","","","","","","",""
"530.6049999780953","","image-keyboard-response","162","3447734","0.0-13.0-2.27","l","06","Images/rooster_3.png","76","1","1581390163995","match","rooster","rooster","label","test","true"
"null","","audio-keyboard-response","163","3449745","0.0-13.0-3.27","l","06","Sounds/correct.wav","null","1","","","","","","",""
"null","","audio-keyboard-response","164","3450731","0.0-13.0-0.28","l","06","Sounds/cow_sound.wav","null","1","","","","","","",""
"null","","html-keyboard-response","165","3451719","0.0-13.0-1.28","l","06","<p style=""font-size: 48px;"">+</p>","null","1","","","","","","",""
"541.8649999191985","","image-keyboard-response","166","3452262","0.0-13.0-2.28","l","06","Images/cow_orig.png","76","1","1581390168512","match","cow","cow","sound","test","true"
"null","","audio-keyboard-response","167","3454275","0.0-13.0-3.28","l","06","Sounds/correct.wav","null","1","","","","","","",""
"null","","audio-keyboard-response","168","3455190","0.0-13.0-0.29","l","06","Sounds/frog_sound.wav","null","1","","","","","","",""
"null","","html-keyboard-response","169","3456186","0.0-13.0-1.29","l","06","<p style=""font-size: 48px;"">+</p>","null","1","","","","","","",""
"619.319999939762","","image-keyboard-response","170","3456806","0.0-13.0-2.29","l","06","Images/frog_1.png","76","1","1581390172979","match","frog","frog","sound","test","true"
"null","","audio-keyboard-response","171","3458823","0.0-13.0-3.29","l","06","Sounds/correct.wav","null","1","","","","","","",""
"null","","audio-keyboard-response","172","3459910","0.0-13.0-0.30","l","06","Sounds/car_sound.wav","null","1","","","","","","",""
"null","","html-keyboard-response","173","3460902","0.0-13.0-1.30","l","06","<p style=""font-size: 48px;"">+</p>","null","1","","","","","","",""
"526.6899999696761","","image-keyboard-response","174","3461430","0.0-13.0-2.30","l","06","Images/whistle_orig.png","65","1","1581390177695","non-match","whistle","car","sound","test","true"
"null","","audio-keyboard-response","175","3463444","0.0-13.0-3.30","l","06","Sounds/correct.wav","null","1","","","","","","",""
"null","","audio-keyboard-response","176","3464451","0.0-13.0-0.31","l","06","Sounds/cow_label.wav","null","1","","","","","","",""
"null","","html-keyboard-response","177","3465486","0.0-13.0-1.31","l","06","<p style=""font-size: 48px;"">+</p>","null","1","","","","","","",""
"583.1949999555945","","image-keyboard-response","178","3466070","0.0-13.0-2.31","l","06","Images/motorcycle_3.png","65","1","1581390182279","non-match","motorcycle","cow","label","test","true"
"null","","audio-keyboard-response","179","3468087","0.0-13.0-3.31","l","06","Sounds/correct.wav","null","1","","","","","","",""
"null","","audio-keyboard-response","180","3468970","0.0-13.0-0.32","l","06","Sounds/frog_sound.wav","null","1","","","","","","",""
"null","","html-keyboard-response","181","3469969","0.0-13.0-1.32","l","06","<p style=""font-size: 48px;"">+</p>","null","1","","","","","","",""
"420.23000004701316","","image-keyboard-response","182","3470390","0.0-13.0-2.32","l","06","Images/cow_1.png","76","1","1581390186762","non-match","cow","frog","sound","test","false"
"null","","audio-keyboard-response","183","3472402","0.0-13.0-3.32","l","06","Sounds/incorrect.wav","null","1","","","","","","",""
"null","","audio-keyboard-response","184","3473691","0.0-13.0-0.33","l","06","Sounds/train_label.wav","null","1","","","","","","",""
"null","","html-keyboard-response","185","3474686","0.0-13.0-1.33","l","06","<p style=""font-size: 48px;"">+</p>","null","1","","","","","","",""
"758.9900000020862","","image-keyboard-response","186","3475446","0.0-13.0-2.33","l","06","Images/cat_3.png","65","1","1581390191479","non-match","cat","train","label","test","true"
"null","","audio-keyboard-response","187","3477460","0.0-13.0-3.33","l","06","Sounds/correct.wav","null","1","","","","","","",""
"null","","audio-keyboard-response","188","3478530","0.0-13.0-0.34","l","06","Sounds/car_label.wav","null","1","","","","","","",""
"null","","html-keyboard-response","189","3479536","0.0-13.0-1.34","l","06","<p style=""font-size: 48px;"">+</p>","null","1","","","","","","",""
"484.8950000014156","","image-keyboard-response","190","3480022","0.0-13.0-2.34","l","06","Images/frog_1.png","65","1","1581390196329","non-match","frog","car","label","test","true"
"null","","audio-keyboard-response","191","3482031","0.0-13.0-3.34","l","06","Sounds/correct.wav","null","1","","","","","","",""
"null","","audio-keyboard-response","192","3482611","0.0-13.0-0.35","l","06","Sounds/gun_label.wav","null","1","","","","","","",""
"null","","html-keyboard-response","193","3483602","0.0-13.0-1.35","l","06","<p style=""font-size: 48px;"">+</p>","null","1","","","","","","",""
"482.42999997455627","","image-keyboard-response","194","3484086","0.0-13.0-2.35","l","06","Images/train_3.png","65","1","1581390200395","non-match","train","gun","label","test","true"
"null","","audio-keyboard-response","195","3486097","0.0-13.0-3.35","l","06","Sounds/correct.wav","null","1","","","","","","",""
"null","","audio-keyboard-response","196","3486791","0.0-13.0-0.36","l","06","Sounds/whistle_label.wav","null","1","","","","","","",""
"null","","html-keyboard-response","197","3487786","0.0-13.0-1.36","l","06","<p style=""font-size: 48px;"">+</p>","null","1","","","","","","",""
"442.8949999855831","","image-keyboard-response","198","3488230","0.0-13.0-2.36","l","06","Images/whistle_1.png","76","1","1581390204579","match","whistle","whistle","label","test","true"
"null","","audio-keyboard-response","199","3490239","0.0-13.0-3.36","l","06","Sounds/correct.wav","null","1","","","","","","",""
"null","","audio-keyboard-response","200","3491090","0.0-13.0-0.37","l","06","Sounds/cat_label.wav","null","1","","","","","","",""
"null","","html-keyboard-response","201","3492086","0.0-13.0-1.37","l","06","<p style=""font-size: 48px;"">+</p>","null","1","","","","","","",""
"510.6699999887496","","image-keyboard-response","202","3492598","0.0-13.0-2.37","l","06","Images/motorcycle_orig.png","65","1","1581390208879","non-match","motorcycle","cat","label","test","true"
"null","","audio-keyboard-response","203","3494611","0.0-13.0-3.37","l","06","Sounds/correct.wav","null","1","","","","","","",""
"null","","audio-keyboard-response","204","3495751","0.0-13.0-0.38","l","06","Sounds/motorcycle_label.wav","null","1","","","","","","",""
"null","","html-keyboard-response","205","3496753","0.0-13.0-1.38","l","06","<p style=""font-size: 48px;"">+</p>","null","1","","","","","","",""
"356.36500001419336","","image-keyboard-response","206","3497110","0.0-13.0-2.38","l","06","Images/motorcycle_2.png","76","1","1581390213546","match","motorcycle","motorcycle","label","test","true"
"null","","audio-keyboard-response","207","3499123","0.0-13.0-3.38","l","06","Sounds/correct.wav","null","1","","","","","","",""
"null","","audio-keyboard-response","208","3499691","0.0-13.0-0.39","l","06","Sounds/gun_sound.wav","null","1","","","","","","",""
"null","","html-keyboard-response","209","3500686","0.0-13.0-1.39","l","06","<p style=""font-size: 48px;"">+</p>","null","1","","","","","","",""
"470.7500000949949","","image-keyboard-response","210","3501158","0.0-13.0-2.39","l","06","Images/gun_3.png","76","1","1581390217479","match","gun","gun","sound","test","true"
"null","","audio-keyboard-response","211","3503166","0.0-13.0-3.39","l","06","Sounds/correct.wav","null","1","","","","","","",""
"null","","audio-keyboard-response","212","3504071","0.0-13.0-0.40","l","06","Sounds/frog_label.wav","null","1","","","","","","",""
"null","","html-keyboard-response","213","3505069","0.0-13.0-1.40","l","06","<p style=""font-size: 48px;"">+</p>","null","1","","","","","","",""
"375.66499994136393","","image-keyboard-response","214","3505446","0.0-13.0-2.40","l","06","Images/frog_2.png","76","1","1581390221862","match","frog","frog","label","test","true"
"null","","audio-keyboard-response","215","3507457","0.0-13.0-3.40","l","06","Sounds/correct.wav","null","1","","","","","","",""
"null","","audio-keyboard-response","216","3508571","0.0-13.0-0.41","l","06","Sounds/motorcycle_sound.wav","null","1","","","","","","",""
"null","","html-keyboard-response","217","3509570","0.0-13.0-1.41","l","06","<p style=""font-size: 48px;"">+</p>","null","1","","","","","","",""
"515.5599999707192","","image-keyboard-response","218","3510086","0.0-13.0-2.41","l","06","Images/motorcycle_cartoon.png","76","1","1581390226363","match","motorcycle","motorcycle","sound","test","true"
"null","","audio-keyboard-response","219","3512096","0.0-13.0-3.41","l","06","Sounds/correct.wav","null","1","","","","","","",""
"null","","audio-keyboard-response","220","3512811","0.0-13.0-0.42","l","06","Sounds/dog_sound.wav","null","1","","","","","","",""
"null","","html-keyboard-response","221","3513803","0.0-13.0-1.42","l","06","<p style=""font-size: 48px;"">+</p>","null","1","","","","","","",""
"506.2049999833107","","image-keyboard-response","222","3514310","0.0-13.0-2.42","l","06","Images/rooster_1.png","65","1","1581390230596","non-match","rooster","dog","sound","test","true"
"null","","audio-keyboard-response","223","3516313","0.0-13.0-3.42","l","06","Sounds/correct.wav","null","1","","","","","","",""
"null","","audio-keyboard-response","224","3517231","0.0-13.0-0.43","l","06","Sounds/frog_sound.wav","null","1","","","","","","",""
"null","","html-keyboard-response","225","3518220","0.0-13.0-1.43","l","06","<p style=""font-size: 48px;"">+</p>","null","1","","","","","","",""
"488.65000007208437","","image-keyboard-response","226","3518710","0.0-13.0-2.43","l","06","Images/car_cartoon.png","65","1","1581390235013","non-match","car","frog","sound","test","true"
"null","","audio-keyboard-response","227","3520716","0.0-13.0-3.43","l","06","Sounds/correct.wav","null","1","","","","","","",""
"null","","audio-keyboard-response","228","3521291","0.0-13.0-0.44","l","06","Sounds/gun_sound.wav","null","1","","","","","","",""
"null","","html-keyboard-response","229","3522287","0.0-13.0-1.44","l","06","<p style=""font-size: 48px;"">+</p>","null","1","","","","","","",""
"678.6950000096112","","image-keyboard-response","230","3522966","0.0-13.0-2.44","l","06","Images/gun_cartoon.png","76","1","1581390239080","match","gun","gun","sound","test","true"
"null","","audio-keyboard-response","231","3524969","0.0-13.0-3.44","l","06","Sounds/correct.wav","null","1","","","","","","",""
"null","","audio-keyboard-response","232","3526271","0.0-13.0-0.45","l","06","Sounds/train_sound.wav","null","1","","","","","","",""
"null","","html-keyboard-response","233","3527270","0.0-13.0-1.45","l","06","<p style=""font-size: 48px;"">+</p>","null","1","","","","","","",""
"558.4599999710917","","image-keyboard-response","234","3527830","0.0-13.0-2.45","l","06","Images/train_1.png","76","1","1581390244063","match","train","train","sound","test","true"
"null","","audio-keyboard-response","235","3529844","0.0-13.0-3.45","l","06","Sounds/correct.wav","null","1","","","","","","",""
"null","","audio-keyboard-response","236","3530691","0.0-13.0-0.46","l","06","Sounds/cat_sound.wav","null","1","","","","","","",""
"null","","html-keyboard-response","237","3531687","0.0-13.0-1.46","l","06","<p style=""font-size: 48px;"">+</p>","null","1","","","","","","",""
"398.5149998916313","","image-keyboard-response","238","3532086","0.0-13.0-2.46","l","06","Images/cat_orig.png","76","1","1581390248480","match","cat","cat","sound","test","true"
"null","","audio-keyboard-response","239","3534092","0.0-13.0-3.46","l","06","Sounds/correct.wav","null","1","","","","","","",""
"null","","audio-keyboard-response","240","3535171","0.0-13.0-0.47","l","06","Sounds/car_label.wav","null","1","","","","","","",""
"null","","html-keyboard-response","241","3536170","0.0-13.0-1.47","l","06","<p style=""font-size: 48px;"">+</p>","null","1","","","","","","",""
"443.29999992623925","","image-keyboard-response","242","3536614","0.0-13.0-2.47","l","06","Images/car_2.png","76","1","1581390252963","match","car","car","label","test","true"
"null","","audio-keyboard-response","243","3538619","0.0-13.0-3.47","l","06","Sounds/correct.wav","null","1","","","","","","",""
"null","","audio-keyboard-response","244","3539311","0.0-13.0-0.48","l","06","Sounds/rooster_sound.wav","null","1","","","","","","",""
"null","","html-keyboard-response","245","3540304","0.0-13.0-1.48","l","06","<p style=""font-size: 48px;"">+</p>","null","1","","","","","","",""
"517.3699998995289","","image-keyboard-response","246","3540822","0.0-13.0-2.48","l","06","Images/gun_1.png","65","1","1581390257097","non-match","gun","rooster","sound","test","true"
"null","","audio-keyboard-response","247","3542830","0.0-13.0-3.48","l","06","Sounds/correct.wav","null","1","","","","","","",""
"null","","audio-keyboard-response","248","3543531","0.0-13.0-0.49","l","06","Sounds/whistle_sound.wav","null","1","","","","","","",""
"null","","html-keyboard-response","249","3544520","0.0-13.0-1.49","l","06","<p style=""font-size: 48px;"">+</p>","null","1","","","","","","",""
"861.1299999756739","","image-keyboard-response","250","3545382","0.0-13.0-2.49","l","06","Images/train_1.png","65","1","1581390261313","non-match","train","whistle","sound","test","true"
"null","","audio-keyboard-response","251","3547388","0.0-13.0-3.49","l","06","Sounds/correct.wav","null","1","","","","","","",""
"null","","audio-keyboard-response","252","3548671","0.0-13.0-0.50","l","06","Sounds/train_label.wav","null","1","","","","","","",""
"null","","html-keyboard-response","253","3549670","0.0-13.0-1.50","l","06","<p style=""font-size: 48px;"">+</p>","null","1","","","","","","",""
"447.09999999031425","","image-keyboard-response","254","3550118","0.0-13.0-2.50","l","06","Images/train_orig.png","76","1","1581390266463","match","train","train","label","test","true"
"null","","audio-keyboard-response","255","3552135","0.0-13.0-3.50","l","06","Sounds/correct.wav","null","1","","","","","","",""
"null","","audio-keyboard-response","256","3553391","0.0-13.0-0.51","l","06","Sounds/train_label.wav","null","1","","","","","","",""
"null","","html-keyboard-response","257","3554387","0.0-13.0-1.51","l","06","<p style=""font-size: 48px;"">+</p>","null","1","","","","","","",""
"594.1650000168011","","image-keyboard-response","258","3554982","0.0-13.0-2.51","l","06","Images/frog_2.png","65","1","1581390271180","non-match","frog","train","label","test","true"
"null","","audio-keyboard-response","259","3556992","0.0-13.0-3.51","l","06","Sounds/correct.wav","null","1","","","","","","",""
"null","","audio-keyboard-response","260","3557911","0.0-13.0-0.52","l","06","Sounds/frog_sound.wav","null","1","","","","","","",""
"null","","html-keyboard-response","261","3558904","0.0-13.0-1.52","l","06","<p style=""font-size: 48px;"">+</p>","null","1","","","","","","",""
"589.475000044331","","image-keyboard-response","262","3559494","0.0-13.0-2.52","l","06","Images/motorcycle_1.png","65","1","1581390275697","non-match","motorcycle","frog","sound","test","true"
"null","","audio-keyboard-response","263","3561508","0.0-13.0-3.52","l","06","Sounds/correct.wav","null","1","","","","","","",""
"null","","audio-keyboard-response","264","3562211","0.0-13.0-0.53","l","06","Sounds/rooster_label.wav","null","1","","","","","","",""
"null","","html-keyboard-response","265","3563204","0.0-13.0-1.53","l","06","<p style=""font-size: 48px;"">+</p>","null","1","","","","","","",""
"497.46500002220273","","image-keyboard-response","266","3563702","0.0-13.0-2.53","l","06","Images/dog_1.png","65","1","1581390279997","non-match","dog","rooster","label","test","true"
"null","","audio-keyboard-response","267","3565714","0.0-13.0-3.53","l","06","Sounds/correct.wav","null","1","","","","","","",""
"null","","audio-keyboard-response","268","3566731","0.0-13.0-0.54","l","06","Sounds/cow_sound.wav","null","1","","","","","","",""
"null","","html-keyboard-response","269","3567738","0.0-13.0-1.54","l","06","<p style=""font-size: 48px;"">+</p>","null","1","","","","","","",""
"652.2200000472367","","image-keyboard-response","270","3568391","0.0-13.0-2.54","l","06","Images/cow_2.png","76","1","1581390284531","match","cow","cow","sound","test","true"
"null","","audio-keyboard-response","271","3570404","0.0-13.0-3.54","l","06","Sounds/correct.wav","null","1","","","","","","",""
"null","","audio-keyboard-response","272","3571252","0.0-13.0-0.55","l","06","Sounds/cat_label.wav","null","1","","","","","","",""
"null","","html-keyboard-response","273","3572254","0.0-13.0-1.55","l","06","<p style=""font-size: 48px;"">+</p>","null","1","","","","","","",""
"535.4600000428036","","image-keyboard-response","274","3572791","0.0-13.0-2.55","l","06","Images/dog_cartoon.png","65","1","1581390289048","non-match","dog","cat","label","test","true"
"null","","audio-keyboard-response","275","3574797","0.0-13.0-3.55","l","06","Sounds/correct.wav","null","1","","","","","","",""
"null","","audio-keyboard-response","276","3575792","0.0-13.0-0.56","l","06","Sounds/cow_sound.wav","null","1","","","","","","",""
"null","","html-keyboard-response","277","3576788","0.0-13.0-1.56","l","06","<p style=""font-size: 48px;"">+</p>","null","1","","","","","","",""
"498.410000000149","","image-keyboard-response","278","3577287","0.0-13.0-2.56","l","06","Images/cow_3.png","65","1","1581390293581","match","cow","cow","sound","test","false"
"null","","audio-keyboard-response","279","3579293","0.0-13.0-3.56","l","06","Sounds/incorrect.wav","null","1","","","","","","",""
"null","","audio-keyboard-response","280","3580132","0.0-13.0-0.57","l","06","Sounds/cat_sound.wav","null","1","","","","","","",""
"null","","html-keyboard-response","281","3581121","0.0-13.0-1.57","l","06","<p style=""font-size: 48px;"">+</p>","null","1","","","","","","",""
"532.6849999837577","","image-keyboard-response","282","3581655","0.0-13.0-2.57","l","06","Images/cat_3.png","76","1","1581390297914","match","cat","cat","sound","test","true"
"null","","audio-keyboard-response","283","3583664","0.0-13.0-3.57","l","06","Sounds/correct.wav","null","1","","","","","","",""
"null","","audio-keyboard-response","284","3584472","0.0-13.0-0.58","l","06","Sounds/cat_label.wav","null","1","","","","","","",""
"null","","html-keyboard-response","285","3585471","0.0-13.0-1.58","l","06","<p style=""font-size: 48px;"">+</p>","null","1","","","","","","",""
"502.3700000019744","","image-keyboard-response","286","3585975","0.0-13.0-2.58","l","06","Images/cat_2.png","76","1","1581390302264","match","cat","cat","label","test","true"
"null","","audio-keyboard-response","287","3587981","0.0-13.0-3.58","l","06","Sounds/correct.wav","null","1","","","","","","",""
"null","","audio-keyboard-response","288","3588692","0.0-13.0-0.59","l","06","Sounds/dog_sound.wav","null","1","","","","","","",""
"null","","html-keyboard-response","289","3589688","0.0-13.0-1.59","l","06","<p style=""font-size: 48px;"">+</p>","null","1","","","","","","",""
"894.1049999557436","","image-keyboard-response","290","3590583","0.0-13.0-2.59","l","06","Images/cow_orig.png","65","1","1581390306481","non-match","cow","dog","sound","test","true"
"null","","audio-keyboard-response","291","3592587","0.0-13.0-3.59","l","06","Sounds/correct.wav","null","1","","","","","","",""
"null","","audio-keyboard-response","292","3593392","0.0-13.0-0.60","l","06","Sounds/cat_label.wav","null","1","","","","","","",""
"null","","html-keyboard-response","293","3594388","0.0-13.0-1.60","l","06","<p style=""font-size: 48px;"">+</p>","null","1","","","","","","",""
"721.919999923557","","image-keyboard-response","294","3595111","0.0-13.0-2.60","l","06","Images/gun_cartoon.png","65","1","1581390311181","non-match","gun","cat","label","test","true"
"null","","audio-keyboard-response","295","3597115","0.0-13.0-3.60","l","06","Sounds/correct.wav","null","1","","","","","","",""
"null","","audio-keyboard-response","296","3597772","0.0-13.0-0.61","l","06","Sounds/dog_label.wav","null","1","","","","","","",""
"null","","html-keyboard-response","297","3598771","0.0-13.0-1.61","l","06","<p style=""font-size: 48px;"">+</p>","null","1","","","","","","",""
"482.52000007778406","","image-keyboard-response","298","3599255","0.0-13.0-2.61","l","06","Images/dog_3.png","76","1","1581390315564","match","dog","dog","label","test","true"
"null","","audio-keyboard-response","299","3601267","0.0-13.0-3.61","l","06","Sounds/correct.wav","null","1","","","","","","",""
"null","","audio-keyboard-response","300","3602172","0.0-13.0-0.62","l","06","Sounds/frog_sound.wav","null","1","","","","","","",""
"null","","html-keyboard-response","301","3603171","0.0-13.0-1.62","l","06","<p style=""font-size: 48px;"">+</p>","null","1","","","","","","",""
"546.695000026375","","image-keyboard-response","302","3603719","0.0-13.0-2.62","l","06","Images/gun_2.png","65","1","1581390319964","non-match","gun","frog","sound","test","true"
"null","","audio-keyboard-response","303","3605731","0.0-13.0-3.62","l","06","Sounds/correct.wav","null","1","","","","","","",""
"null","","audio-keyboard-response","304","3606432","0.0-13.0-0.63","l","06","Sounds/rooster_label.wav","null","1","","","","","","",""
"null","","html-keyboard-response","305","3607421","0.0-13.0-1.63","l","06","<p style=""font-size: 48px;"">+</p>","null","1","","","","","","",""
"936.8299999041483","","image-keyboard-response","306","3608359","0.0-13.0-2.63","l","06","Images/train_2.png","65","1","1581390324214","non-match","train","rooster","label","test","true"
"null","","audio-keyboard-response","307","3610367","0.0-13.0-3.63","l","06","Sounds/correct.wav","null","1","","","","","","",""
"null","","audio-keyboard-response","308","3611492","0.0-13.0-0.64","l","06","Sounds/motorcycle_sound.wav","null","1","","","","","","",""
"null","","html-keyboard-response","309","3612488","0.0-13.0-1.64","l","06","<p style=""font-size: 48px;"">+</p>","null","1","","","","","","",""
"525.6949999602512","","image-keyboard-response","310","3613015","0.0-13.0-2.64","l","06","Images/train_cartoon.png","65","1","1581390329281","non-match","train","motorcycle","sound","test","true"
"null","","audio-keyboard-response","311","3615032","0.0-13.0-3.64","l","06","Sounds/correct.wav","null","1","","","","","","",""
"null","","audio-keyboard-response","312","3615932","0.0-13.0-0.65","l","06","Sounds/frog_label.wav","null","1","","","","","","",""
"null","","html-keyboard-response","313","3616922","0.0-13.0-1.65","l","06","<p style=""font-size: 48px;"">+</p>","null","1","","","","","","",""
"412.4699999811128","","image-keyboard-response","314","3617335","0.0-13.0-2.65","l","06","Images/frog_cartoon.png","76","1","1581390333715","match","frog","frog","label","test","true"
"null","","audio-keyboard-response","315","3619341","0.0-13.0-3.65","l","06","Sounds/correct.wav","null","1","","","","","","",""
"null","","audio-keyboard-response","316","3620412","0.0-13.0-0.66","l","06","Sounds/car_label.wav","null","1","","","","","","",""
"null","","html-keyboard-response","317","3621405","0.0-13.0-1.66","l","06","<p style=""font-size: 48px;"">+</p>","null","1","","","","","","",""
"392.83999998588115","","image-keyboard-response","318","3621799","0.0-13.0-2.66","l","06","Images/car_1.png","76","1","1581390338198","match","car","car","label","test","true"
"null","","audio-keyboard-response","319","3623809","0.0-13.0-3.66","l","06","Sounds/correct.wav","null","1","","","","","","",""
"null","","audio-keyboard-response","320","3624492","0.0-13.0-0.67","l","06","Sounds/rooster_label.wav","null","1","","","","","","",""
"null","","html-keyboard-response","321","3625488","0.0-13.0-1.67","l","06","<p style=""font-size: 48px;"">+</p>","null","1","","","","","","",""
"629.4449999695644","","image-keyboard-response","322","3626119","0.0-13.0-2.67","l","06","Images/rooster_2.png","76","1","1581390342281","match","rooster","rooster","label","test","true"
"null","","audio-keyboard-response","323","3628127","0.0-13.0-3.67","l","06","Sounds/correct.wav","null","1","","","","","","",""
"null","","audio-keyboard-response","324","3629212","0.0-13.0-0.68","l","06","Sounds/car_sound.wav","null","1","","","","","","",""
"null","","html-keyboard-response","325","3630205","0.0-13.0-1.68","l","06","<p style=""font-size: 48px;"">+</p>","null","1","","","","","","",""
"440.92000008095056","","image-keyboard-response","326","3630647","0.0-13.0-2.68","l","06","Images/cat_cartoon.png","65","1","1581390346998","non-match","cat","car","sound","test","true"
"null","","audio-keyboard-response","327","3632655","0.0-13.0-3.68","l","06","Sounds/correct.wav","null","1","","","","","","",""
"null","","audio-keyboard-response","328","3633232","0.0-13.0-0.69","l","06","Sounds/gun_sound.wav","null","1","","","","","","",""
"null","","html-keyboard-response","329","3634222","0.0-13.0-1.69","l","06","<p style=""font-size: 48px;"">+</p>","null","1","","","","","","",""
"392.0899999793619","","image-keyboard-response","330","3634615","0.0-13.0-2.69","l","06","Images/gun_orig.png","76","1","1581390351015","match","gun","gun","sound","test","true"
"null","","audio-keyboard-response","331","3636625","0.0-13.0-3.69","l","06","Sounds/correct.wav","null","1","","","","","","",""
"null","","audio-keyboard-response","332","3637632","0.0-13.0-0.70","l","06","Sounds/cow_label.wav","null","1","","","","","","",""
"null","","html-keyboard-response","333","3638622","0.0-13.0-1.70","l","06","<p style=""font-size: 48px;"">+</p>","null","1","","","","","","",""
"407.9599999822676","","image-keyboard-response","334","3639031","0.0-13.0-2.70","l","06","Images/cow_cartoon.png","76","1","1581390355415","match","cow","cow","label","test","true"
"null","","audio-keyboard-response","335","3641041","0.0-13.0-3.70","l","06","Sounds/correct.wav","null","1","","","","","","",""
"null","","audio-keyboard-response","336","3641732","0.0-13.0-0.71","l","06","Sounds/whistle_label.wav","null","1","","","","","","",""
"null","","html-keyboard-response","337","3642722","0.0-13.0-1.71","l","06","<p style=""font-size: 48px;"">+</p>","null","1","","","","","","",""
"484.03499997220933","","image-keyboard-response","338","3643207","0.0-13.0-2.71","l","06","Images/dog_3.png","65","1","1581390359515","non-match","dog","whistle","label","test","true"
"null","","audio-keyboard-response","339","3645217","0.0-13.0-3.71","l","06","Sounds/correct.wav","null","1","","","","","","",""
"null","","audio-keyboard-response","340","3645912","0.0-13.0-0.72","l","06","Sounds/rooster_sound.wav","null","1","","","","","","",""
"null","","html-keyboard-response","341","3646906","0.0-13.0-1.72","l","06","<p style=""font-size: 48px;"">+</p>","null","1","","","","","","",""
"492.5150000490248","","image-keyboard-response","342","3647399","0.0-13.0-2.72","l","06","Images/rooster_1.png","76","1","1581390363699","match","rooster","rooster","sound","test","true"
"null","","audio-keyboard-response","343","3649416","0.0-13.0-3.72","l","06","Sounds/correct.wav","null","1","","","","","","",""
"null","","audio-keyboard-response","344","3649992","0.0-13.0-0.73","l","06","Sounds/gun_label.wav","null","1","","","","","","",""
"null","","html-keyboard-response","345","3650989","0.0-13.0-1.73","l","06","<p style=""font-size: 48px;"">+</p>","null","1","","","","","","",""
"521.1200000485405","","image-keyboard-response","346","3651511","0.0-13.0-2.73","l","06","Images/gun_1.png","76","1","1581390367782","match","gun","gun","label","test","true"
"null","","audio-keyboard-response","347","3653515","0.0-13.0-3.73","l","06","Sounds/correct.wav","null","1","","","","","","",""
"null","","audio-keyboard-response","348","3654592","0.0-13.0-0.74","l","06","Sounds/car_sound.wav","null","1","","","","","","",""
"null","","html-keyboard-response","349","3655589","0.0-13.0-1.74","l","06","<p style=""font-size: 48px;"">+</p>","null","1","","","","","","",""
"656.5849999897182","","image-keyboard-response","350","3656247","0.0-13.0-2.74","l","06","Images/car_orig.png","76","1","1581390372382","match","car","car","sound","test","true"
"null","","audio-keyboard-response","351","3658256","0.0-13.0-3.74","l","06","Sounds/correct.wav","null","1","","","","","","",""
"null","","audio-keyboard-response","352","3659552","0.0-13.0-0.75","l","06","Sounds/train_sound.wav","null","1","","","","","","",""
"null","","html-keyboard-response","353","3660556","0.0-13.0-1.75","l","06","<p style=""font-size: 48px;"">+</p>","null","1","","","","","","",""
"394.4099999498576","","image-keyboard-response","354","3660951","0.0-13.0-2.75","l","06","Images/rooster_cartoon.png","65","1","1581390377349","non-match","rooster","train","sound","test","true"
"null","","audio-keyboard-response","355","3662957","0.0-13.0-3.75","l","06","Sounds/correct.wav","null","1","","","","","","",""
"null","","audio-keyboard-response","356","3663612","0.0-13.0-0.76","l","06","Sounds/dog_label.wav","null","1","","","","","","",""
"null","","html-keyboard-response","357","3664606","0.0-13.0-1.76","l","06","<p style=""font-size: 48px;"">+</p>","null","1","","","","","","",""
"488.77499997615814","","image-keyboard-response","358","3665096","0.0-13.0-2.76","l","06","Images/dog_1.png","76","1","1581390381399","match","dog","dog","label","test","true"
"null","","audio-keyboard-response","359","3667100","0.0-13.0-3.76","l","06","Sounds/correct.wav","null","1","","","","","","",""
"null","","audio-keyboard-response","360","3668212","0.0-13.0-0.77","l","06","Sounds/motorcycle_sound.wav","null","1","","","","","","",""
"null","","html-keyboard-response","361","3669206","0.0-13.0-1.77","l","06","<p style=""font-size: 48px;"">+</p>","null","1","","","","","","",""
"608.6050000740215","","image-keyboard-response","362","3669815","0.0-13.0-2.77","l","06","Images/car_2.png","76","1","1581390385999","non-match","car","motorcycle","sound","test","false"
"null","","audio-keyboard-response","363","3671826","0.0-13.0-3.77","l","06","Sounds/incorrect.wav","null","1","","","","","","",""
"null","","audio-keyboard-response","364","3672532","0.0-13.0-0.78","l","06","Sounds/dog_sound.wav","null","1","","","","","","",""
"null","","html-keyboard-response","365","3673523","0.0-13.0-1.78","l","06","<p style=""font-size: 48px;"">+</p>","null","1","","","","","","",""
"883.6799999698997","","image-keyboard-response","366","3674407","0.0-13.0-2.78","l","06","Images/car_1.png","65","1","1581390390316","non-match","car","dog","sound","test","true"
"null","","audio-keyboard-response","367","3676422","0.0-13.0-3.78","l","06","Sounds/correct.wav","null","1","","","","","","",""
"null","","audio-keyboard-response","368","3677512","0.0-13.0-0.79","l","06","Sounds/motorcycle_sound.wav","null","1","","","","","","",""
"null","","html-keyboard-response","369","3678506","0.0-13.0-1.79","l","06","<p style=""font-size: 48px;"">+</p>","null","1","","","","","","",""
"572.3099999595433","","image-keyboard-response","370","3679079","0.0-13.0-2.79","l","06","Images/dog_2.png","65","1","1581390395299","non-match","dog","motorcycle","sound","test","true"
"null","","audio-keyboard-response","371","3681095","0.0-13.0-3.79","l","06","Sounds/correct.wav","null","1","","","","","","",""
"null","","audio-keyboard-response","372","3682172","0.0-13.0-0.80","l","06","Sounds/car_sound.wav","null","1","","","","","","",""
"null","","html-keyboard-response","373","3683173","0.0-13.0-1.80","l","06","<p style=""font-size: 48px;"">+</p>","null","1","","","","","","",""
"721.8250000150874","","image-keyboard-response","374","3683895","0.0-13.0-2.80","l","06","Images/train_orig.png","65","1","1581390399966","non-match","train","car","sound","test","true"
"null","","audio-keyboard-response","375","3685900","0.0-13.0-3.80","l","06","Sounds/correct.wav","null","1","","","","","","",""
"null","","audio-keyboard-response","376","3687172","0.0-13.0-0.81","l","06","Sounds/train_label.wav","null","1","","","","","","",""
"null","","html-keyboard-response","377","3688173","0.0-13.0-1.81","l","06","<p style=""font-size: 48px;"">+</p>","null","1","","","","","","",""
"537.5749999657273","","image-keyboard-response","378","3688712","0.0-13.0-2.81","l","06","Images/train_2.png","76","1","1581390404966","match","train","train","label","test","true"
"null","","audio-keyboard-response","379","3690714","0.0-13.0-3.81","l","06","Sounds/correct.wav","null","1","","","","","","",""
"null","","audio-keyboard-response","380","3691733","0.0-13.0-0.82","l","06","Sounds/cow_sound.wav","null","1","","","","","","",""
"null","","html-keyboard-response","381","3692723","0.0-13.0-1.82","l","06","<p style=""font-size: 48px;"">+</p>","null","1","","","","","","",""
"1027.5050000054762","","image-keyboard-response","382","3693752","0.0-13.0-2.82","l","06","Images/car_3.png","65","1","1581390409516","non-match","car","cow","sound","test","true"
"null","","audio-keyboard-response","383","3695763","0.0-13.0-3.82","l","06","Sounds/correct.wav","null","1","","","","","","",""
"null","","audio-keyboard-response","384","3696332","0.0-13.0-0.83","l","06","Sounds/gun_label.wav","null","1","","","","","","",""
"null","","html-keyboard-response","385","3697323","0.0-13.0-1.83","l","06","<p style=""font-size: 48px;"">+</p>","null","1","","","","","","",""
"491.5650000330061","","image-keyboard-response","386","3697816","0.0-13.0-2.83","l","06","Images/cow_2.png","65","1","1581390414116","non-match","cow","gun","label","test","true"
"null","","audio-keyboard-response","387","3699834","0.0-13.0-3.83","l","06","Sounds/correct.wav","null","1","","","","","","",""
"null","","audio-keyboard-response","388","3700733","0.0-13.0-0.84","l","06","Sounds/frog_label.wav","null","1","","","","","","",""
"null","","html-keyboard-response","389","3701723","0.0-13.0-1.84","l","06","<p style=""font-size: 48px;"">+</p>","null","1","","","","","","",""
"507.2849999414757","","image-keyboard-response","390","3702232","0.0-13.0-2.84","l","06","Images/frog_3.png","76","1","1581390418516","match","frog","frog","label","test","true"
"null","","audio-keyboard-response","391","3704249","0.0-13.0-3.84","l","06","Sounds/correct.wav","null","1","","","","","","",""
"null","","audio-keyboard-response","392","3705233","0.0-13.0-0.85","l","06","Sounds/cow_sound.wav","null","1","","","","","","",""
"null","","html-keyboard-response","393","3706223","0.0-13.0-1.85","l","06","<p style=""font-size: 48px;"">+</p>","null","1","","","","","","",""
"581.0949999140576","","image-keyboard-response","394","3706808","0.0-13.0-2.85","l","06","Images/rooster_3.png","65","1","1581390423017","non-match","rooster","cow","sound","test","true"
"null","","audio-keyboard-response","395","3708814","0.0-13.0-3.85","l","06","Sounds/correct.wav","null","1","","","","","","",""
"null","","audio-keyboard-response","396","3709373","0.0-13.0-0.86","l","06","Sounds/gun_label.wav","null","1","","","","","","",""
"null","","html-keyboard-response","397","3710390","0.0-13.0-1.86","l","06","<p style=""font-size: 48px;"">+</p>","null","1","","","","","","",""
"433.40999993961304","","image-keyboard-response","398","3710824","0.0-13.0-2.86","l","06","Images/motorcycle_cartoon.png","65","1","1581390427183","non-match","motorcycle","gun","label","test","true"
"null","","audio-keyboard-response","399","3712837","0.0-13.0-3.86","l","06","Sounds/correct.wav","null","1","","","","","","",""
"null","","audio-keyboard-response","400","3713753","0.0-13.0-0.87","l","06","Sounds/frog_sound.wav","null","1","","","","","","",""
"null","","html-keyboard-response","401","3714757","0.0-13.0-1.87","l","06","<p style=""font-size: 48px;"">+</p>","null","1","","","","","","",""
"417.64499992132187","","image-keyboard-response","402","3715176","0.0-13.0-2.87","l","06","Images/frog_orig.png","76","1","1581390431550","match","frog","frog","sound","test","true"
"null","","audio-keyboard-response","403","3717178","0.0-13.0-3.87","l","06","Sounds/correct.wav","null","1","","","","","","",""
"null","","audio-keyboard-response","404","3718293","0.0-13.0-0.88","l","06","Sounds/motorcycle_sound.wav","null","1","","","","","","",""
"null","","html-keyboard-response","405","3719290","0.0-13.0-1.88","l","06","<p style=""font-size: 48px;"">+</p>","null","1","","","","","","",""
"476.49999998975545","","image-keyboard-response","406","3719768","0.0-13.0-2.88","l","06","Images/whistle_cartoon.png","65","1","1581390436083","non-match","whistle","motorcycle","sound","test","true"
"null","","audio-keyboard-response","407","3721785","0.0-13.0-3.88","l","06","Sounds/correct.wav","null","1","","","","","","",""
"null","","audio-keyboard-response","408","3722472","0.0-13.0-0.89","l","06","Sounds/whistle_label.wav","null","1","","","","","","",""
"null","","html-keyboard-response","409","3723490","0.0-13.0-1.89","l","06","<p style=""font-size: 48px;"">+</p>","null","1","","","","","","",""
"580.8049999177456","","image-keyboard-response","410","3724072","0.0-13.0-2.89","l","06","Images/whistle_orig.png","76","1","1581390440284","match","whistle","whistle","label","test","true"
"null","","audio-keyboard-response","411","3726080","0.0-13.0-3.89","l","06","Sounds/correct.wav","null","1","","","","","","",""
"null","","audio-keyboard-response","412","3726773","0.0-13.0-0.90","l","06","Sounds/rooster_sound.wav","null","1","","","","","","",""
"null","","html-keyboard-response","413","3727790","0.0-13.0-1.90","l","06","<p style=""font-size: 48px;"">+</p>","null","1","","","","","","",""
"392.5150000723079","","image-keyboard-response","414","3728184","0.0-13.0-2.90","l","06","Images/rooster_orig.png","76","1","1581390444583","match","rooster","rooster","sound","test","true"
"null","","audio-keyboard-response","415","3730191","0.0-13.0-3.90","l","06","Sounds/correct.wav","null","1","","","","","","",""
"null","","audio-keyboard-response","416","3730873","0.0-13.0-0.91","l","06","Sounds/whistle_label.wav","null","1","","","","","","",""
"null","","html-keyboard-response","417","3731890","0.0-13.0-1.91","l","06","<p style=""font-size: 48px;"">+</p>","null","1","","","","","","",""
"1156.3099999912083","","image-keyboard-response","418","3733048","0.0-13.0-2.91","l","06","Images/whistle_3.png","76","1","1581390448683","match","whistle","whistle","label","test","true"
"null","","audio-keyboard-response","419","3735053","0.0-13.0-3.91","l","06","Sounds/correct.wav","null","1","","","","","","",""
"null","","audio-keyboard-response","420","3735733","0.0-13.0-0.92","l","06","Sounds/whistle_label.wav","null","1","","","","","","",""
"null","","html-keyboard-response","421","3736724","0.0-13.0-1.92","l","06","<p style=""font-size: 48px;"">+</p>","null","1","","","","","","",""
"419.1450000507757","","image-keyboard-response","422","3737144","0.0-13.0-2.92","l","06","Images/frog_cartoon.png","65","1","1581390453517","non-match","frog","whistle","label","test","true"
"null","","audio-keyboard-response","423","3739157","0.0-13.0-3.92","l","06","Sounds/correct.wav","null","1","","","","","","",""
"null","","audio-keyboard-response","424","3740273","0.0-13.0-0.93","l","06","Sounds/motorcycle_sound.wav","null","1","","","","","","",""
"null","","html-keyboard-response","425","3741291","0.0-13.0-1.93","l","06","<p style=""font-size: 48px;"">+</p>","null","1","","","","","","",""
"634.9250000203028","","image-keyboard-response","426","3741928","0.0-13.0-2.93","l","06","Images/motorcycle_1.png","76","1","1581390458084","match","motorcycle","motorcycle","sound","test","true"
"null","","audio-keyboard-response","427","3743940","0.0-13.0-3.93","l","06","Sounds/correct.wav","null","1","","","","","","",""
"null","","audio-keyboard-response","428","3745013","0.0-13.0-0.94","l","06","Sounds/car_sound.wav","null","1","","","","","","",""
"null","","html-keyboard-response","429","3746007","0.0-13.0-1.94","l","06","<p style=""font-size: 48px;"">+</p>","null","1","","","","","","",""
"639.7550000110641","","image-keyboard-response","430","3746648","0.0-13.0-2.94","l","06","Images/car_cartoon.png","76","1","1581390462800","match","car","car","sound","test","true"
"null","","audio-keyboard-response","431","3748658","0.0-13.0-3.94","l","06","Sounds/correct.wav","null","1","","","","","","",""
"null","","audio-keyboard-response","432","3749493","0.0-13.0-0.95","l","06","Sounds/cat_label.wav","null","1","","","","","","",""
"null","","html-keyboard-response","433","3750491","0.0-13.0-1.95","l","06","<p style=""font-size: 48px;"">+</p>","null","1","","","","","","",""
"619.109999970533","","image-keyboard-response","434","3751112","0.0-13.0-2.95","l","06","Images/cow_3.png","65","1","1581390467284","non-match","cow","cat","label","test","true"
"null","","audio-keyboard-response","435","3753126","0.0-13.0-3.95","l","06","Sounds/correct.wav","null","1","","","","","","",""
"null","","audio-keyboard-response","436","3753813","0.0-13.0-0.96","l","06","Sounds/rooster_label.wav","null","1","","","","","","",""
"null","","html-keyboard-response","437","3754807","0.0-13.0-1.96","l","06","<p style=""font-size: 48px;"">+</p>","null","1","","","","","","",""
"527.5450000772253","","image-keyboard-response","438","3755336","0.0-13.0-2.96","l","06","Images/whistle_1.png","65","1","1581390471600","non-match","whistle","rooster","label","test","true"
"null","","audio-keyboard-response","439","3757348","0.0-13.0-3.96","l","06","Sounds/correct.wav","null","1","","","","","","",""
"null","","audio-keyboard-response","440","3757933","0.0-13.0-0.97","l","06","Sounds/gun_sound.wav","null","1","","","","","","",""
"null","","html-keyboard-response","441","3758924","0.0-13.0-1.97","l","06","<p style=""font-size: 48px;"">+</p>","null","1","","","","","","",""
"650.7899999851361","","image-keyboard-response","442","3759576","0.0-13.0-2.97","l","06","Images/whistle_3.png","65","1","1581390475717","non-match","whistle","gun","sound","test","true"
"null","","audio-keyboard-response","443","3761591","0.0-13.0-3.97","l","06","Sounds/correct.wav","null","1","","","","","","",""
"null","","audio-keyboard-response","444","3762893","0.0-13.0-0.98","l","06","Sounds/train_sound.wav","null","1","","","","","","",""
"null","","html-keyboard-response","445","3763891","0.0-13.0-1.98","l","06","<p style=""font-size: 48px;"">+</p>","null","1","","","","","","",""
"595.6500000320375","","image-keyboard-response","446","3764488","0.0-13.0-2.98","l","06","Images/whistle_2.png","65","1","1581390480684","non-match","whistle","train","sound","test","true"
"null","","audio-keyboard-response","447","3766495","0.0-13.0-3.98","l","06","Sounds/correct.wav","null","1","","","","","","",""
"null","","audio-keyboard-response","448","3767193","0.0-13.0-0.99","l","06","Sounds/rooster_sound.wav","null","1","","","","","","",""
"null","","html-keyboard-response","449","3768191","0.0-13.0-1.99","l","06","<p style=""font-size: 48px;"">+</p>","null","1","","","","","","",""
"663.994999951683","","image-keyboard-response","450","3768856","0.0-13.0-2.99","l","06","Images/rooster_cartoon.png","76","1","1581390484984","match","rooster","rooster","sound","test","true"
"null","","audio-keyboard-response","451","3770864","0.0-13.0-3.99","l","06","Sounds/correct.wav","null","1","","","","","","",""
"10551.68999999296","","html-keyboard-response","452","3781416","0.0-14.0","l","06","<p>Please take this opportunity to rest your eyes before proceeding.</p><p>When ready, press the enter key to continue to the next set of trials.</p>","13","","","","","","","",""
"null","","audio-keyboard-response","453","3784042","0.0-15.0-0.0","l","06","Sounds/dog_label.wav","null","2","","","","","","",""
"null","","html-keyboard-response","454","3785041","0.0-15.0-1.0","l","06","<p style=""font-size: 48px;"">+</p>","null","2","","","","","","",""
"501.79500004742295","","image-keyboard-response","455","3785544","0.0-15.0-2.0","l","06","Images/dog_orig.png","76","2","1581390501834","match","dog","dog","label","test","true"
"null","","audio-keyboard-response","456","3787552","0.0-15.0-3.0","l","06","Sounds/correct.wav","null","2","","","","","","",""
"null","","audio-keyboard-response","457","3788242","0.0-15.0-0.1","l","06","Sounds/whistle_label.wav","null","2","","","","","","",""
"null","","html-keyboard-response","458","3789241","0.0-15.0-1.1","l","06","<p style=""font-size: 48px;"">+</p>","null","2","","","","","","",""
"669.7200000053272","","image-keyboard-response","459","3789912","0.0-15.0-2.1","l","06","Images/motorcycle_3.png","65","2","1581390506034","non-match","motorcycle","whistle","label","test","true"
"null","","audio-keyboard-response","460","3791922","0.0-15.0-3.1","l","06","Sounds/correct.wav","null","2","","","","","","",""
"null","","audio-keyboard-response","461","3792622","0.0-15.0-0.2","l","06","Sounds/rooster_sound.wav","null","2","","","","","","",""
"null","","html-keyboard-response","462","3793624","0.0-15.0-1.2","l","06","<p style=""font-size: 48px;"">+</p>","null","2","","","","","","",""
"558.725000009872","","image-keyboard-response","463","3794184","0.0-15.0-2.2","l","06","Images/cow_orig.png","65","2","1581390510418","non-match","cow","rooster","sound","test","true"
"null","","audio-keyboard-response","464","3796198","0.0-15.0-3.2","l","06","Sounds/correct.wav","null","2","","","","","","",""
"null","","audio-keyboard-response","465","3797102","0.0-15.0-0.3","l","06","Sounds/frog_label.wav","null","2","","","","","","",""
"null","","html-keyboard-response","466","3798091","0.0-15.0-1.3","l","06","<p style=""font-size: 48px;"">+</p>","null","2","","","","","","",""
"635.9149999916553","","image-keyboard-response","467","3798728","0.0-15.0-2.3","l","06","Images/frog_1.png","65","2","1581390514884","match","frog","frog","label","test","false"
"null","","audio-keyboard-response","468","3800742","0.0-15.0-3.3","l","06","Sounds/incorrect.wav","null","2","","","","","","",""
"null","","audio-keyboard-response","469","3801582","0.0-15.0-0.4","l","06","Sounds/cat_label.wav","null","2","","","","","","",""
"null","","html-keyboard-response","470","3802575","0.0-15.0-1.4","l","06","<p style=""font-size: 48px;"">+</p>","null","2","","","","","","",""
"792.3799999989569","","image-keyboard-response","471","3803368","0.0-15.0-2.4","l","06","Images/frog_orig.png","65","2","1581390519368","non-match","frog","cat","label","test","true"
"null","","audio-keyboard-response","472","3805383","0.0-15.0-3.4","l","06","Sounds/correct.wav","null","2","","","","","","",""
"null","","audio-keyboard-response","473","3806222","0.0-15.0-0.5","l","06","Sounds/cat_sound.wav","null","2","","","","","","",""
"null","","html-keyboard-response","474","3807225","0.0-15.0-1.5","l","06","<p style=""font-size: 48px;"">+</p>","null","2","","","","","","",""
"1117.3949999501929","","image-keyboard-response","475","3808344","0.0-15.0-2.5","l","06","Images/motorcycle_1.png","65","2","1581390524018","non-match","motorcycle","cat","sound","test","true"
"null","","audio-keyboard-response","476","3810356","0.0-15.0-3.5","l","06","Sounds/correct.wav","null","2","","","","","","",""
"null","","audio-keyboard-response","477","3811223","0.0-15.0-0.6","l","06","Sounds/frog_label.wav","null","2","","","","","","",""
"null","","html-keyboard-response","478","3812225","0.0-15.0-1.6","l","06","<p style=""font-size: 48px;"">+</p>","null","2","","","","","","",""
"534.319999977015","","image-keyboard-response","479","3812760","0.0-15.0-2.6","l","06","Images/rooster_2.png","65","2","1581390529018","non-match","rooster","frog","label","test","true"
"null","","audio-keyboard-response","480","3814769","0.0-15.0-3.6","l","06","Sounds/correct.wav","null","2","","","","","","",""
"null","","audio-keyboard-response","481","3815843","0.0-15.0-0.7","l","06","Sounds/car_label.wav","null","2","","","","","","",""
"null","","html-keyboard-response","482","3816842","0.0-15.0-1.7","l","06","<p style=""font-size: 48px;"">+</p>","null","2","","","","","","",""
"829.509999952279","","image-keyboard-response","483","3817672","0.0-15.0-2.7","l","06","Images/train_3.png","65","2","1581390533635","non-match","train","car","label","test","true"
"null","","audio-keyboard-response","484","3819678","0.0-15.0-3.7","l","06","Sounds/correct.wav","null","2","","","","","","",""
"null","","audio-keyboard-response","485","3820583","0.0-15.0-0.8","l","06","Sounds/frog_sound.wav","null","2","","","","","","",""
"null","","html-keyboard-response","486","3821575","0.0-15.0-1.8","l","06","<p style=""font-size: 48px;"">+</p>","null","2","","","","","","",""
"608.3349999971688","","image-keyboard-response","487","3822185","0.0-15.0-2.8","l","06","Images/dog_cartoon.png","65","2","1581390538368","non-match","dog","frog","sound","test","true"
"null","","audio-keyboard-response","488","3824195","0.0-15.0-3.8","l","06","Sounds/correct.wav","null","2","","","","","","",""
"null","","audio-keyboard-response","489","3824783","0.0-15.0-0.9","l","06","Sounds/gun_sound.wav","null","2","","","","","","",""
"null","","html-keyboard-response","490","3825775","0.0-15.0-1.9","l","06","<p style=""font-size: 48px;"">+</p>","null","2","","","","","","",""
"471.93500003777444","","image-keyboard-response","491","3826248","0.0-15.0-2.9","l","06","Images/frog_1.png","65","2","1581390542568","non-match","frog","gun","sound","test","true"
"null","","audio-keyboard-response","492","3828255","0.0-15.0-3.9","l","06","Sounds/correct.wav","null","2","","","","","","",""
"null","","audio-keyboard-response","493","3829143","0.0-15.0-0.10","l","06","Sounds/frog_label.wav","null","2","","","","","","",""
"null","","html-keyboard-response","494","3830142","0.0-15.0-1.10","l","06","<p style=""font-size: 48px;"">+</p>","null","2","","","","","","",""
"505.35500003024936","","image-keyboard-response","495","3830648","0.0-15.0-2.10","l","06","Images/gun_2.png","65","2","1581390546935","non-match","gun","frog","label","test","true"
"null","","audio-keyboard-response","496","3832652","0.0-15.0-3.10","l","06","Sounds/correct.wav","null","2","","","","","","",""
"null","","audio-keyboard-response","497","3833943","0.0-15.0-0.11","l","06","Sounds/train_label.wav","null","2","","","","","","",""
"null","","html-keyboard-response","498","3834942","0.0-15.0-1.11","l","06","<p style=""font-size: 48px;"">+</p>","null","2","","","","","","",""
"425.675000064075","","image-keyboard-response","499","3835369","0.0-15.0-2.11","l","06","Images/train_orig.png","76","2","1581390551735","match","train","train","label","test","true"
"null","","audio-keyboard-response","500","3837375","0.0-15.0-3.11","l","06","Sounds/correct.wav","null","2","","","","","","",""
"null","","audio-keyboard-response","501","3838403","0.0-15.0-0.12","l","06","Sounds/cow_label.wav","null","2","","","","","","",""
"null","","html-keyboard-response","502","3839409","0.0-15.0-1.12","l","06","<p style=""font-size: 48px;"">+</p>","null","2","","","","","","",""
"486.5250000730157","","image-keyboard-response","503","3839896","0.0-15.0-2.12","l","06","Images/cow_cartoon.png","76","2","1581390556202","match","cow","cow","label","test","true"
"null","","audio-keyboard-response","504","3841902","0.0-15.0-3.12","l","06","Sounds/correct.wav","null","2","","","","","","",""
"null","","audio-keyboard-response","505","3842603","0.0-15.0-0.13","l","06","Sounds/rooster_label.wav","null","2","","","","","","",""
"null","","html-keyboard-response","506","3843592","0.0-15.0-1.13","l","06","<p style=""font-size: 48px;"">+</p>","null","2","","","","","","",""
"494.9849999975413","","image-keyboard-response","507","3844088","0.0-15.0-2.13","l","06","Images/cat_cartoon.png","65","2","1581390560385","non-match","cat","rooster","label","test","true"
"null","","audio-keyboard-response","508","3846103","0.0-15.0-3.13","l","06","Sounds/correct.wav","null","2","","","","","","",""
"null","","audio-keyboard-response","509","3847003","0.0-15.0-0.14","l","06","Sounds/frog_sound.wav","null","2","","","","","","",""
"null","","html-keyboard-response","510","3847992","0.0-15.0-1.14","l","06","<p style=""font-size: 48px;"">+</p>","null","2","","","","","","",""
"399.4650000240654","","image-keyboard-response","511","3848393","0.0-15.0-2.14","l","06","Images/frog_2.png","76","2","1581390564785","match","frog","frog","sound","test","true"
"null","","audio-keyboard-response","512","3850395","0.0-15.0-3.14","l","06","Sounds/correct.wav","null","2","","","","","","",""
"null","","audio-keyboard-response","513","3850983","0.0-15.0-0.15","l","06","Sounds/gun_sound.wav","null","2","","","","","","",""
"null","","html-keyboard-response","514","3851975","0.0-15.0-1.15","l","06","<p style=""font-size: 48px;"">+</p>","null","2","","","","","","",""
"447.8149999631569","","image-keyboard-response","515","3852424","0.0-15.0-2.15","l","06","Images/gun_3.png","76","2","1581390568769","match","gun","gun","sound","test","true"
"null","","audio-keyboard-response","516","3854439","0.0-15.0-3.15","l","06","Sounds/correct.wav","null","2","","","","","","",""
"null","","audio-keyboard-response","517","3855283","0.0-15.0-0.16","l","06","Sounds/cat_sound.wav","null","2","","","","","","",""
"null","","html-keyboard-response","518","3856276","0.0-15.0-1.16","l","06","<p style=""font-size: 48px;"">+</p>","null","2","","","","","","",""
"435.88000000454485","","image-keyboard-response","519","3856712","0.0-15.0-2.16","l","06","Images/cat_orig.png","76","2","1581390573069","match","cat","cat","sound","test","true"
"null","","audio-keyboard-response","520","3858727","0.0-15.0-3.16","l","06","Sounds/correct.wav","null","2","","","","","","",""
"null","","audio-keyboard-response","521","3859863","0.0-15.0-0.17","l","06","Sounds/motorcycle_label.wav","null","2","","","","","","",""
"null","","html-keyboard-response","522","3860859","0.0-15.0-1.17","l","06","<p style=""font-size: 48px;"">+</p>","null","2","","","","","","",""
"492.7200000965968","","image-keyboard-response","523","3861353","0.0-15.0-2.17","l","06","Images/motorcycle_cartoon.png","76","2","1581390577652","match","motorcycle","motorcycle","label","test","true"
"null","","audio-keyboard-response","524","3863369","0.0-15.0-3.17","l","06","Sounds/correct.wav","null","2","","","","","","",""
"null","","audio-keyboard-response","525","3864263","0.0-15.0-0.18","l","06","Sounds/frog_label.wav","null","2","","","","","","",""
"null","","html-keyboard-response","526","3865259","0.0-15.0-1.18","l","06","<p style=""font-size: 48px;"">+</p>","null","2","","","","","","",""
"459.18499992694706","","image-keyboard-response","527","3865720","0.0-15.0-2.18","l","06","Images/train_cartoon.png","65","2","1581390582052","non-match","train","frog","label","test","true"
"null","","audio-keyboard-response","528","3867723","0.0-15.0-3.18","l","06","Sounds/correct.wav","null","2","","","","","","",""
"null","","audio-keyboard-response","529","3869023","0.0-15.0-0.19","l","06","Sounds/train_label.wav","null","2","","","","","","",""
"null","","html-keyboard-response","530","3870026","0.0-15.0-1.19","l","06","<p style=""font-size: 48px;"">+</p>","null","2","","","","","","",""
"493.709999951534","","image-keyboard-response","531","3870521","0.0-15.0-2.19","l","06","Images/whistle_1.png","65","2","1581390586819","non-match","whistle","train","label","test","true"
"null","","audio-keyboard-response","532","3872538","0.0-15.0-3.19","l","06","Sounds/correct.wav","null","2","","","","","","",""
"null","","audio-keyboard-response","533","3873123","0.0-15.0-0.20","l","06","Sounds/gun_label.wav","null","2","","","","","","",""
"null","","html-keyboard-response","534","3874126","0.0-15.0-1.20","l","06","<p style=""font-size: 48px;"">+</p>","null","2","","","","","","",""
"473.7650000024587","","image-keyboard-response","535","3874601","0.0-15.0-2.20","l","06","Images/motorcycle_orig.png","65","2","1581390590919","non-match","motorcycle","gun","label","test","true"
"null","","audio-keyboard-response","536","3876606","0.0-15.0-3.20","l","06","Sounds/correct.wav","null","2","","","","","","",""
"null","","audio-keyboard-response","537","3877683","0.0-15.0-0.21","l","06","Sounds/car_sound.wav","null","2","","","","","","",""
"null","","html-keyboard-response","538","3878676","0.0-15.0-1.21","l","06","<p style=""font-size: 48px;"">+</p>","null","2","","","","","","",""
"419.5450000697747","","image-keyboard-response","539","3879097","0.0-15.0-2.21","l","06","Images/car_orig.png","76","2","1581390595469","match","car","car","sound","test","true"
"null","","audio-keyboard-response","540","3881110","0.0-15.0-3.21","l","06","Sounds/correct.wav","null","2","","","","","","",""
"null","","audio-keyboard-response","541","3882163","0.0-15.0-0.22","l","06","Sounds/car_sound.wav","null","2","","","","","","",""
"null","","html-keyboard-response","542","3883160","0.0-15.0-1.22","l","06","<p style=""font-size: 48px;"">+</p>","null","2","","","","","","",""
"352.62000001966953","","image-keyboard-response","543","3883513","0.0-15.0-2.22","l","06","Images/car_2.png","76","2","1581390599953","match","car","car","sound","test","true"
"null","","audio-keyboard-response","544","3885516","0.0-15.0-3.22","l","06","Sounds/correct.wav","null","2","","","","","","",""
"null","","audio-keyboard-response","545","3886783","0.0-15.0-0.23","l","06","Sounds/train_label.wav","null","2","","","","","","",""
"null","","html-keyboard-response","546","3887776","0.0-15.0-1.23","l","06","<p style=""font-size: 48px;"">+</p>","null","2","","","","","","",""
"502.915000077337","","image-keyboard-response","547","3888281","0.0-15.0-2.23","l","06","Images/train_3.png","76","2","1581390604569","match","train","train","label","test","true"
"null","","audio-keyboard-response","548","3890286","0.0-15.0-3.23","l","06","Sounds/correct.wav","null","2","","","","","","",""
"null","","audio-keyboard-response","549","3890943","0.0-15.0-0.24","l","06","Sounds/dog_label.wav","null","2","","","","","","",""
"null","","html-keyboard-response","550","3891943","0.0-15.0-1.24","l","06","<p style=""font-size: 48px;"">+</p>","null","2","","","","","","",""
"640.7899999758229","","image-keyboard-response","551","3892585","0.0-15.0-2.24","l","06","Images/cow_2.png","65","2","1581390608736","non-match","cow","dog","label","test","true"
"null","","audio-keyboard-response","552","3894593","0.0-15.0-3.24","l","06","Sounds/correct.wav","null","2","","","","","","",""
"null","","audio-keyboard-response","553","3895643","0.0-15.0-0.25","l","06","Sounds/car_sound.wav","null","2","","","","","","",""
"null","","html-keyboard-response","554","3896643","0.0-15.0-1.25","l","06","<p style=""font-size: 48px;"">+</p>","null","2","","","","","","",""
"388.8349999906495","","image-keyboard-response","555","3897033","0.0-15.0-2.25","l","06","Images/car_3.png","76","2","1581390613436","match","car","car","sound","test","true"
"null","","audio-keyboard-response","556","3899045","0.0-15.0-3.25","l","06","Sounds/correct.wav","null","2","","","","","","",""
"null","","audio-keyboard-response","557","3900063","0.0-15.0-0.26","l","06","Sounds/cow_sound.wav","null","2","","","","","","",""
"null","","html-keyboard-response","558","3901060","0.0-15.0-1.26","l","06","<p style=""font-size: 48px;"">+</p>","null","2","","","","","","",""
"596.1649999953806","","image-keyboard-response","559","3901657","0.0-15.0-2.26","l","06","Images/dog_1.png","65","2","1581390617853","non-match","dog","cow","sound","test","true"
"null","","audio-keyboard-response","560","3903664","0.0-15.0-3.26","l","06","Sounds/correct.wav","null","2","","","","","","",""
"null","","audio-keyboard-response","561","3904503","0.0-15.0-0.27","l","06","Sounds/cat_sound.wav","null","2","","","","","","",""
"null","","html-keyboard-response","562","3905493","0.0-15.0-1.27","l","06","<p style=""font-size: 48px;"">+</p>","null","2","","","","","","",""
"514.6099999547005","","image-keyboard-response","563","3906009","0.0-15.0-2.27","l","06","Images/car_cartoon.png","65","2","1581390622286","non-match","car","cat","sound","test","true"
"null","","audio-keyboard-response","564","3908020","0.0-15.0-3.27","l","06","Sounds/correct.wav","null","2","","","","","","",""
"null","","audio-keyboard-response","565","3908863","0.0-15.0-0.28","l","06","Sounds/cat_label.wav","null","2","","","","","","",""
"null","","html-keyboard-response","566","3909860","0.0-15.0-1.28","l","06","<p style=""font-size: 48px;"">+</p>","null","2","","","","","","",""
"724.045000039041","","image-keyboard-response","567","3910585","0.0-15.0-2.28","l","06","Images/cat_1.png","76","2","1581390626653","match","cat","cat","label","test","true"
"null","","audio-keyboard-response","568","3912588","0.0-15.0-3.28","l","06","Sounds/correct.wav","null","2","","","","","","",""
"null","","audio-keyboard-response","569","3913663","0.0-15.0-0.29","l","06","Sounds/car_label.wav","null","2","","","","","","",""
"null","","html-keyboard-response","570","3914660","0.0-15.0-1.29","l","06","<p style=""font-size: 48px;"">+</p>","null","2","","","","","","",""
"548.0100000277162","","image-keyboard-response","571","3915209","0.0-15.0-2.29","l","06","Images/cat_1.png","65","2","1581390631453","non-match","cat","car","label","test","true"
"null","","audio-keyboard-response","572","3917218","0.0-15.0-3.29","l","06","Sounds/correct.wav","null","2","","","","","","",""
"null","","audio-keyboard-response","573","3918363","0.0-15.0-0.30","l","06","Sounds/motorcycle_label.wav","null","2","","","","","","",""
"null","","html-keyboard-response","574","3919360","0.0-15.0-1.30","l","06","<p style=""font-size: 48px;"">+</p>","null","2","","","","","","",""
"503.7850000662729","","image-keyboard-response","575","3919865","0.0-15.0-2.30","l","06","Images/whistle_orig.png","65","2","1581390636153","non-match","whistle","motorcycle","label","test","true"
"null","","audio-keyboard-response","576","3921871","0.0-15.0-3.30","l","06","Sounds/correct.wav","null","2","","","","","","",""
"null","","audio-keyboard-response","577","3922563","0.0-15.0-0.31","l","06","Sounds/whistle_sound.wav","null","2","","","","","","",""
"null","","html-keyboard-response","578","3923560","0.0-15.0-1.31","l","06","<p style=""font-size: 48px;"">+</p>","null","2","","","","","","",""
"624.2299999576062","","image-keyboard-response","579","3924185","0.0-15.0-2.31","l","06","Images/whistle_3.png","76","2","1581390640353","match","whistle","whistle","sound","test","true"
"null","","audio-keyboard-response","580","3926195","0.0-15.0-3.31","l","06","Sounds/correct.wav","null","2","","","","","","",""
"null","","audio-keyboard-response","581","3927023","0.0-15.0-0.32","l","06","Sounds/cat_label.wav","null","2","","","","","","",""
"null","","html-keyboard-response","582","3928027","0.0-15.0-1.32","l","06","<p style=""font-size: 48px;"">+</p>","null","2","","","","","","",""
"556.71999999322","","image-keyboard-response","583","3928585","0.0-15.0-2.32","l","06","Images/rooster_3.png","65","2","1581390644820","non-match","rooster","cat","label","test","true"
"null","","audio-keyboard-response","584","3930600","0.0-15.0-3.32","l","06","Sounds/correct.wav","null","2","","","","","","",""
"null","","audio-keyboard-response","585","3931264","0.0-15.0-0.33","l","06","Sounds/whistle_sound.wav","null","2","","","","","","",""
"null","","html-keyboard-response","586","3932261","0.0-15.0-1.33","l","06","<p style=""font-size: 48px;"">+</p>","null","2","","","","","","",""
"419.579999987036","","image-keyboard-response","587","3932681","0.0-15.0-2.33","l","06","Images/whistle_2.png","76","2","1581390649054","match","whistle","whistle","sound","test","true"
"null","","audio-keyboard-response","588","3934694","0.0-15.0-3.33","l","06","Sounds/correct.wav","null","2","","","","","","",""
"null","","audio-keyboard-response","589","3935264","0.0-15.0-0.34","l","06","Sounds/gun_label.wav","null","2","","","","","","",""
"null","","html-keyboard-response","590","3936261","0.0-15.0-1.34","l","06","<p style=""font-size: 48px;"">+</p>","null","2","","","","","","",""
"499.45000000298023","","image-keyboard-response","591","3936761","0.0-15.0-2.34","l","06","Images/gun_cartoon.png","76","2","1581390653054","match","gun","gun","label","test","true"
"null","","audio-keyboard-response","592","3938771","0.0-15.0-3.34","l","06","Sounds/correct.wav","null","2","","","","","","",""
"null","","audio-keyboard-response","593","3939843","0.0-15.0-0.35","l","06","Sounds/car_sound.wav","null","2","","","","","","",""
"null","","html-keyboard-response","594","3940844","0.0-15.0-1.35","l","06","<p style=""font-size: 48px;"">+</p>","null","2","","","","","","",""
"620.4600000055507","","image-keyboard-response","595","3941466","0.0-15.0-2.35","l","06","Images/whistle_2.png","65","2","1581390657637","non-match","whistle","car","sound","test","true"
"null","","audio-keyboard-response","596","3943481","0.0-15.0-3.35","l","06","Sounds/correct.wav","null","2","","","","","","",""
"null","","audio-keyboard-response","597","3944784","0.0-15.0-0.36","l","06","Sounds/train_sound.wav","null","2","","","","","","",""
"null","","html-keyboard-response","598","3945778","0.0-15.0-1.36","l","06","<p style=""font-size: 48px;"">+</p>","null","2","","","","","","",""
"582.5349999358878","","image-keyboard-response","599","3946361","0.0-15.0-2.36","l","06","Images/train_1.png","76","2","1581390662571","match","train","train","sound","test","true"
"null","","audio-keyboard-response","600","3948367","0.0-15.0-3.36","l","06","Sounds/correct.wav","null","2","","","","","","",""
"null","","audio-keyboard-response","601","3949444","0.0-15.0-0.37","l","06","Sounds/car_label.wav","null","2","","","","","","",""
"null","","html-keyboard-response","602","3950444","0.0-15.0-1.37","l","06","<p style=""font-size: 48px;"">+</p>","null","2","","","","","","",""
"492.29999992530793","","image-keyboard-response","603","3950937","0.0-15.0-2.37","l","06","Images/car_cartoon.png","76","2","1581390667237","match","car","car","label","test","true"
"null","","audio-keyboard-response","604","3952947","0.0-15.0-3.37","l","06","Sounds/correct.wav","null","2","","","","","","",""
"null","","audio-keyboard-response","605","3954224","0.0-15.0-0.38","l","06","Sounds/train_sound.wav","null","2","","","","","","",""
"null","","html-keyboard-response","606","3955228","0.0-15.0-1.38","l","06","<p style=""font-size: 48px;"">+</p>","null","2","","","","","","",""
"380.87500003166497","","image-keyboard-response","607","3955610","0.0-15.0-2.38","l","06","Images/train_2.png","76","2","1581390672021","match","train","train","sound","test","true"
"null","","audio-keyboard-response","608","3957617","0.0-15.0-3.38","l","06","Sounds/correct.wav","null","2","","","","","","",""
"null","","audio-keyboard-response","609","3958324","0.0-15.0-0.39","l","06","Sounds/whistle_label.wav","null","2","","","","","","",""
"null","","html-keyboard-response","610","3959328","0.0-15.0-1.39","l","06","<p style=""font-size: 48px;"">+</p>","null","2","","","","","","",""
"408.5799999302253","","image-keyboard-response","611","3959737","0.0-15.0-2.39","l","06","Images/whistle_cartoon.png","76","2","1581390676121","match","whistle","whistle","label","test","true"
"null","","audio-keyboard-response","612","3961745","0.0-15.0-3.39","l","06","Sounds/correct.wav","null","2","","","","","","",""
"null","","audio-keyboard-response","613","3962764","0.0-15.0-0.40","l","06","Sounds/cow_label.wav","null","2","","","","","","",""
"null","","html-keyboard-response","614","3963761","0.0-15.0-1.40","l","06","<p style=""font-size: 48px;"">+</p>","null","2","","","","","","",""
"391.32499997504056","","image-keyboard-response","615","3964153","0.0-15.0-2.40","l","06","Images/cow_2.png","76","2","1581390680554","match","cow","cow","label","test","true"
"null","","audio-keyboard-response","616","3966164","0.0-15.0-3.40","l","06","Sounds/correct.wav","null","2","","","","","","",""
"null","","audio-keyboard-response","617","3967464","0.0-15.0-0.41","l","06","Sounds/train_label.wav","null","2","","","","","","",""
"null","","html-keyboard-response","618","3968462","0.0-15.0-1.41","l","06","<p style=""font-size: 48px;"">+</p>","null","2","","","","","","",""
"634.6899999771267","","image-keyboard-response","619","3969098","0.0-15.0-2.41","l","06","Images/cow_3.png","65","2","1581390685254","non-match","cow","train","label","test","true"
"null","","audio-keyboard-response","620","3971112","0.0-15.0-3.41","l","06","Sounds/correct.wav","null","2","","","","","","",""
"null","","audio-keyboard-response","621","3972224","0.0-15.0-0.42","l","06","Sounds/motorcycle_sound.wav","null","2","","","","","","",""
"null","","html-keyboard-response","622","3973228","0.0-15.0-1.42","l","06","<p style=""font-size: 48px;"">+</p>","null","2","","","","","","",""
"476.53000010177493","","image-keyboard-response","623","3973705","0.0-15.0-2.42","l","06","Images/train_orig.png","65","2","1581390690021","non-match","train","motorcycle","sound","test","true"
"null","","audio-keyboard-response","624","3975708","0.0-15.0-3.42","l","06","Sounds/correct.wav","null","2","","","","","","",""
"null","","audio-keyboard-response","625","3976544","0.0-15.0-0.43","l","06","Sounds/cat_sound.wav","null","2","","","","","","",""
"null","","html-keyboard-response","626","3977561","0.0-15.0-1.43","l","06","<p style=""font-size: 48px;"">+</p>","null","2","","","","","","",""
"431.11500004306436","","image-keyboard-response","627","3977993","0.0-15.0-2.43","l","06","Images/cat_3.png","76","2","1581390694354","match","cat","cat","sound","test","true"
"null","","audio-keyboard-response","628","3980001","0.0-15.0-3.43","l","06","Sounds/correct.wav","null","2","","","","","","",""
"null","","audio-keyboard-response","629","3980704","0.0-15.0-0.44","l","06","Sounds/whistle_label.wav","null","2","","","","","","",""
"null","","html-keyboard-response","630","3981695","0.0-15.0-1.44","l","06","<p style=""font-size: 48px;"">+</p>","null","2","","","","","","",""
"425.6250000325963","","image-keyboard-response","631","3982121","0.0-15.0-2.44","l","06","Images/whistle_1.png","76","2","1581390698488","match","whistle","whistle","label","test","true"
"null","","audio-keyboard-response","632","3984129","0.0-15.0-3.44","l","06","Sounds/correct.wav","null","2","","","","","","",""
"null","","audio-keyboard-response","633","3984944","0.0-15.0-0.45","l","06","Sounds/cat_sound.wav","null","2","","","","","","",""
"null","","html-keyboard-response","634","3985961","0.0-15.0-1.45","l","06","<p style=""font-size: 48px;"">+</p>","null","2","","","","","","",""
"414.76000007241964","","image-keyboard-response","635","3986377","0.0-15.0-2.45","l","06","Images/cat_cartoon.png","76","2","1581390702755","match","cat","cat","sound","test","true"
"null","","audio-keyboard-response","636","3988393","0.0-15.0-3.45","l","06","Sounds/correct.wav","null","2","","","","","","",""
"null","","audio-keyboard-response","637","3989404","0.0-15.0-0.46","l","06","Sounds/cow_sound.wav","null","2","","","","","","",""
"null","","html-keyboard-response","638","3990395","0.0-15.0-1.46","l","06","<p style=""font-size: 48px;"">+</p>","null","2","","","","","","",""
"429.7100000549108","","image-keyboard-response","639","3990826","0.0-15.0-2.46","l","06","Images/cow_orig.png","76","2","1581390707188","match","cow","cow","sound","test","true"
"null","","audio-keyboard-response","640","3992830","0.0-15.0-3.46","l","06","Sounds/correct.wav","null","2","","","","","","",""
"null","","audio-keyboard-response","641","3993844","0.0-15.0-0.47","l","06","Sounds/cow_label.wav","null","2","","","","","","",""
"null","","html-keyboard-response","642","3994862","0.0-15.0-1.47","l","06","<p style=""font-size: 48px;"">+</p>","null","2","","","","","","",""
"603.2999999588355","","image-keyboard-response","643","3995466","0.0-15.0-2.47","l","06","Images/cat_2.png","65","2","1581390711655","non-match","cat","cow","label","test","true"
"null","","audio-keyboard-response","644","3997480","0.0-15.0-3.47","l","06","Sounds/correct.wav","null","2","","","","","","",""
"null","","audio-keyboard-response","645","3998184","0.0-15.0-0.48","l","06","Sounds/rooster_label.wav","null","2","","","","","","",""
"null","","html-keyboard-response","646","3999179","0.0-15.0-1.48","l","06","<p style=""font-size: 48px;"">+</p>","null","2","","","","","","",""
"478.3649999881163","","image-keyboard-response","647","3999658","0.0-15.0-2.48","l","06","Images/train_1.png","65","2","1581390715972","non-match","train","rooster","label","test","true"
"null","","audio-keyboard-response","648","4001674","0.0-15.0-3.48","l","06","Sounds/correct.wav","null","2","","","","","","",""
"null","","audio-keyboard-response","649","4002244","0.0-15.0-0.49","l","06","Sounds/gun_label.wav","null","2","","","","","","",""
"null","","html-keyboard-response","650","4003262","0.0-15.0-1.49","l","06","<p style=""font-size: 48px;"">+</p>","null","2","","","","","","",""
"473.6999999731779","","image-keyboard-response","651","4003738","0.0-15.0-2.49","l","06","Images/gun_1.png","76","2","1581390720056","match","gun","gun","label","test","true"
"null","","audio-keyboard-response","652","4005756","0.0-15.0-3.49","l","06","Sounds/correct.wav","null","2","","","","","","",""
"null","","audio-keyboard-response","653","4006424","0.0-15.0-0.50","l","06","Sounds/rooster_label.wav","null","2","","","","","","",""
"null","","html-keyboard-response","654","4007429","0.0-15.0-1.50","l","06","<p style=""font-size: 48px;"">+</p>","null","2","","","","","","",""
"722.9700000025332","","image-keyboard-response","655","4008154","0.0-15.0-2.50","l","06","Images/whistle_cartoon.png","65","2","1581390724222","non-match","whistle","rooster","label","test","true"
"null","","audio-keyboard-response","656","4010171","0.0-15.0-3.50","l","06","Sounds/correct.wav","null","2","","","","","","",""
"null","","audio-keyboard-response","657","4011285","0.0-15.0-0.51","l","06","Sounds/motorcycle_sound.wav","null","2","","","","","","",""
