[{"rt":9064.400000002934,"responses":"{\"Q0\":\"12\"}","trial_type":"survey-text","trial_index":0,"time_elapsed":9108,"internal_node_id":"0.0-0.0","match_key":"a","participant_id":"12"},{"rt":32631.569999997737,"stimulus":"<p>Use KEYBOARD 2 (match LEFT)</p><p>Press MATCH to continue.</p>","key_press":65,"trial_type":"html-keyboard-response","trial_index":1,"time_elapsed":41749,"internal_node_id":"0.0-1.0","match_key":"a","participant_id":"12"},{"rt":2070364.2949999925,"stimulus":"<p>Welcome to the experiment.</p>","key_press":32,"trial_type":"html-keyboard-response","trial_index":2,"time_elapsed":2112292,"internal_node_id":"0.0-2.0","match_key":"a","participant_id":"12"},{"rt":10841.274999998976,"stimulus":"<p>Thank you for agreeing to participate in this study.</p><p>If during any part of the procedure you must stop for any reason, please inform the researcher that you do not wish to continue.</p>","key_press":32,"trial_type":"html-keyboard-response","trial_index":3,"time_elapsed":2123139,"internal_node_id":"0.0-3.0","match_key":"a","participant_id":"12"},{"rt":20398.784999997355,"stimulus":"<p>In this experiment, you will hear various words or sounds and see pictures of various animals and objects.</p><p>Most of the images will be of common everyday objects, such as cars, cats, cows, firearms, frogs, chickens, whistles, trains, motorcycles, and dogs.</p><p>Some of the images will be real-life stills, while others will be cartoons.</p>","key_press":32,"trial_type":"html-keyboard-response","trial_index":4,"time_elapsed":2143539,"internal_node_id":"0.0-4.0","match_key":"a","participant_id":"12"},{"rt":15990.655000001192,"stimulus":"<p>Sometimes, the word/sound will match the picture, for example you'll hear a meowing sound and see a cat.</p><p>Other times, the picture will not match the sound or word.</p><p>Your task is to decide as quickly as possible if the word/sound matches the picture or not. </p>","key_press":32,"trial_type":"html-keyboard-response","trial_index":5,"time_elapsed":2159531,"internal_node_id":"0.0-5.0","match_key":"a","participant_id":"12"},{"rt":14695.374999995343,"stimulus":"<p>For example, if you hear the word \"cat\" or hear a meowing sound, and then see a picture of a cat, you should press the MATCH key.</p><p> If the sound and image do not match, press the NOT-MATCH key to indicate that there is not a match.</p>","key_press":32,"trial_type":"html-keyboard-response","trial_index":6,"time_elapsed":2174220,"internal_node_id":"0.0-6.0","match_key":"a","participant_id":"12"},{"rt":7325.855000003241,"stimulus":"<p>If you make a mistake, you will hear a buzzing sound instead of a more pleasant sound.</p><p> Try to respond as quickly as possible, while making as few errors as possible. If you are making mistakes, you are probably rushing.</p>","key_press":32,"trial_type":"html-keyboard-response","trial_index":7,"time_elapsed":2181547,"internal_node_id":"0.0-7.0","match_key":"a","participant_id":"12"},{"rt":14943.969999992754,"stimulus":"<p>Please try to not move or blink your eyes during the presentation of the images. You can move and blink between images.</p><p>During the experiment there will be some breaks during which you can rest your eyes.</p>","key_press":32,"trial_type":"html-keyboard-response","trial_index":8,"time_elapsed":2196492,"internal_node_id":"0.0-8.0","match_key":"a","participant_id":"12"},{"rt":29359.075000000186,"stimulus":"<p>We will begin with 10 practice trials. Please let the experimenter know if you have any questions.</p>","key_press":32,"trial_type":"html-keyboard-response","trial_index":9,"time_elapsed":2225852,"internal_node_id":"0.0-9.0","match_key":"a","participant_id":"12"},{"rt":null,"stimulus":"Sounds/motorcycle_sound.wav","key_press":null,"block":0,"trial_type":"audio-keyboard-response","trial_index":10,"time_elapsed":2227057,"internal_node_id":"0.0-10.0-0.0","match_key":"a","participant_id":"12"},{"rt":null,"stimulus":"<p style=\"font-size: 48px;\">+</p>","key_press":null,"block":0,"trial_type":"html-keyboard-response","trial_index":11,"time_elapsed":2228050,"internal_node_id":"0.0-10.0-1.0","match_key":"a","participant_id":"12"},{"rt":1983.6700000013225,"stimulus":"Images/train_2.png","key_press":65,"stim_onset":1581648057004,"block":0,"match_type":"non-match","image_category":"train","sound_category":"motorcycle","audio_type":"sound","phase":"practice","trial_type":"image-keyboard-response","trial_index":12,"time_elapsed":2230035,"internal_node_id":"0.0-10.0-2.0","match_key":"a","participant_id":"12","correct":false},{"rt":null,"stimulus":"Sounds/incorrect.wav","key_press":null,"block":0,"trial_type":"audio-keyboard-response","trial_index":13,"time_elapsed":2232040,"internal_node_id":"0.0-10.0-3.0","match_key":"a","participant_id":"12"},{"rt":null,"stimulus":"Sounds/motorcycle_sound.wav","key_press":null,"block":0,"trial_type":"audio-keyboard-response","trial_index":14,"time_elapsed":2233137,"internal_node_id":"0.0-10.0-0.1","match_key":"a","participant_id":"12"},{"rt":null,"stimulus":"<p style=\"font-size: 48px;\">+</p>","key_press":null,"block":0,"trial_type":"html-keyboard-response","trial_index":15,"time_elapsed":2234133,"internal_node_id":"0.0-10.0-1.1","match_key":"a","participant_id":"12"},{"rt":1532.9550000028685,"stimulus":"Images/cat_3.png","key_press":76,"stim_onset":1581648063087,"block":0,"match_type":"non-match","image_category":"cat","sound_category":"motorcycle","audio_type":"sound","phase":"practice","trial_type":"image-keyboard-response","trial_index":16,"time_elapsed":2235676,"internal_node_id":"0.0-10.0-2.1","match_key":"a","participant_id":"12","correct":true},{"rt":null,"stimulus":"Sounds/correct.wav","key_press":null,"block":0,"trial_type":"audio-keyboard-response","trial_index":17,"time_elapsed":2237687,"internal_node_id":"0.0-10.0-3.1","match_key":"a","participant_id":"12"},{"rt":null,"stimulus":"Sounds/rooster_label.wav","key_press":null,"block":0,"trial_type":"audio-keyboard-response","trial_index":18,"time_elapsed":2238385,"internal_node_id":"0.0-10.0-0.2","match_key":"a","participant_id":"12"},{"rt":null,"stimulus":"<p style=\"font-size: 48px;\">+</p>","key_press":null,"block":0,"trial_type":"html-keyboard-response","trial_index":19,"time_elapsed":2239375,"internal_node_id":"0.0-10.0-1.2","match_key":"a","participant_id":"12"},{"rt":1123.5950000118464,"stimulus":"Images/cow_orig.png","key_press":76,"stim_onset":1581648068329,"block":0,"match_type":"non-match","image_category":"cow","sound_category":"rooster","audio_type":"label","phase":"practice","trial_type":"image-keyboard-response","trial_index":20,"time_elapsed":2240500,"internal_node_id":"0.0-10.0-2.2","match_key":"a","participant_id":"12","correct":true},{"rt":null,"stimulus":"Sounds/correct.wav","key_press":null,"block":0,"trial_type":"audio-keyboard-response","trial_index":21,"time_elapsed":2242513,"internal_node_id":"0.0-10.0-3.2","match_key":"a","participant_id":"12"},{"rt":null,"stimulus":"Sounds/rooster_sound.wav","key_press":null,"block":0,"trial_type":"audio-keyboard-response","trial_index":22,"time_elapsed":2243205,"internal_node_id":"0.0-10.0-0.3","match_key":"a","participant_id":"12"},{"rt":null,"stimulus":"<p style=\"font-size: 48px;\">+</p>","key_press":null,"block":0,"trial_type":"html-keyboard-response","trial_index":23,"time_elapsed":2244209,"internal_node_id":"0.0-10.0-1.3","match_key":"a","participant_id":"12"},{"rt":1129.834999999497,"stimulus":"Images/car_3.png","key_press":76,"stim_onset":1581648073163,"block":0,"match_type":"non-match","image_category":"car","sound_category":"rooster","audio_type":"sound","phase":"practice","trial_type":"image-keyboard-response","trial_index":24,"time_elapsed":2245340,"internal_node_id":"0.0-10.0-2.3","match_key":"a","participant_id":"12","correct":true},{"rt":null,"stimulus":"Sounds/correct.wav","key_press":null,"block":0,"trial_type":"audio-keyboard-response","trial_index":25,"time_elapsed":2247347,"internal_node_id":"0.0-10.0-3.3","match_key":"a","participant_id":"12"},{"rt":null,"stimulus":"Sounds/motorcycle_label.wav","key_press":null,"block":0,"trial_type":"audio-keyboard-response","trial_index":26,"time_elapsed":2248485,"internal_node_id":"0.0-10.0-0.4","match_key":"a","participant_id":"12"},{"rt":null,"stimulus":"<p style=\"font-size: 48px;\">+</p>","key_press":null,"block":0,"trial_type":"html-keyboard-response","trial_index":27,"time_elapsed":2249475,"internal_node_id":"0.0-10.0-1.4","match_key":"a","participant_id":"12"},{"rt":447.41999999666587,"stimulus":"Images/motorcycle_3.png","key_press":65,"stim_onset":1581648078430,"block":0,"match_type":"match","image_category":"motorcycle","sound_category":"motorcycle","audio_type":"label","phase":"practice","trial_type":"image-keyboard-response","trial_index":28,"time_elapsed":2249924,"internal_node_id":"0.0-10.0-2.4","match_key":"a","participant_id":"12","correct":true},{"rt":null,"stimulus":"Sounds/correct.wav","key_press":null,"block":0,"trial_type":"audio-keyboard-response","trial_index":29,"time_elapsed":2251932,"internal_node_id":"0.0-10.0-3.4","match_key":"a","participant_id":"12"},{"rt":null,"stimulus":"Sounds/motorcycle_sound.wav","key_press":null,"block":0,"trial_type":"audio-keyboard-response","trial_index":30,"time_elapsed":2253045,"internal_node_id":"0.0-10.0-0.5","match_key":"a","participant_id":"12"},{"rt":null,"stimulus":"<p style=\"font-size: 48px;\">+</p>","key_press":null,"block":0,"trial_type":"html-keyboard-response","trial_index":31,"time_elapsed":2254042,"internal_node_id":"0.0-10.0-1.5","match_key":"a","participant_id":"12"},{"rt":1616.8650000034831,"stimulus":"Images/motorcycle_2.png","key_press":65,"stim_onset":1581648082996,"block":0,"match_type":"match","image_category":"motorcycle","sound_category":"motorcycle","audio_type":"sound","phase":"practice","trial_type":"image-keyboard-response","trial_index":32,"time_elapsed":2255660,"internal_node_id":"0.0-10.0-2.5","match_key":"a","participant_id":"12","correct":true},{"rt":null,"stimulus":"Sounds/correct.wav","key_press":null,"block":0,"trial_type":"audio-keyboard-response","trial_index":33,"time_elapsed":2257668,"internal_node_id":"0.0-10.0-3.5","match_key":"a","participant_id":"12"},{"rt":null,"stimulus":"Sounds/dog_label.wav","key_press":null,"block":0,"trial_type":"audio-keyboard-response","trial_index":34,"time_elapsed":2258325,"internal_node_id":"0.0-10.0-0.6","match_key":"a","participant_id":"12"},{"rt":null,"stimulus":"<p style=\"font-size: 48px;\">+</p>","key_press":null,"block":0,"trial_type":"html-keyboard-response","trial_index":35,"time_elapsed":2259326,"internal_node_id":"0.0-10.0-1.6","match_key":"a","participant_id":"12"},{"rt":493.2049999916926,"stimulus":"Images/dog_orig.png","key_press":65,"stim_onset":1581648088279,"block":0,"match_type":"match","image_category":"dog","sound_category":"dog","audio_type":"label","phase":"practice","trial_type":"image-keyboard-response","trial_index":36,"time_elapsed":2259820,"internal_node_id":"0.0-10.0-2.6","match_key":"a","participant_id":"12","correct":true},{"rt":null,"stimulus":"Sounds/correct.wav","key_press":null,"block":0,"trial_type":"audio-keyboard-response","trial_index":37,"time_elapsed":2261832,"internal_node_id":"0.0-10.0-3.6","match_key":"a","participant_id":"12"},{"rt":null,"stimulus":"Sounds/gun_sound.wav","key_press":null,"block":0,"trial_type":"audio-keyboard-response","trial_index":38,"time_elapsed":2262405,"internal_node_id":"0.0-10.0-0.7","match_key":"a","participant_id":"12"},{"rt":null,"stimulus":"<p style=\"font-size: 48px;\">+</p>","key_press":null,"block":0,"trial_type":"html-keyboard-response","trial_index":39,"time_elapsed":2263409,"internal_node_id":"0.0-10.0-1.7","match_key":"a","participant_id":"12"},{"rt":1017.9750000094064,"stimulus":"Images/train_orig.png","key_press":76,"stim_onset":1581648092363,"block":0,"match_type":"non-match","image_category":"train","sound_category":"gun","audio_type":"sound","phase":"practice","trial_type":"image-keyboard-response","trial_index":40,"time_elapsed":2264428,"internal_node_id":"0.0-10.0-2.7","match_key":"a","participant_id":"12","correct":true},{"rt":null,"stimulus":"Sounds/correct.wav","key_press":null,"block":0,"trial_type":"audio-keyboard-response","trial_index":41,"time_elapsed":2266431,"internal_node_id":"0.0-10.0-3.7","match_key":"a","participant_id":"12"},{"rt":null,"stimulus":"Sounds/whistle_label.wav","key_press":null,"block":0,"trial_type":"audio-keyboard-response","trial_index":42,"time_elapsed":2267125,"internal_node_id":"0.0-10.0-0.8","match_key":"a","participant_id":"12"},{"rt":null,"stimulus":"<p style=\"font-size: 48px;\">+</p>","key_press":null,"block":0,"trial_type":"html-keyboard-response","trial_index":43,"time_elapsed":2268126,"internal_node_id":"0.0-10.0-1.8","match_key":"a","participant_id":"12"},{"rt":1077.6399999884889,"stimulus":"Images/frog_1.png","key_press":76,"stim_onset":1581648097080,"block":0,"match_type":"non-match","image_category":"frog","sound_category":"whistle","audio_type":"label","phase":"practice","trial_type":"image-keyboard-response","trial_index":44,"time_elapsed":2269204,"internal_node_id":"0.0-10.0-2.8","match_key":"a","participant_id":"12","correct":true},{"rt":null,"stimulus":"Sounds/correct.wav","key_press":null,"block":0,"trial_type":"audio-keyboard-response","trial_index":45,"time_elapsed":2271215,"internal_node_id":"0.0-10.0-3.8","match_key":"a","participant_id":"12"},{"rt":null,"stimulus":"Sounds/car_sound.wav","key_press":null,"block":0,"trial_type":"audio-keyboard-response","trial_index":46,"time_elapsed":2272285,"internal_node_id":"0.0-10.0-0.9","match_key":"a","participant_id":"12"},{"rt":null,"stimulus":"<p style=\"font-size: 48px;\">+</p>","key_press":null,"block":0,"trial_type":"html-keyboard-response","trial_index":47,"time_elapsed":2273276,"internal_node_id":"0.0-10.0-1.9","match_key":"a","participant_id":"12"},{"rt":822.9400000129826,"stimulus":"Images/train_1.png","key_press":76,"stim_onset":1581648102230,"block":0,"match_type":"non-match","image_category":"train","sound_category":"car","audio_type":"sound","phase":"practice","trial_type":"image-keyboard-response","trial_index":48,"time_elapsed":2274100,"internal_node_id":"0.0-10.0-2.9","match_key":"a","participant_id":"12","correct":true},{"rt":null,"stimulus":"Sounds/correct.wav","key_press":null,"block":0,"trial_type":"audio-keyboard-response","trial_index":49,"time_elapsed":2276115,"internal_node_id":"0.0-10.0-3.9","match_key":"a","participant_id":"12"},{"rt":31721.684999996796,"stimulus":"<p>The rest of the experiment is divided into five blocks with 100 trials in each block. It will take about 45 minutes to complete.</p><p>The experimenter will be in the outer room and you can communicate with them through the monitor if you have any questions or wish to stop the experiment.</p>","key_press":32,"trial_type":"html-keyboard-response","trial_index":50,"time_elapsed":2307832,"internal_node_id":"0.0-11.0","match_key":"a","participant_id":"12"},{"rt":61046.58999999799,"stimulus":"<p>Remember, please try not to move or blink your eyes during the presentation of the images. </p><p>At the end of the experiment, we will show you your scores on the task so you can see how you did.</p><p>The experiment will start on the next screen.</p>","key_press":32,"trial_type":"html-keyboard-response","trial_index":51,"time_elapsed":2368881,"internal_node_id":"0.0-12.0","match_key":"a","participant_id":"12"},{"rt":null,"stimulus":"Sounds/gun_label.wav","key_press":null,"block":1,"trial_type":"audio-keyboard-response","trial_index":52,"time_elapsed":2371491,"internal_node_id":"0.0-13.0-0.0","match_key":"a","participant_id":"12"},{"rt":null,"stimulus":"<p style=\"font-size: 48px;\">+</p>","key_press":null,"block":1,"trial_type":"html-keyboard-response","trial_index":53,"time_elapsed":2372490,"internal_node_id":"0.0-13.0-1.0","match_key":"a","participant_id":"12"},{"rt":469.5499999942258,"stimulus":"Images/gun_1.png","key_press":65,"stim_onset":1581648201444,"block":1,"match_type":"match","image_category":"gun","sound_category":"gun","audio_type":"label","phase":"test","trial_type":"image-keyboard-response","trial_index":54,"time_elapsed":2372960,"internal_node_id":"0.0-13.0-2.0","match_key":"a","participant_id":"12","correct":true},{"rt":null,"stimulus":"Sounds/correct.wav","key_press":null,"block":1,"trial_type":"audio-keyboard-response","trial_index":55,"time_elapsed":2374977,"internal_node_id":"0.0-13.0-3.0","match_key":"a","participant_id":"12"},{"rt":null,"stimulus":"Sounds/cat_label.wav","key_press":null,"block":1,"trial_type":"audio-keyboard-response","trial_index":56,"time_elapsed":2375812,"internal_node_id":"0.0-13.0-0.1","match_key":"a","participant_id":"12"},{"rt":null,"stimulus":"<p style=\"font-size: 48px;\">+</p>","key_press":null,"block":1,"trial_type":"html-keyboard-response","trial_index":57,"time_elapsed":2376807,"internal_node_id":"0.0-13.0-1.1","match_key":"a","participant_id":"12"},{"rt":952.929999999702,"stimulus":"Images/dog_1.png","key_press":65,"stim_onset":1581648205761,"block":1,"match_type":"non-match","image_category":"dog","sound_category":"cat","audio_type":"label","phase":"test","trial_type":"image-keyboard-response","trial_index":58,"time_elapsed":2377761,"internal_node_id":"0.0-13.0-2.1","match_key":"a","participant_id":"12","correct":false},{"rt":null,"stimulus":"Sounds/incorrect.wav","key_press":null,"block":1,"trial_type":"audio-keyboard-response","trial_index":59,"time_elapsed":2379778,"internal_node_id":"0.0-13.0-3.1","match_key":"a","participant_id":"12"},{"rt":null,"stimulus":"Sounds/whistle_sound.wav","key_press":null,"block":1,"trial_type":"audio-keyboard-response","trial_index":60,"time_elapsed":2380471,"internal_node_id":"0.0-13.0-0.2","match_key":"a","participant_id":"12"},{"rt":null,"stimulus":"<p style=\"font-size: 48px;\">+</p>","key_press":null,"block":1,"trial_type":"html-keyboard-response","trial_index":61,"time_elapsed":2381473,"internal_node_id":"0.0-13.0-1.2","match_key":"a","participant_id":"12"},{"rt":1110.4900000062771,"stimulus":"Images/whistle_cartoon.png","key_press":65,"stim_onset":1581648210427,"block":1,"match_type":"match","image_category":"whistle","sound_category":"whistle","audio_type":"sound","phase":"test","trial_type":"image-keyboard-response","trial_index":62,"time_elapsed":2382585,"internal_node_id":"0.0-13.0-2.2","match_key":"a","participant_id":"12","correct":true},{"rt":null,"stimulus":"Sounds/correct.wav","key_press":null,"block":1,"trial_type":"audio-keyboard-response","trial_index":63,"time_elapsed":2384593,"internal_node_id":"0.0-13.0-3.2","match_key":"a","participant_id":"12"},{"rt":null,"stimulus":"Sounds/train_sound.wav","key_press":null,"block":1,"trial_type":"audio-keyboard-response","trial_index":64,"time_elapsed":2385891,"internal_node_id":"0.0-13.0-0.3","match_key":"a","participant_id":"12"},{"rt":null,"stimulus":"<p style=\"font-size: 48px;\">+</p>","key_press":null,"block":1,"trial_type":"html-keyboard-response","trial_index":65,"time_elapsed":2386890,"internal_node_id":"0.0-13.0-1.3","match_key":"a","participant_id":"12"},{"rt":1141.4950000033714,"stimulus":"Images/gun_3.png","key_press":76,"stim_onset":1581648215844,"block":1,"match_type":"non-match","image_category":"gun","sound_category":"train","audio_type":"sound","phase":"test","trial_type":"image-keyboard-response","trial_index":66,"time_elapsed":2388032,"internal_node_id":"0.0-13.0-2.3","match_key":"a","participant_id":"12","correct":true},{"rt":null,"stimulus":"Sounds/correct.wav","key_press":null,"block":1,"trial_type":"audio-keyboard-response","trial_index":67,"time_elapsed":2390043,"internal_node_id":"0.0-13.0-3.3","match_key":"a","participant_id":"12"},{"rt":null,"stimulus":"Sounds/dog_sound.wav","key_press":null,"block":1,"trial_type":"audio-keyboard-response","trial_index":68,"time_elapsed":2390751,"internal_node_id":"0.0-13.0-0.4","match_key":"a","participant_id":"12"},{"rt":null,"stimulus":"<p style=\"font-size: 48px;\">+</p>","key_press":null,"block":1,"trial_type":"html-keyboard-response","trial_index":69,"time_elapsed":2391757,"internal_node_id":"0.0-13.0-1.4","match_key":"a","participant_id":"12"},{"rt":762.644999995362,"stimulus":"Images/cow_cartoon.png","key_press":76,"stim_onset":1581648220711,"block":1,"match_type":"non-match","image_category":"cow","sound_category":"dog","audio_type":"sound","phase":"test","trial_type":"image-keyboard-response","trial_index":70,"time_elapsed":2392520,"internal_node_id":"0.0-13.0-2.4","match_key":"a","participant_id":"12","correct":true},{"rt":null,"stimulus":"Sounds/correct.wav","key_press":null,"block":1,"trial_type":"audio-keyboard-response","trial_index":71,"time_elapsed":2394528,"internal_node_id":"0.0-13.0-3.4","match_key":"a","participant_id":"12"},{"rt":null,"stimulus":"Sounds/gun_sound.wav","key_press":null,"block":1,"trial_type":"audio-keyboard-response","trial_index":72,"time_elapsed":2395111,"internal_node_id":"0.0-13.0-0.5","match_key":"a","participant_id":"12"},{"rt":null,"stimulus":"<p style=\"font-size: 48px;\">+</p>","key_press":null,"block":1,"trial_type":"html-keyboard-response","trial_index":73,"time_elapsed":2396107,"internal_node_id":"0.0-13.0-1.5","match_key":"a","participant_id":"12"},{"rt":892.8400000003166,"stimulus":"Images/motorcycle_cartoon.png","key_press":76,"stim_onset":1581648225061,"block":1,"match_type":"non-match","image_category":"motorcycle","sound_category":"gun","audio_type":"sound","phase":"test","trial_type":"image-keyboard-response","trial_index":74,"time_elapsed":2397001,"internal_node_id":"0.0-13.0-2.5","match_key":"a","participant_id":"12","correct":true},{"rt":null,"stimulus":"Sounds/correct.wav","key_press":null,"block":1,"trial_type":"audio-keyboard-response","trial_index":75,"time_elapsed":2399010,"internal_node_id":"0.0-13.0-3.5","match_key":"a","participant_id":"12"},{"rt":null,"stimulus":"Sounds/rooster_label.wav","key_press":null,"block":1,"trial_type":"audio-keyboard-response","trial_index":76,"time_elapsed":2399711,"internal_node_id":"0.0-13.0-0.6","match_key":"a","participant_id":"12"},{"rt":null,"stimulus":"<p style=\"font-size: 48px;\">+</p>","key_press":null,"block":1,"trial_type":"html-keyboard-response","trial_index":77,"time_elapsed":2400707,"internal_node_id":"0.0-13.0-1.6","match_key":"a","participant_id":"12"},{"rt":691.2100000046194,"stimulus":"Images/rooster_orig.png","key_press":65,"stim_onset":1581648229661,"block":1,"match_type":"match","image_category":"rooster","sound_category":"rooster","audio_type":"label","phase":"test","trial_type":"image-keyboard-response","trial_index":78,"time_elapsed":2401401,"internal_node_id":"0.0-13.0-2.6","match_key":"a","participant_id":"12","correct":true},{"rt":null,"stimulus":"Sounds/correct.wav","key_press":null,"block":1,"trial_type":"audio-keyboard-response","trial_index":79,"time_elapsed":2403412,"internal_node_id":"0.0-13.0-3.6","match_key":"a","participant_id":"12"},{"rt":null,"stimulus":"Sounds/dog_sound.wav","key_press":null,"block":1,"trial_type":"audio-keyboard-response","trial_index":80,"time_elapsed":2404111,"internal_node_id":"0.0-13.0-0.7","match_key":"a","participant_id":"12"},{"rt":null,"stimulus":"<p style=\"font-size: 48px;\">+</p>","key_press":null,"block":1,"trial_type":"html-keyboard-response","trial_index":81,"time_elapsed":2405107,"internal_node_id":"0.0-13.0-1.7","match_key":"a","participant_id":"12"},{"rt":1012.8899999978021,"stimulus":"Images/dog_orig.png","key_press":76,"stim_onset":1581648234061,"block":1,"match_type":"match","image_category":"dog","sound_category":"dog","audio_type":"sound","phase":"test","trial_type":"image-keyboard-response","trial_index":82,"time_elapsed":2406121,"internal_node_id":"0.0-13.0-2.7","match_key":"a","participant_id":"12","correct":false},{"rt":null,"stimulus":"Sounds/incorrect.wav","key_press":null,"block":1,"trial_type":"audio-keyboard-response","trial_index":83,"time_elapsed":2408129,"internal_node_id":"0.0-13.0-3.7","match_key":"a","participant_id":"12"},{"rt":null,"stimulus":"Sounds/cow_label.wav","key_press":null,"block":1,"trial_type":"audio-keyboard-response","trial_index":84,"time_elapsed":2409151,"internal_node_id":"0.0-13.0-0.8","match_key":"a","participant_id":"12"},{"rt":null,"stimulus":"<p style=\"font-size: 48px;\">+</p>","key_press":null,"block":1,"trial_type":"html-keyboard-response","trial_index":85,"time_elapsed":2410158,"internal_node_id":"0.0-13.0-1.8","match_key":"a","participant_id":"12"},{"rt":1129.9949999954551,"stimulus":"Images/cat_orig.png","key_press":76,"stim_onset":1581648239111,"block":1,"match_type":"non-match","image_category":"cat","sound_category":"cow","audio_type":"label","phase":"test","trial_type":"image-keyboard-response","trial_index":86,"time_elapsed":2411289,"internal_node_id":"0.0-13.0-2.8","match_key":"a","participant_id":"12","correct":true},{"rt":null,"stimulus":"Sounds/correct.wav","key_press":null,"block":1,"trial_type":"audio-keyboard-response","trial_index":87,"time_elapsed":2413299,"internal_node_id":"0.0-13.0-3.8","match_key":"a","participant_id":"12"},{"rt":null,"stimulus":"Sounds/frog_sound.wav","key_press":null,"block":1,"trial_type":"audio-keyboard-response","trial_index":88,"time_elapsed":2414211,"internal_node_id":"0.0-13.0-0.9","match_key":"a","participant_id":"12"},{"rt":null,"stimulus":"<p style=\"font-size: 48px;\">+</p>","key_press":null,"block":1,"trial_type":"html-keyboard-response","trial_index":89,"time_elapsed":2415207,"internal_node_id":"0.0-13.0-1.9","match_key":"a","participant_id":"12"},{"rt":1136.1400000024587,"stimulus":"Images/motorcycle_2.png","key_press":76,"stim_onset":1581648244161,"block":1,"match_type":"non-match","image_category":"motorcycle","sound_category":"frog","audio_type":"sound","phase":"test","trial_type":"image-keyboard-response","trial_index":90,"time_elapsed":2416344,"internal_node_id":"0.0-13.0-2.9","match_key":"a","participant_id":"12","correct":true},{"rt":null,"stimulus":"Sounds/correct.wav","key_press":null,"block":1,"trial_type":"audio-keyboard-response","trial_index":91,"time_elapsed":2418361,"internal_node_id":"0.0-13.0-3.9","match_key":"a","participant_id":"12"},{"rt":null,"stimulus":"Sounds/car_sound.wav","key_press":null,"block":1,"trial_type":"audio-keyboard-response","trial_index":92,"time_elapsed":2419451,"internal_node_id":"0.0-13.0-0.10","match_key":"a","participant_id":"12"},{"rt":null,"stimulus":"<p style=\"font-size: 48px;\">+</p>","key_press":null,"block":1,"trial_type":"html-keyboard-response","trial_index":93,"time_elapsed":2420457,"internal_node_id":"0.0-13.0-1.10","match_key":"a","participant_id":"12"},{"rt":1302.3699999903329,"stimulus":"Images/car_cartoon.png","key_press":76,"stim_onset":1581648249411,"block":1,"match_type":"match","image_category":"car","sound_category":"car","audio_type":"sound","phase":"test","trial_type":"image-keyboard-response","trial_index":94,"time_elapsed":2421761,"internal_node_id":"0.0-13.0-2.10","match_key":"a","participant_id":"12","correct":false},{"rt":null,"stimulus":"Sounds/incorrect.wav","key_press":null,"block":1,"trial_type":"audio-keyboard-response","trial_index":95,"time_elapsed":2423765,"internal_node_id":"0.0-13.0-3.10","match_key":"a","participant_id":"12"},{"rt":null,"stimulus":"Sounds/gun_label.wav","key_press":null,"block":1,"trial_type":"audio-keyboard-response","trial_index":96,"time_elapsed":2424351,"internal_node_id":"0.0-13.0-0.11","match_key":"a","participant_id":"12"},{"rt":null,"stimulus":"<p style=\"font-size: 48px;\">+</p>","key_press":null,"block":1,"trial_type":"html-keyboard-response","trial_index":97,"time_elapsed":2425340,"internal_node_id":"0.0-13.0-1.11","match_key":"a","participant_id":"12"},{"rt":547.0350000103936,"stimulus":"Images/gun_orig.png","key_press":65,"stim_onset":1581648254295,"block":1,"match_type":"match","image_category":"gun","sound_category":"gun","audio_type":"label","phase":"test","trial_type":"image-keyboard-response","trial_index":98,"time_elapsed":2425889,"internal_node_id":"0.0-13.0-2.11","match_key":"a","participant_id":"12","correct":true},{"rt":null,"stimulus":"Sounds/correct.wav","key_press":null,"block":1,"trial_type":"audio-keyboard-response","trial_index":99,"time_elapsed":2427896,"internal_node_id":"0.0-13.0-3.11","match_key":"a","participant_id":"12"},{"rt":null,"stimulus":"Sounds/train_sound.wav","key_press":null,"block":1,"trial_type":"audio-keyboard-response","trial_index":100,"time_elapsed":2429195,"internal_node_id":"0.0-13.0-0.12","match_key":"a","participant_id":"12"},{"rt":null,"stimulus":"<p style=\"font-size: 48px;\">+</p>","key_press":null,"block":1,"trial_type":"html-keyboard-response","trial_index":101,"time_elapsed":2430194,"internal_node_id":"0.0-13.0-1.12","match_key":"a","participant_id":"12"},{"rt":825.0200000037439,"stimulus":"Images/rooster_2.png","key_press":76,"stim_onset":1581648259148,"block":1,"match_type":"non-match","image_category":"rooster","sound_category":"train","audio_type":"sound","phase":"test","trial_type":"image-keyboard-response","trial_index":102,"time_elapsed":2431020,"internal_node_id":"0.0-13.0-2.12","match_key":"a","participant_id":"12","correct":true},{"rt":null,"stimulus":"Sounds/correct.wav","key_press":null,"block":1,"trial_type":"audio-keyboard-response","trial_index":103,"time_elapsed":2433031,"internal_node_id":"0.0-13.0-3.12","match_key":"a","participant_id":"12"},{"rt":null,"stimulus":"Sounds/rooster_label.wav","key_press":null,"block":1,"trial_type":"audio-keyboard-response","trial_index":104,"time_elapsed":2433735,"internal_node_id":"0.0-13.0-0.13","match_key":"a","participant_id":"12"},{"rt":null,"stimulus":"<p style=\"font-size: 48px;\">+</p>","key_press":null,"block":1,"trial_type":"html-keyboard-response","trial_index":105,"time_elapsed":2434728,"internal_node_id":"0.0-13.0-1.13","match_key":"a","participant_id":"12"},{"rt":1107.9800000009127,"stimulus":"Images/cow_orig.png","key_press":76,"stim_onset":1581648263682,"block":1,"match_type":"non-match","image_category":"cow","sound_category":"rooster","audio_type":"label","phase":"test","trial_type":"image-keyboard-response","trial_index":106,"time_elapsed":2435837,"internal_node_id":"0.0-13.0-2.13","match_key":"a","participant_id":"12","correct":true},{"rt":null,"stimulus":"Sounds/correct.wav","key_press":null,"block":1,"trial_type":"audio-keyboard-response","trial_index":107,"time_elapsed":2437848,"internal_node_id":"0.0-13.0-3.13","match_key":"a","participant_id":"12"},{"rt":null,"stimulus":"Sounds/rooster_label.wav","key_press":null,"block":1,"trial_type":"audio-keyboard-response","trial_index":108,"time_elapsed":2438515,"internal_node_id":"0.0-13.0-0.14","match_key":"a","participant_id":"12"},{"rt":null,"stimulus":"<p style=\"font-size: 48px;\">+</p>","key_press":null,"block":1,"trial_type":"html-keyboard-response","trial_index":109,"time_elapsed":2439511,"internal_node_id":"0.0-13.0-1.14","match_key":"a","participant_id":"12"},{"rt":628.3100000000559,"stimulus":"Images/car_3.png","key_press":76,"stim_onset":1581648268465,"block":1,"match_type":"non-match","image_category":"car","sound_category":"rooster","audio_type":"label","phase":"test","trial_type":"image-keyboard-response","trial_index":110,"time_elapsed":2440140,"internal_node_id":"0.0-13.0-2.14","match_key":"a","participant_id":"12","correct":true},{"rt":null,"stimulus":"Sounds/correct.wav","key_press":null,"block":1,"trial_type":"audio-keyboard-response","trial_index":111,"time_elapsed":2442150,"internal_node_id":"0.0-13.0-3.14","match_key":"a","participant_id":"12"},{"rt":null,"stimulus":"Sounds/frog_sound.wav","key_press":null,"block":1,"trial_type":"audio-keyboard-response","trial_index":112,"time_elapsed":2443055,"internal_node_id":"0.0-13.0-0.15","match_key":"a","participant_id":"12"},{"rt":null,"stimulus":"<p style=\"font-size: 48px;\">+</p>","key_press":null,"block":1,"trial_type":"html-keyboard-response","trial_index":113,"time_elapsed":2444044,"internal_node_id":"0.0-13.0-1.15","match_key":"a","participant_id":"12"},{"rt":655.0850000060163,"stimulus":"Images/frog_2.png","key_press":65,"stim_onset":1581648272998,"block":1,"match_type":"match","image_category":"frog","sound_category":"frog","audio_type":"sound","phase":"test","trial_type":"image-keyboard-response","trial_index":114,"time_elapsed":2444700,"internal_node_id":"0.0-13.0-2.15","match_key":"a","participant_id":"12","correct":true},{"rt":null,"stimulus":"Sounds/correct.wav","key_press":null,"block":1,"trial_type":"audio-keyboard-response","trial_index":115,"time_elapsed":2446711,"internal_node_id":"0.0-13.0-3.15","match_key":"a","participant_id":"12"},{"rt":null,"stimulus":"Sounds/cow_sound.wav","key_press":null,"block":1,"trial_type":"audio-keyboard-response","trial_index":116,"time_elapsed":2447735,"internal_node_id":"0.0-13.0-0.16","match_key":"a","participant_id":"12"},{"rt":null,"stimulus":"<p style=\"font-size: 48px;\">+</p>","key_press":null,"block":1,"trial_type":"html-keyboard-response","trial_index":117,"time_elapsed":2448728,"internal_node_id":"0.0-13.0-1.16","match_key":"a","participant_id":"12"},{"rt":699.6049999874085,"stimulus":"Images/rooster_cartoon.png","key_press":76,"stim_onset":1581648277682,"block":1,"match_type":"non-match","image_category":"rooster","sound_category":"cow","audio_type":"sound","phase":"test","trial_type":"image-keyboard-response","trial_index":118,"time_elapsed":2449428,"internal_node_id":"0.0-13.0-2.16","match_key":"a","participant_id":"12","correct":true},{"rt":null,"stimulus":"Sounds/correct.wav","key_press":null,"block":1,"trial_type":"audio-keyboard-response","trial_index":119,"time_elapsed":2451433,"internal_node_id":"0.0-13.0-3.16","match_key":"a","participant_id":"12"},{"rt":null,"stimulus":"Sounds/dog_label.wav","key_press":null,"block":1,"trial_type":"audio-keyboard-response","trial_index":120,"time_elapsed":2452095,"internal_node_id":"0.0-13.0-0.17","match_key":"a","participant_id":"12"},{"rt":null,"stimulus":"<p style=\"font-size: 48px;\">+</p>","key_press":null,"block":1,"trial_type":"html-keyboard-response","trial_index":121,"time_elapsed":2453094,"internal_node_id":"0.0-13.0-1.17","match_key":"a","participant_id":"12"},{"rt":620.9450000026263,"stimulus":"Images/cat_cartoon.png","key_press":76,"stim_onset":1581648282048,"block":1,"match_type":"non-match","image_category":"cat","sound_category":"dog","audio_type":"label","phase":"test","trial_type":"image-keyboard-response","trial_index":122,"time_elapsed":2453716,"internal_node_id":"0.0-13.0-2.17","match_key":"a","participant_id":"12","correct":true},{"rt":null,"stimulus":"Sounds/correct.wav","key_press":null,"block":1,"trial_type":"audio-keyboard-response","trial_index":123,"time_elapsed":2455719,"internal_node_id":"0.0-13.0-3.17","match_key":"a","participant_id":"12"},{"rt":null,"stimulus":"Sounds/dog_label.wav","key_press":null,"block":1,"trial_type":"audio-keyboard-response","trial_index":124,"time_elapsed":2456355,"internal_node_id":"0.0-13.0-0.18","match_key":"a","participant_id":"12"},{"rt":null,"stimulus":"<p style=\"font-size: 48px;\">+</p>","key_press":null,"block":1,"trial_type":"html-keyboard-response","trial_index":125,"time_elapsed":2457344,"internal_node_id":"0.0-13.0-1.18","match_key":"a","participant_id":"12"},{"rt":530.7150000007823,"stimulus":"Images/dog_3.png","key_press":65,"stim_onset":1581648286299,"block":1,"match_type":"match","image_category":"dog","sound_category":"dog","audio_type":"label","phase":"test","trial_type":"image-keyboard-response","trial_index":126,"time_elapsed":2457876,"internal_node_id":"0.0-13.0-2.18","match_key":"a","participant_id":"12","correct":true},{"rt":null,"stimulus":"Sounds/correct.wav","key_press":null,"block":1,"trial_type":"audio-keyboard-response","trial_index":127,"time_elapsed":2459885,"internal_node_id":"0.0-13.0-3.18","match_key":"a","participant_id":"12"},{"rt":null,"stimulus":"Sounds/frog_label.wav","key_press":null,"block":1,"trial_type":"audio-keyboard-response","trial_index":128,"time_elapsed":2460775,"internal_node_id":"0.0-13.0-0.19","match_key":"a","participant_id":"12"},{"rt":null,"stimulus":"<p style=\"font-size: 48px;\">+</p>","key_press":null,"block":1,"trial_type":"html-keyboard-response","trial_index":129,"time_elapsed":2461778,"internal_node_id":"0.0-13.0-1.19","match_key":"a","participant_id":"12"},{"rt":841.6650000000373,"stimulus":"Images/gun_cartoon.png","key_press":76,"stim_onset":1581648290732,"block":1,"match_type":"non-match","image_category":"gun","sound_category":"frog","audio_type":"label","phase":"test","trial_type":"image-keyboard-response","trial_index":130,"time_elapsed":2462621,"internal_node_id":"0.0-13.0-2.19","match_key":"a","participant_id":"12","correct":true},{"rt":null,"stimulus":"Sounds/correct.wav","key_press":null,"block":1,"trial_type":"audio-keyboard-response","trial_index":131,"time_elapsed":2464631,"internal_node_id":"0.0-13.0-3.19","match_key":"a","participant_id":"12"},{"rt":null,"stimulus":"Sounds/cow_sound.wav","key_press":null,"block":1,"trial_type":"audio-keyboard-response","trial_index":132,"time_elapsed":2465635,"internal_node_id":"0.0-13.0-0.20","match_key":"a","participant_id":"12"},{"rt":null,"stimulus":"<p style=\"font-size: 48px;\">+</p>","key_press":null,"block":1,"trial_type":"html-keyboard-response","trial_index":133,"time_elapsed":2466628,"internal_node_id":"0.0-13.0-1.20","match_key":"a","participant_id":"12"},{"rt":815.1999999973923,"stimulus":"Images/cow_2.png","key_press":65,"stim_onset":1581648295582,"block":1,"match_type":"match","image_category":"cow","sound_category":"cow","audio_type":"sound","phase":"test","trial_type":"image-keyboard-response","trial_index":134,"time_elapsed":2467444,"internal_node_id":"0.0-13.0-2.20","match_key":"a","participant_id":"12","correct":true},{"rt":null,"stimulus":"Sounds/correct.wav","key_press":null,"block":1,"trial_type":"audio-keyboard-response","trial_index":135,"time_elapsed":2469450,"internal_node_id":"0.0-13.0-3.20","match_key":"a","participant_id":"12"},{"rt":null,"stimulus":"Sounds/car_label.wav","key_press":null,"block":1,"trial_type":"audio-keyboard-response","trial_index":136,"time_elapsed":2470535,"internal_node_id":"0.0-13.0-0.21","match_key":"a","participant_id":"12"},{"rt":null,"stimulus":"<p style=\"font-size: 48px;\">+</p>","key_press":null,"block":1,"trial_type":"html-keyboard-response","trial_index":137,"time_elapsed":2471528,"internal_node_id":"0.0-13.0-1.21","match_key":"a","participant_id":"12"},{"rt":715.41000000434,"stimulus":"Images/train_cartoon.png","key_press":76,"stim_onset":1581648300482,"block":1,"match_type":"non-match","image_category":"train","sound_category":"car","audio_type":"label","phase":"test","trial_type":"image-keyboard-response","trial_index":138,"time_elapsed":2472244,"internal_node_id":"0.0-13.0-2.21","match_key":"a","participant_id":"12","correct":true},{"rt":null,"stimulus":"Sounds/correct.wav","key_press":null,"block":1,"trial_type":"audio-keyboard-response","trial_index":139,"time_elapsed":2474250,"internal_node_id":"0.0-13.0-3.21","match_key":"a","participant_id":"12"},{"rt":null,"stimulus":"Sounds/train_label.wav","key_press":null,"block":1,"trial_type":"audio-keyboard-response","trial_index":140,"time_elapsed":2475535,"internal_node_id":"0.0-13.0-0.22","match_key":"a","participant_id":"12"},{"rt":null,"stimulus":"<p style=\"font-size: 48px;\">+</p>","key_press":null,"block":1,"trial_type":"html-keyboard-response","trial_index":141,"time_elapsed":2476528,"internal_node_id":"0.0-13.0-1.22","match_key":"a","participant_id":"12"},{"rt":635.3749999981374,"stimulus":"Images/cat_3.png","key_press":76,"stim_onset":1581648305482,"block":1,"match_type":"non-match","image_category":"cat","sound_category":"train","audio_type":"label","phase":"test","trial_type":"image-keyboard-response","trial_index":142,"time_elapsed":2477164,"internal_node_id":"0.0-13.0-2.22","match_key":"a","participant_id":"12","correct":true},{"rt":null,"stimulus":"Sounds/correct.wav","key_press":null,"block":1,"trial_type":"audio-keyboard-response","trial_index":143,"time_elapsed":2479168,"internal_node_id":"0.0-13.0-3.22","match_key":"a","participant_id":"12"},{"rt":null,"stimulus":"Sounds/cat_label.wav","key_press":null,"block":1,"trial_type":"audio-keyboard-response","trial_index":144,"time_elapsed":2480015,"internal_node_id":"0.0-13.0-0.23","match_key":"a","participant_id":"12"},{"rt":null,"stimulus":"<p style=\"font-size: 48px;\">+</p>","key_press":null,"block":1,"trial_type":"html-keyboard-response","trial_index":145,"time_elapsed":2481012,"internal_node_id":"0.0-13.0-1.23","match_key":"a","participant_id":"12"},{"rt":775.6850000005215,"stimulus":"Images/cat_2.png","key_press":65,"stim_onset":1581648309966,"block":1,"match_type":"match","image_category":"cat","sound_category":"cat","audio_type":"label","phase":"test","trial_type":"image-keyboard-response","trial_index":146,"time_elapsed":2481788,"internal_node_id":"0.0-13.0-2.23","match_key":"a","participant_id":"12","correct":true},{"rt":null,"stimulus":"Sounds/correct.wav","key_press":null,"block":1,"trial_type":"audio-keyboard-response","trial_index":147,"time_elapsed":2483798,"internal_node_id":"0.0-13.0-3.23","match_key":"a","participant_id":"12"},{"rt":null,"stimulus":"Sounds/dog_label.wav","key_press":null,"block":1,"trial_type":"audio-keyboard-response","trial_index":148,"time_elapsed":2484455,"internal_node_id":"0.0-13.0-0.24","match_key":"a","participant_id":"12"},{"rt":null,"stimulus":"<p style=\"font-size: 48px;\">+</p>","key_press":null,"block":1,"trial_type":"html-keyboard-response","trial_index":149,"time_elapsed":2485445,"internal_node_id":"0.0-13.0-1.24","match_key":"a","participant_id":"12"},{"rt":774.3150000022724,"stimulus":"Images/motorcycle_1.png","key_press":76,"stim_onset":1581648314399,"block":1,"match_type":"non-match","image_category":"motorcycle","sound_category":"dog","audio_type":"label","phase":"test","trial_type":"image-keyboard-response","trial_index":150,"time_elapsed":2486220,"internal_node_id":"0.0-13.0-2.24","match_key":"a","participant_id":"12","correct":true},{"rt":null,"stimulus":"Sounds/correct.wav","key_press":null,"block":1,"trial_type":"audio-keyboard-response","trial_index":151,"time_elapsed":2488232,"internal_node_id":"0.0-13.0-3.24","match_key":"a","participant_id":"12"},{"rt":null,"stimulus":"Sounds/cow_sound.wav","key_press":null,"block":1,"trial_type":"audio-keyboard-response","trial_index":152,"time_elapsed":2489255,"internal_node_id":"0.0-13.0-0.25","match_key":"a","participant_id":"12"},{"rt":null,"stimulus":"<p style=\"font-size: 48px;\">+</p>","key_press":null,"block":1,"trial_type":"html-keyboard-response","trial_index":153,"time_elapsed":2490245,"internal_node_id":"0.0-13.0-1.25","match_key":"a","participant_id":"12"},{"rt":710.6800000038929,"stimulus":"Images/dog_cartoon.png","key_press":76,"stim_onset":1581648319199,"block":1,"match_type":"non-match","image_category":"dog","sound_category":"cow","audio_type":"sound","phase":"test","trial_type":"image-keyboard-response","trial_index":154,"time_elapsed":2490956,"internal_node_id":"0.0-13.0-2.25","match_key":"a","participant_id":"12","correct":true},{"rt":null,"stimulus":"Sounds/correct.wav","key_press":null,"block":1,"trial_type":"audio-keyboard-response","trial_index":155,"time_elapsed":2492966,"internal_node_id":"0.0-13.0-3.25","match_key":"a","participant_id":"12"},{"rt":null,"stimulus":"Sounds/cow_sound.wav","key_press":null,"block":1,"trial_type":"audio-keyboard-response","trial_index":156,"time_elapsed":2493955,"internal_node_id":"0.0-13.0-0.26","match_key":"a","participant_id":"12"},{"rt":null,"stimulus":"<p style=\"font-size: 48px;\">+</p>","key_press":null,"block":1,"trial_type":"html-keyboard-response","trial_index":157,"time_elapsed":2494945,"internal_node_id":"0.0-13.0-1.26","match_key":"a","participant_id":"12"},{"rt":610.3500000024214,"stimulus":"Images/gun_orig.png","key_press":76,"stim_onset":1581648323899,"block":1,"match_type":"non-match","image_category":"gun","sound_category":"cow","audio_type":"sound","phase":"test","trial_type":"image-keyboard-response","trial_index":158,"time_elapsed":2495556,"internal_node_id":"0.0-13.0-2.26","match_key":"a","participant_id":"12","correct":true},{"rt":null,"stimulus":"Sounds/correct.wav","key_press":null,"block":1,"trial_type":"audio-keyboard-response","trial_index":159,"time_elapsed":2497565,"internal_node_id":"0.0-13.0-3.26","match_key":"a","participant_id":"12"},{"rt":null,"stimulus":"Sounds/cat_label.wav","key_press":null,"block":1,"trial_type":"audio-keyboard-response","trial_index":160,"time_elapsed":2498395,"internal_node_id":"0.0-13.0-0.27","match_key":"a","participant_id":"12"},{"rt":null,"stimulus":"<p style=\"font-size: 48px;\">+</p>","key_press":null,"block":1,"trial_type":"html-keyboard-response","trial_index":161,"time_elapsed":2499395,"internal_node_id":"0.0-13.0-1.27","match_key":"a","participant_id":"12"},{"rt":640.2200000011362,"stimulus":"Images/cat_cartoon.png","key_press":65,"stim_onset":1581648328349,"block":1,"match_type":"match","image_category":"cat","sound_category":"cat","audio_type":"label","phase":"test","trial_type":"image-keyboard-response","trial_index":162,"time_elapsed":2500036,"internal_node_id":"0.0-13.0-2.27","match_key":"a","participant_id":"12","correct":true},{"rt":null,"stimulus":"Sounds/correct.wav","key_press":null,"block":1,"trial_type":"audio-keyboard-response","trial_index":163,"time_elapsed":2502049,"internal_node_id":"0.0-13.0-3.27","match_key":"a","participant_id":"12"},{"rt":null,"stimulus":"Sounds/car_sound.wav","key_press":null,"block":1,"trial_type":"audio-keyboard-response","trial_index":164,"time_elapsed":2503135,"internal_node_id":"0.0-13.0-0.28","match_key":"a","participant_id":"12"},{"rt":null,"stimulus":"<p style=\"font-size: 48px;\">+</p>","key_press":null,"block":1,"trial_type":"html-keyboard-response","trial_index":165,"time_elapsed":2504128,"internal_node_id":"0.0-13.0-1.28","match_key":"a","participant_id":"12"},{"rt":891.2149999961257,"stimulus":"Images/car_1.png","key_press":65,"stim_onset":1581648333082,"block":1,"match_type":"match","image_category":"car","sound_category":"car","audio_type":"sound","phase":"test","trial_type":"image-keyboard-response","trial_index":166,"time_elapsed":2505020,"internal_node_id":"0.0-13.0-2.28","match_key":"a","participant_id":"12","correct":true},{"rt":null,"stimulus":"Sounds/correct.wav","key_press":null,"block":1,"trial_type":"audio-keyboard-response","trial_index":167,"time_elapsed":2507031,"internal_node_id":"0.0-13.0-3.28","match_key":"a","participant_id":"12"},{"rt":null,"stimulus":"Sounds/car_sound.wav","key_press":null,"block":1,"trial_type":"audio-keyboard-response","trial_index":168,"time_elapsed":2508075,"internal_node_id":"0.0-13.0-0.29","match_key":"a","participant_id":"12"},{"rt":null,"stimulus":"<p style=\"font-size: 48px;\">+</p>","key_press":null,"block":1,"trial_type":"html-keyboard-response","trial_index":169,"time_elapsed":2509078,"internal_node_id":"0.0-13.0-1.29","match_key":"a","participant_id":"12"},{"rt":500.8650000090711,"stimulus":"Images/whistle_1.png","key_press":76,"stim_onset":1581648338032,"block":1,"match_type":"non-match","image_category":"whistle","sound_category":"car","audio_type":"sound","phase":"test","trial_type":"image-keyboard-response","trial_index":170,"time_elapsed":2509580,"internal_node_id":"0.0-13.0-2.29","match_key":"a","participant_id":"12","correct":true},{"rt":null,"stimulus":"Sounds/correct.wav","key_press":null,"block":1,"trial_type":"audio-keyboard-response","trial_index":171,"time_elapsed":2511586,"internal_node_id":"0.0-13.0-3.29","match_key":"a","participant_id":"12"},{"rt":null,"stimulus":"Sounds/car_label.wav","key_press":null,"block":1,"trial_type":"audio-keyboard-response","trial_index":172,"time_elapsed":2512655,"internal_node_id":"0.0-13.0-0.30","match_key":"a","participant_id":"12"},{"rt":null,"stimulus":"<p style=\"font-size: 48px;\">+</p>","key_press":null,"block":1,"trial_type":"html-keyboard-response","trial_index":173,"time_elapsed":2513645,"internal_node_id":"0.0-13.0-1.30","match_key":"a","participant_id":"12"},{"rt":646.2049999972805,"stimulus":"Images/car_3.png","key_press":65,"stim_onset":1581648342599,"block":1,"match_type":"match","image_category":"car","sound_category":"car","audio_type":"label","phase":"test","trial_type":"image-keyboard-response","trial_index":174,"time_elapsed":2514292,"internal_node_id":"0.0-13.0-2.30","match_key":"a","participant_id":"12","correct":true},{"rt":null,"stimulus":"Sounds/correct.wav","key_press":null,"block":1,"trial_type":"audio-keyboard-response","trial_index":175,"time_elapsed":2516300,"internal_node_id":"0.0-13.0-3.30","match_key":"a","participant_id":"12"},{"rt":null,"stimulus":"Sounds/train_label.wav","key_press":null,"block":1,"trial_type":"audio-keyboard-response","trial_index":176,"time_elapsed":2517575,"internal_node_id":"0.0-13.0-0.31","match_key":"a","participant_id":"12"},{"rt":null,"stimulus":"<p style=\"font-size: 48px;\">+</p>","key_press":null,"block":1,"trial_type":"html-keyboard-response","trial_index":177,"time_elapsed":2518578,"internal_node_id":"0.0-13.0-1.31","match_key":"a","participant_id":"12"},{"rt":536.8950000121258,"stimulus":"Images/train_2.png","key_press":65,"stim_onset":1581648347532,"block":1,"match_type":"match","image_category":"train","sound_category":"train","audio_type":"label","phase":"test","trial_type":"image-keyboard-response","trial_index":178,"time_elapsed":2519116,"internal_node_id":"0.0-13.0-2.31","match_key":"a","participant_id":"12","correct":true},{"rt":null,"stimulus":"Sounds/correct.wav","key_press":null,"block":1,"trial_type":"audio-keyboard-response","trial_index":179,"time_elapsed":2521132,"internal_node_id":"0.0-13.0-3.31","match_key":"a","participant_id":"12"},{"rt":null,"stimulus":"Sounds/cat_label.wav","key_press":null,"block":1,"trial_type":"audio-keyboard-response","trial_index":180,"time_elapsed":2521975,"internal_node_id":"0.0-13.0-0.32","match_key":"a","participant_id":"12"},{"rt":null,"stimulus":"<p style=\"font-size: 48px;\">+</p>","key_press":null,"block":1,"trial_type":"html-keyboard-response","trial_index":181,"time_elapsed":2522979,"internal_node_id":"0.0-13.0-1.32","match_key":"a","participant_id":"12"},{"rt":670.9400000106543,"stimulus":"Images/car_orig.png","key_press":76,"stim_onset":1581648351932,"block":1,"match_type":"non-match","image_category":"car","sound_category":"cat","audio_type":"label","phase":"test","trial_type":"image-keyboard-response","trial_index":182,"time_elapsed":2523652,"internal_node_id":"0.0-13.0-2.32","match_key":"a","participant_id":"12","correct":true},{"rt":null,"stimulus":"Sounds/correct.wav","key_press":null,"block":1,"trial_type":"audio-keyboard-response","trial_index":183,"time_elapsed":2525666,"internal_node_id":"0.0-13.0-3.32","match_key":"a","participant_id":"12"},{"rt":null,"stimulus":"Sounds/cow_sound.wav","key_press":null,"block":1,"trial_type":"audio-keyboard-response","trial_index":184,"time_elapsed":2526675,"internal_node_id":"0.0-13.0-0.33","match_key":"a","participant_id":"12"},{"rt":null,"stimulus":"<p style=\"font-size: 48px;\">+</p>","key_press":null,"block":1,"trial_type":"html-keyboard-response","trial_index":185,"time_elapsed":2527678,"internal_node_id":"0.0-13.0-1.33","match_key":"a","participant_id":"12"},{"rt":756.6300000036135,"stimulus":"Images/cow_3.png","key_press":65,"stim_onset":1581648356632,"block":1,"match_type":"match","image_category":"cow","sound_category":"cow","audio_type":"sound","phase":"test","trial_type":"image-keyboard-response","trial_index":186,"time_elapsed":2528436,"internal_node_id":"0.0-13.0-2.33","match_key":"a","participant_id":"12","correct":true},{"rt":null,"stimulus":"Sounds/correct.wav","key_press":null,"block":1,"trial_type":"audio-keyboard-response","trial_index":187,"time_elapsed":2530449,"internal_node_id":"0.0-13.0-3.33","match_key":"a","participant_id":"12"},{"rt":null,"stimulus":"Sounds/cat_sound.wav","key_press":null,"block":1,"trial_type":"audio-keyboard-response","trial_index":188,"time_elapsed":2531295,"internal_node_id":"0.0-13.0-0.34","match_key":"a","participant_id":"12"},{"rt":null,"stimulus":"<p style=\"font-size: 48px;\">+</p>","key_press":null,"block":1,"trial_type":"html-keyboard-response","trial_index":189,"time_elapsed":2532295,"internal_node_id":"0.0-13.0-1.34","match_key":"a","participant_id":"12"},{"rt":499.9899999969639,"stimulus":"Images/rooster_orig.png","key_press":76,"stim_onset":1581648361249,"block":1,"match_type":"non-match","image_category":"rooster","sound_category":"cat","audio_type":"sound","phase":"test","trial_type":"image-keyboard-response","trial_index":190,"time_elapsed":2532796,"internal_node_id":"0.0-13.0-2.34","match_key":"a","participant_id":"12","correct":true},{"rt":null,"stimulus":"Sounds/correct.wav","key_press":null,"block":1,"trial_type":"audio-keyboard-response","trial_index":191,"time_elapsed":2534800,"internal_node_id":"0.0-13.0-3.34","match_key":"a","participant_id":"12"},{"rt":null,"stimulus":"Sounds/car_sound.wav","key_press":null,"block":1,"trial_type":"audio-keyboard-response","trial_index":192,"time_elapsed":2535875,"internal_node_id":"0.0-13.0-0.35","match_key":"a","participant_id":"12"},{"rt":null,"stimulus":"<p style=\"font-size: 48px;\">+</p>","key_press":null,"block":1,"trial_type":"html-keyboard-response","trial_index":193,"time_elapsed":2536879,"internal_node_id":"0.0-13.0-1.35","match_key":"a","participant_id":"12"},{"rt":884.6250000065193,"stimulus":"Images/cat_1.png","key_press":76,"stim_onset":1581648365833,"block":1,"match_type":"non-match","image_category":"cat","sound_category":"car","audio_type":"sound","phase":"test","trial_type":"image-keyboard-response","trial_index":194,"time_elapsed":2537764,"internal_node_id":"0.0-13.0-2.35","match_key":"a","participant_id":"12","correct":true},{"rt":null,"stimulus":"Sounds/correct.wav","key_press":null,"block":1,"trial_type":"audio-keyboard-response","trial_index":195,"time_elapsed":2539767,"internal_node_id":"0.0-13.0-3.35","match_key":"a","participant_id":"12"},{"rt":null,"stimulus":"Sounds/frog_sound.wav","key_press":null,"block":1,"trial_type":"audio-keyboard-response","trial_index":196,"time_elapsed":2540675,"internal_node_id":"0.0-13.0-0.36","match_key":"a","participant_id":"12"},{"rt":null,"stimulus":"<p style=\"font-size: 48px;\">+</p>","key_press":null,"block":1,"trial_type":"html-keyboard-response","trial_index":197,"time_elapsed":2541678,"internal_node_id":"0.0-13.0-1.36","match_key":"a","participant_id":"12"},{"rt":564.7949999985285,"stimulus":"Images/frog_3.png","key_press":65,"stim_onset":1581648370632,"block":1,"match_type":"match","image_category":"frog","sound_category":"frog","audio_type":"sound","phase":"test","trial_type":"image-keyboard-response","trial_index":198,"time_elapsed":2542244,"internal_node_id":"0.0-13.0-2.36","match_key":"a","participant_id":"12","correct":true},{"rt":null,"stimulus":"Sounds/correct.wav","key_press":null,"block":1,"trial_type":"audio-keyboard-response","trial_index":199,"time_elapsed":2544254,"internal_node_id":"0.0-13.0-3.36","match_key":"a","participant_id":"12"},{"rt":null,"stimulus":"Sounds/rooster_label.wav","key_press":null,"block":1,"trial_type":"audio-keyboard-response","trial_index":200,"time_elapsed":2544955,"internal_node_id":"0.0-13.0-0.37","match_key":"a","participant_id":"12"},{"rt":null,"stimulus":"<p style=\"font-size: 48px;\">+</p>","key_press":null,"block":1,"trial_type":"html-keyboard-response","trial_index":201,"time_elapsed":2545945,"internal_node_id":"0.0-13.0-1.37","match_key":"a","participant_id":"12"},{"rt":866.1250000004657,"stimulus":"Images/frog_3.png","key_press":76,"stim_onset":1581648374899,"block":1,"match_type":"non-match","image_category":"frog","sound_category":"rooster","audio_type":"label","phase":"test","trial_type":"image-keyboard-response","trial_index":202,"time_elapsed":2546812,"internal_node_id":"0.0-13.0-2.37","match_key":"a","participant_id":"12","correct":true},{"rt":null,"stimulus":"Sounds/correct.wav","key_press":null,"block":1,"trial_type":"audio-keyboard-response","trial_index":203,"time_elapsed":2548819,"internal_node_id":"0.0-13.0-3.37","match_key":"a","participant_id":"12"},{"rt":null,"stimulus":"Sounds/whistle_sound.wav","key_press":null,"block":1,"trial_type":"audio-keyboard-response","trial_index":204,"time_elapsed":2549515,"internal_node_id":"0.0-13.0-0.38","match_key":"a","participant_id":"12"},{"rt":null,"stimulus":"<p style=\"font-size: 48px;\">+</p>","key_press":null,"block":1,"trial_type":"html-keyboard-response","trial_index":205,"time_elapsed":2550512,"internal_node_id":"0.0-13.0-1.38","match_key":"a","participant_id":"12"},{"rt":515.0449999929406,"stimulus":"Images/dog_2.png","key_press":76,"stim_onset":1581648379466,"block":1,"match_type":"non-match","image_category":"dog","sound_category":"whistle","audio_type":"sound","phase":"test","trial_type":"image-keyboard-response","trial_index":206,"time_elapsed":2551028,"internal_node_id":"0.0-13.0-2.38","match_key":"a","participant_id":"12","correct":true},{"rt":null,"stimulus":"Sounds/correct.wav","key_press":null,"block":1,"trial_type":"audio-keyboard-response","trial_index":207,"time_elapsed":2553034,"internal_node_id":"0.0-13.0-3.38","match_key":"a","participant_id":"12"},{"rt":null,"stimulus":"Sounds/rooster_label.wav","key_press":null,"block":1,"trial_type":"audio-keyboard-response","trial_index":208,"time_elapsed":2553715,"internal_node_id":"0.0-13.0-0.39","match_key":"a","participant_id":"12"},{"rt":null,"stimulus":"<p style=\"font-size: 48px;\">+</p>","key_press":null,"block":1,"trial_type":"html-keyboard-response","trial_index":209,"time_elapsed":2554712,"internal_node_id":"0.0-13.0-1.39","match_key":"a","participant_id":"12"},{"rt":618.9550000126474,"stimulus":"Images/rooster_1.png","key_press":65,"stim_onset":1581648383666,"block":1,"match_type":"match","image_category":"rooster","sound_category":"rooster","audio_type":"label","phase":"test","trial_type":"image-keyboard-response","trial_index":210,"time_elapsed":2555332,"internal_node_id":"0.0-13.0-2.39","match_key":"a","participant_id":"12","correct":true},{"rt":null,"stimulus":"Sounds/correct.wav","key_press":null,"block":1,"trial_type":"audio-keyboard-response","trial_index":211,"time_elapsed":2557349,"internal_node_id":"0.0-13.0-3.39","match_key":"a","participant_id":"12"},{"rt":null,"stimulus":"Sounds/dog_label.wav","key_press":null,"block":1,"trial_type":"audio-keyboard-response","trial_index":212,"time_elapsed":2558015,"internal_node_id":"0.0-13.0-0.40","match_key":"a","participant_id":"12"},{"rt":null,"stimulus":"<p style=\"font-size: 48px;\">+</p>","key_press":null,"block":1,"trial_type":"html-keyboard-response","trial_index":213,"time_elapsed":2559012,"internal_node_id":"0.0-13.0-1.40","match_key":"a","participant_id":"12"},{"rt":519.1400000038557,"stimulus":"Images/dog_1.png","key_press":65,"stim_onset":1581648387966,"block":1,"match_type":"match","image_category":"dog","sound_category":"dog","audio_type":"label","phase":"test","trial_type":"image-keyboard-response","trial_index":214,"time_elapsed":2559532,"internal_node_id":"0.0-13.0-2.40","match_key":"a","participant_id":"12","correct":true},{"rt":null,"stimulus":"Sounds/correct.wav","key_press":null,"block":1,"trial_type":"audio-keyboard-response","trial_index":215,"time_elapsed":2561536,"internal_node_id":"0.0-13.0-3.40","match_key":"a","participant_id":"12"},{"rt":null,"stimulus":"Sounds/rooster_sound.wav","key_press":null,"block":1,"trial_type":"audio-keyboard-response","trial_index":216,"time_elapsed":2562235,"internal_node_id":"0.0-13.0-0.41","match_key":"a","participant_id":"12"},{"rt":null,"stimulus":"<p style=\"font-size: 48px;\">+</p>","key_press":null,"block":1,"trial_type":"html-keyboard-response","trial_index":217,"time_elapsed":2563229,"internal_node_id":"0.0-13.0-1.41","match_key":"a","participant_id":"12"},{"rt":526.0949999936856,"stimulus":"Images/rooster_2.png","key_press":65,"stim_onset":1581648392183,"block":1,"match_type":"match","image_category":"rooster","sound_category":"rooster","audio_type":"sound","phase":"test","trial_type":"image-keyboard-response","trial_index":218,"time_elapsed":2563756,"internal_node_id":"0.0-13.0-2.41","match_key":"a","participant_id":"12","correct":true},{"rt":null,"stimulus":"Sounds/correct.wav","key_press":null,"block":1,"trial_type":"audio-keyboard-response","trial_index":219,"time_elapsed":2565766,"internal_node_id":"0.0-13.0-3.41","match_key":"a","participant_id":"12"},{"rt":null,"stimulus":"Sounds/rooster_label.wav","key_press":null,"block":1,"trial_type":"audio-keyboard-response","trial_index":220,"time_elapsed":2566435,"internal_node_id":"0.0-13.0-0.42","match_key":"a","participant_id":"12"},{"rt":null,"stimulus":"<p style=\"font-size: 48px;\">+</p>","key_press":null,"block":1,"trial_type":"html-keyboard-response","trial_index":221,"time_elapsed":2567429,"internal_node_id":"0.0-13.0-1.42","match_key":"a","participant_id":"12"},{"rt":534.234999999404,"stimulus":"Images/train_1.png","key_press":76,"stim_onset":1581648396383,"block":1,"match_type":"non-match","image_category":"train","sound_category":"rooster","audio_type":"label","phase":"test","trial_type":"image-keyboard-response","trial_index":222,"time_elapsed":2567964,"internal_node_id":"0.0-13.0-2.42","match_key":"a","participant_id":"12","correct":true},{"rt":null,"stimulus":"Sounds/correct.wav","key_press":null,"block":1,"trial_type":"audio-keyboard-response","trial_index":223,"time_elapsed":2569967,"internal_node_id":"0.0-13.0-3.42","match_key":"a","participant_id":"12"},{"rt":null,"stimulus":"Sounds/cat_label.wav","key_press":null,"block":1,"trial_type":"audio-keyboard-response","trial_index":224,"time_elapsed":2570815,"internal_node_id":"0.0-13.0-0.43","match_key":"a","participant_id":"12"},{"rt":null,"stimulus":"<p style=\"font-size: 48px;\">+</p>","key_press":null,"block":1,"trial_type":"html-keyboard-response","trial_index":225,"time_elapsed":2571812,"internal_node_id":"0.0-13.0-1.43","match_key":"a","participant_id":"12"},{"rt":535.0699999979697,"stimulus":"Images/cat_1.png","key_press":65,"stim_onset":1581648400766,"block":1,"match_type":"match","image_category":"cat","sound_category":"cat","audio_type":"label","phase":"test","trial_type":"image-keyboard-response","trial_index":226,"time_elapsed":2572348,"internal_node_id":"0.0-13.0-2.43","match_key":"a","participant_id":"12","correct":true},{"rt":null,"stimulus":"Sounds/correct.wav","key_press":null,"block":1,"trial_type":"audio-keyboard-response","trial_index":227,"time_elapsed":2574366,"internal_node_id":"0.0-13.0-3.43","match_key":"a","participant_id":"12"},{"rt":null,"stimulus":"Sounds/motorcycle_label.wav","key_press":null,"block":1,"trial_type":"audio-keyboard-response","trial_index":228,"time_elapsed":2575495,"internal_node_id":"0.0-13.0-0.44","match_key":"a","participant_id":"12"},{"rt":null,"stimulus":"<p style=\"font-size: 48px;\">+</p>","key_press":null,"block":1,"trial_type":"html-keyboard-response","trial_index":229,"time_elapsed":2576512,"internal_node_id":"0.0-13.0-1.44","match_key":"a","participant_id":"12"},{"rt":762.8399999961257,"stimulus":"Images/car_2.png","key_press":65,"stim_onset":1581648405466,"block":1,"match_type":"non-match","image_category":"car","sound_category":"motorcycle","audio_type":"label","phase":"test","trial_type":"image-keyboard-response","trial_index":230,"time_elapsed":2577276,"internal_node_id":"0.0-13.0-2.44","match_key":"a","participant_id":"12","correct":false},{"rt":null,"stimulus":"Sounds/incorrect.wav","key_press":null,"block":1,"trial_type":"audio-keyboard-response","trial_index":231,"time_elapsed":2579291,"internal_node_id":"0.0-13.0-3.44","match_key":"a","participant_id":"12"},{"rt":null,"stimulus":"Sounds/cat_sound.wav","key_press":null,"block":1,"trial_type":"audio-keyboard-response","trial_index":232,"time_elapsed":2580135,"internal_node_id":"0.0-13.0-0.45","match_key":"a","participant_id":"12"},{"rt":null,"stimulus":"<p style=\"font-size: 48px;\">+</p>","key_press":null,"block":1,"trial_type":"html-keyboard-response","trial_index":233,"time_elapsed":2581129,"internal_node_id":"0.0-13.0-1.45","match_key":"a","participant_id":"12"},{"rt":890.2549999910407,"stimulus":"Images/whistle_cartoon.png","key_press":76,"stim_onset":1581648410083,"block":1,"match_type":"non-match","image_category":"whistle","sound_category":"cat","audio_type":"sound","phase":"test","trial_type":"image-keyboard-response","trial_index":234,"time_elapsed":2582020,"internal_node_id":"0.0-13.0-2.45","match_key":"a","participant_id":"12","correct":true},{"rt":null,"stimulus":"Sounds/correct.wav","key_press":null,"block":1,"trial_type":"audio-keyboard-response","trial_index":235,"time_elapsed":2584033,"internal_node_id":"0.0-13.0-3.45","match_key":"a","participant_id":"12"},{"rt":null,"stimulus":"Sounds/gun_sound.wav","key_press":null,"block":1,"trial_type":"audio-keyboard-response","trial_index":236,"time_elapsed":2584615,"internal_node_id":"0.0-13.0-0.46","match_key":"a","participant_id":"12"},{"rt":null,"stimulus":"<p style=\"font-size: 48px;\">+</p>","key_press":null,"block":1,"trial_type":"html-keyboard-response","trial_index":237,"time_elapsed":2585612,"internal_node_id":"0.0-13.0-1.46","match_key":"a","participant_id":"12"},{"rt":574.7650000122376,"stimulus":"Images/gun_cartoon.png","key_press":76,"stim_onset":1581648414566,"block":1,"match_type":"match","image_category":"gun","sound_category":"gun","audio_type":"sound","phase":"test","trial_type":"image-keyboard-response","trial_index":238,"time_elapsed":2586188,"internal_node_id":"0.0-13.0-2.46","match_key":"a","participant_id":"12","correct":false},{"rt":null,"stimulus":"Sounds/incorrect.wav","key_press":null,"block":1,"trial_type":"audio-keyboard-response","trial_index":239,"time_elapsed":2588200,"internal_node_id":"0.0-13.0-3.46","match_key":"a","participant_id":"12"},{"rt":null,"stimulus":"Sounds/cow_label.wav","key_press":null,"block":1,"trial_type":"audio-keyboard-response","trial_index":240,"time_elapsed":2589215,"internal_node_id":"0.0-13.0-0.47","match_key":"a","participant_id":"12"},{"rt":null,"stimulus":"<p style=\"font-size: 48px;\">+</p>","key_press":null,"block":1,"trial_type":"html-keyboard-response","trial_index":241,"time_elapsed":2590212,"internal_node_id":"0.0-13.0-1.47","match_key":"a","participant_id":"12"},{"rt":782.7399999951012,"stimulus":"Images/cow_orig.png","key_press":65,"stim_onset":1581648419167,"block":1,"match_type":"match","image_category":"cow","sound_category":"cow","audio_type":"label","phase":"test","trial_type":"image-keyboard-response","trial_index":242,"time_elapsed":2590996,"internal_node_id":"0.0-13.0-2.47","match_key":"a","participant_id":"12","correct":true},{"rt":null,"stimulus":"Sounds/correct.wav","key_press":null,"block":1,"trial_type":"audio-keyboard-response","trial_index":243,"time_elapsed":2593001,"internal_node_id":"0.0-13.0-3.47","match_key":"a","participant_id":"12"},{"rt":null,"stimulus":"Sounds/car_label.wav","key_press":null,"block":1,"trial_type":"audio-keyboard-response","trial_index":244,"time_elapsed":2594075,"internal_node_id":"0.0-13.0-0.48","match_key":"a","participant_id":"12"},{"rt":null,"stimulus":"<p style=\"font-size: 48px;\">+</p>","key_press":null,"block":1,"trial_type":"html-keyboard-response","trial_index":245,"time_elapsed":2595079,"internal_node_id":"0.0-13.0-1.48","match_key":"a","participant_id":"12"},{"rt":1972.1850000061095,"stimulus":"Images/frog_cartoon.png","key_press":76,"stim_onset":1581648424033,"block":1,"match_type":"non-match","image_category":"frog","sound_category":"car","audio_type":"label","phase":"test","trial_type":"image-keyboard-response","trial_index":246,"time_elapsed":2597052,"internal_node_id":"0.0-13.0-2.48","match_key":"a","participant_id":"12","correct":true},{"rt":null,"stimulus":"Sounds/correct.wav","key_press":null,"block":1,"trial_type":"audio-keyboard-response","trial_index":247,"time_elapsed":2599068,"internal_node_id":"0.0-13.0-3.48","match_key":"a","participant_id":"12"},{"rt":null,"stimulus":"Sounds/rooster_label.wav","key_press":null,"block":1,"trial_type":"audio-keyboard-response","trial_index":248,"time_elapsed":2599775,"internal_node_id":"0.0-13.0-0.49","match_key":"a","participant_id":"12"},{"rt":null,"stimulus":"<p style=\"font-size: 48px;\">+</p>","key_press":null,"block":1,"trial_type":"html-keyboard-response","trial_index":249,"time_elapsed":2600779,"internal_node_id":"0.0-13.0-1.49","match_key":"a","participant_id":"12"},{"rt":751.5450000064448,"stimulus":"Images/rooster_cartoon.png","key_press":65,"stim_onset":1581648429733,"block":1,"match_type":"match","image_category":"rooster","sound_category":"rooster","audio_type":"label","phase":"test","trial_type":"image-keyboard-response","trial_index":250,"time_elapsed":2601532,"internal_node_id":"0.0-13.0-2.49","match_key":"a","participant_id":"12","correct":true},{"rt":null,"stimulus":"Sounds/correct.wav","key_press":null,"block":1,"trial_type":"audio-keyboard-response","trial_index":251,"time_elapsed":2603550,"internal_node_id":"0.0-13.0-3.49","match_key":"a","participant_id":"12"},{"rt":null,"stimulus":"Sounds/motorcycle_label.wav","key_press":null,"block":1,"trial_type":"audio-keyboard-response","trial_index":252,"time_elapsed":2604695,"internal_node_id":"0.0-13.0-0.50","match_key":"a","participant_id":"12"},{"rt":null,"stimulus":"<p style=\"font-size: 48px;\">+</p>","key_press":null,"block":1,"trial_type":"html-keyboard-response","trial_index":253,"time_elapsed":2605712,"internal_node_id":"0.0-13.0-1.50","match_key":"a","participant_id":"12"},{"rt":746.5599999995902,"stimulus":"Images/motorcycle_orig.png","key_press":65,"stim_onset":1581648434667,"block":1,"match_type":"match","image_category":"motorcycle","sound_category":"motorcycle","audio_type":"label","phase":"test","trial_type":"image-keyboard-response","trial_index":254,"time_elapsed":2606460,"internal_node_id":"0.0-13.0-2.50","match_key":"a","participant_id":"12","correct":true},{"rt":null,"stimulus":"Sounds/correct.wav","key_press":null,"block":1,"trial_type":"audio-keyboard-response","trial_index":255,"time_elapsed":2608468,"internal_node_id":"0.0-13.0-3.50","match_key":"a","participant_id":"12"},{"rt":null,"stimulus":"Sounds/whistle_label.wav","key_press":null,"block":1,"trial_type":"audio-keyboard-response","trial_index":256,"time_elapsed":2609175,"internal_node_id":"0.0-13.0-0.51","match_key":"a","participant_id":"12"},{"rt":null,"stimulus":"<p style=\"font-size: 48px;\">+</p>","key_press":null,"block":1,"trial_type":"html-keyboard-response","trial_index":257,"time_elapsed":2610180,"internal_node_id":"0.0-13.0-1.51","match_key":"a","participant_id":"12"},{"rt":791.8700000010431,"stimulus":"Images/gun_1.png","key_press":76,"stim_onset":1581648439133,"block":1,"match_type":"non-match","image_category":"gun","sound_category":"whistle","audio_type":"label","phase":"test","trial_type":"image-keyboard-response","trial_index":258,"time_elapsed":2610973,"internal_node_id":"0.0-13.0-2.51","match_key":"a","participant_id":"12","correct":true},{"rt":null,"stimulus":"Sounds/correct.wav","key_press":null,"block":1,"trial_type":"audio-keyboard-response","trial_index":259,"time_elapsed":2612983,"internal_node_id":"0.0-13.0-3.51","match_key":"a","participant_id":"12"},{"rt":null,"stimulus":"Sounds/rooster_sound.wav","key_press":null,"block":1,"trial_type":"audio-keyboard-response","trial_index":260,"time_elapsed":2613675,"internal_node_id":"0.0-13.0-0.52","match_key":"a","participant_id":"12"},{"rt":null,"stimulus":"<p style=\"font-size: 48px;\">+</p>","key_press":null,"block":1,"trial_type":"html-keyboard-response","trial_index":261,"time_elapsed":2614680,"internal_node_id":"0.0-13.0-1.52","match_key":"a","participant_id":"12"},{"rt":811.9250000016764,"stimulus":"Images/rooster_3.png","key_press":65,"stim_onset":1581648443634,"block":1,"match_type":"match","image_category":"rooster","sound_category":"rooster","audio_type":"sound","phase":"test","trial_type":"image-keyboard-response","trial_index":262,"time_elapsed":2615492,"internal_node_id":"0.0-13.0-2.52","match_key":"a","participant_id":"12","correct":true},{"rt":null,"stimulus":"Sounds/correct.wav","key_press":null,"block":1,"trial_type":"audio-keyboard-response","trial_index":263,"time_elapsed":2617502,"internal_node_id":"0.0-13.0-3.52","match_key":"a","participant_id":"12"},{"rt":null,"stimulus":"Sounds/cow_label.wav","key_press":null,"block":1,"trial_type":"audio-keyboard-response","trial_index":264,"time_elapsed":2618515,"internal_node_id":"0.0-13.0-0.53","match_key":"a","participant_id":"12"},{"rt":null,"stimulus":"<p style=\"font-size: 48px;\">+</p>","key_press":null,"block":1,"trial_type":"html-keyboard-response","trial_index":265,"time_elapsed":2619513,"internal_node_id":"0.0-13.0-1.53","match_key":"a","participant_id":"12"},{"rt":842.3249999904074,"stimulus":"Images/train_orig.png","key_press":65,"stim_onset":1581648448467,"block":1,"match_type":"non-match","image_category":"train","sound_category":"cow","audio_type":"label","phase":"test","trial_type":"image-keyboard-response","trial_index":266,"time_elapsed":2620356,"internal_node_id":"0.0-13.0-2.53","match_key":"a","participant_id":"12","correct":false},{"rt":null,"stimulus":"Sounds/incorrect.wav","key_press":null,"block":1,"trial_type":"audio-keyboard-response","trial_index":267,"time_elapsed":2622366,"internal_node_id":"0.0-13.0-3.53","match_key":"a","participant_id":"12"},{"rt":null,"stimulus":"Sounds/motorcycle_label.wav","key_press":null,"block":1,"trial_type":"audio-keyboard-response","trial_index":268,"time_elapsed":2623495,"internal_node_id":"0.0-13.0-0.54","match_key":"a","participant_id":"12"},{"rt":null,"stimulus":"<p style=\"font-size: 48px;\">+</p>","key_press":null,"block":1,"trial_type":"html-keyboard-response","trial_index":269,"time_elapsed":2624513,"internal_node_id":"0.0-13.0-1.54","match_key":"a","participant_id":"12"},{"rt":1386.3899999996647,"stimulus":"Images/train_3.png","key_press":76,"stim_onset":1581648453467,"block":1,"match_type":"non-match","image_category":"train","sound_category":"motorcycle","audio_type":"label","phase":"test","trial_type":"image-keyboard-response","trial_index":270,"time_elapsed":2625900,"internal_node_id":"0.0-13.0-2.54","match_key":"a","participant_id":"12","correct":true},{"rt":null,"stimulus":"Sounds/correct.wav","key_press":null,"block":1,"trial_type":"audio-keyboard-response","trial_index":271,"time_elapsed":2627905,"internal_node_id":"0.0-13.0-3.54","match_key":"a","participant_id":"12"},{"rt":null,"stimulus":"Sounds/motorcycle_sound.wav","key_press":null,"block":1,"trial_type":"audio-keyboard-response","trial_index":272,"time_elapsed":2629015,"internal_node_id":"0.0-13.0-0.55","match_key":"a","participant_id":"12"},{"rt":null,"stimulus":"<p style=\"font-size: 48px;\">+</p>","key_press":null,"block":1,"trial_type":"html-keyboard-response","trial_index":273,"time_elapsed":2630013,"internal_node_id":"0.0-13.0-1.55","match_key":"a","participant_id":"12"},{"rt":678.0999999903142,"stimulus":"Images/motorcycle_1.png","key_press":65,"stim_onset":1581648458967,"block":1,"match_type":"match","image_category":"motorcycle","sound_category":"motorcycle","audio_type":"sound","phase":"test","trial_type":"image-keyboard-response","trial_index":274,"time_elapsed":2630692,"internal_node_id":"0.0-13.0-2.55","match_key":"a","participant_id":"12","correct":true},{"rt":null,"stimulus":"Sounds/correct.wav","key_press":null,"block":1,"trial_type":"audio-keyboard-response","trial_index":275,"time_elapsed":2632702,"internal_node_id":"0.0-13.0-3.55","match_key":"a","participant_id":"12"},{"rt":null,"stimulus":"Sounds/cat_sound.wav","key_press":null,"block":1,"trial_type":"audio-keyboard-response","trial_index":276,"time_elapsed":2633535,"internal_node_id":"0.0-13.0-0.56","match_key":"a","participant_id":"12"},{"rt":null,"stimulus":"<p style=\"font-size: 48px;\">+</p>","key_press":null,"block":1,"trial_type":"html-keyboard-response","trial_index":277,"time_elapsed":2634530,"internal_node_id":"0.0-13.0-1.56","match_key":"a","participant_id":"12"},{"rt":1249.5000000051223,"stimulus":"Images/train_2.png","key_press":76,"stim_onset":1581648463484,"block":1,"match_type":"non-match","image_category":"train","sound_category":"cat","audio_type":"sound","phase":"test","trial_type":"image-keyboard-response","trial_index":278,"time_elapsed":2635780,"internal_node_id":"0.0-13.0-2.56","match_key":"a","participant_id":"12","correct":true},{"rt":null,"stimulus":"Sounds/correct.wav","key_press":null,"block":1,"trial_type":"audio-keyboard-response","trial_index":279,"time_elapsed":2637786,"internal_node_id":"0.0-13.0-3.56","match_key":"a","participant_id":"12"},{"rt":null,"stimulus":"Sounds/cat_sound.wav","key_press":null,"block":1,"trial_type":"audio-keyboard-response","trial_index":280,"time_elapsed":2638595,"internal_node_id":"0.0-13.0-0.57","match_key":"a","participant_id":"12"},{"rt":null,"stimulus":"<p style=\"font-size: 48px;\">+</p>","key_press":null,"block":1,"trial_type":"html-keyboard-response","trial_index":281,"time_elapsed":2639630,"internal_node_id":"0.0-13.0-1.57","match_key":"a","participant_id":"12"},{"rt":1005.7400000081398,"stimulus":"Images/cat_orig.png","key_press":65,"stim_onset":1581648468584,"block":1,"match_type":"match","image_category":"cat","sound_category":"cat","audio_type":"sound","phase":"test","trial_type":"image-keyboard-response","trial_index":282,"time_elapsed":2640637,"internal_node_id":"0.0-13.0-2.57","match_key":"a","participant_id":"12","correct":true},{"rt":null,"stimulus":"Sounds/correct.wav","key_press":null,"block":1,"trial_type":"audio-keyboard-response","trial_index":283,"time_elapsed":2642651,"internal_node_id":"0.0-13.0-3.57","match_key":"a","participant_id":"12"},{"rt":null,"stimulus":"Sounds/whistle_sound.wav","key_press":null,"block":1,"trial_type":"audio-keyboard-response","trial_index":284,"time_elapsed":2643355,"internal_node_id":"0.0-13.0-0.58","match_key":"a","participant_id":"12"},{"rt":null,"stimulus":"<p style=\"font-size: 48px;\">+</p>","key_press":null,"block":1,"trial_type":"html-keyboard-response","trial_index":285,"time_elapsed":2644346,"internal_node_id":"0.0-13.0-1.58","match_key":"a","participant_id":"12"},{"rt":976.9599999999627,"stimulus":"Images/whistle_2.png","key_press":65,"stim_onset":1581648473301,"block":1,"match_type":"match","image_category":"whistle","sound_category":"whistle","audio_type":"sound","phase":"test","trial_type":"image-keyboard-response","trial_index":286,"time_elapsed":2645324,"internal_node_id":"0.0-13.0-2.58","match_key":"a","participant_id":"12","correct":true},{"rt":null,"stimulus":"Sounds/correct.wav","key_press":null,"block":1,"trial_type":"audio-keyboard-response","trial_index":287,"time_elapsed":2647333,"internal_node_id":"0.0-13.0-3.58","match_key":"a","participant_id":"12"},{"rt":null,"stimulus":"Sounds/motorcycle_sound.wav","key_press":null,"block":1,"trial_type":"audio-keyboard-response","trial_index":288,"time_elapsed":2648435,"internal_node_id":"0.0-13.0-0.59","match_key":"a","participant_id":"12"},{"rt":null,"stimulus":"<p style=\"font-size: 48px;\">+</p>","key_press":null,"block":1,"trial_type":"html-keyboard-response","trial_index":289,"time_elapsed":2649430,"internal_node_id":"0.0-13.0-1.59","match_key":"a","participant_id":"12"},{"rt":717.3650000039488,"stimulus":"Images/motorcycle_2.png","key_press":65,"stim_onset":1581648478384,"block":1,"match_type":"match","image_category":"motorcycle","sound_category":"motorcycle","audio_type":"sound","phase":"test","trial_type":"image-keyboard-response","trial_index":290,"time_elapsed":2650148,"internal_node_id":"0.0-13.0-2.59","match_key":"a","participant_id":"12","correct":true},{"rt":null,"stimulus":"Sounds/correct.wav","key_press":null,"block":1,"trial_type":"audio-keyboard-response","trial_index":291,"time_elapsed":2652152,"internal_node_id":"0.0-13.0-3.59","match_key":"a","participant_id":"12"},{"rt":null,"stimulus":"Sounds/cow_label.wav","key_press":null,"block":1,"trial_type":"audio-keyboard-response","trial_index":292,"time_elapsed":2653175,"internal_node_id":"0.0-13.0-0.60","match_key":"a","participant_id":"12"},{"rt":null,"stimulus":"<p style=\"font-size: 48px;\">+</p>","key_press":null,"block":1,"trial_type":"html-keyboard-response","trial_index":293,"time_elapsed":2654180,"internal_node_id":"0.0-13.0-1.60","match_key":"a","participant_id":"12"},{"rt":551.554999998305,"stimulus":"Images/cow_cartoon.png","key_press":65,"stim_onset":1581648483134,"block":1,"match_type":"match","image_category":"cow","sound_category":"cow","audio_type":"label","phase":"test","trial_type":"image-keyboard-response","trial_index":294,"time_elapsed":2654733,"internal_node_id":"0.0-13.0-2.60","match_key":"a","participant_id":"12","correct":true},{"rt":null,"stimulus":"Sounds/correct.wav","key_press":null,"block":1,"trial_type":"audio-keyboard-response","trial_index":295,"time_elapsed":2656735,"internal_node_id":"0.0-13.0-3.60","match_key":"a","participant_id":"12"},{"rt":null,"stimulus":"Sounds/frog_label.wav","key_press":null,"block":1,"trial_type":"audio-keyboard-response","trial_index":296,"time_elapsed":2657635,"internal_node_id":"0.0-13.0-0.61","match_key":"a","participant_id":"12"},{"rt":null,"stimulus":"<p style=\"font-size: 48px;\">+</p>","key_press":null,"block":1,"trial_type":"html-keyboard-response","trial_index":297,"time_elapsed":2658630,"internal_node_id":"0.0-13.0-1.61","match_key":"a","participant_id":"12"},{"rt":573.214999997057,"stimulus":"Images/frog_cartoon.png","key_press":65,"stim_onset":1581648487584,"block":1,"match_type":"match","image_category":"frog","sound_category":"frog","audio_type":"label","phase":"test","trial_type":"image-keyboard-response","trial_index":298,"time_elapsed":2659204,"internal_node_id":"0.0-13.0-2.61","match_key":"a","participant_id":"12","correct":true},{"rt":null,"stimulus":"Sounds/correct.wav","key_press":null,"block":1,"trial_type":"audio-keyboard-response","trial_index":299,"time_elapsed":2661219,"internal_node_id":"0.0-13.0-3.61","match_key":"a","participant_id":"12"},{"rt":null,"stimulus":"Sounds/whistle_label.wav","key_press":null,"block":1,"trial_type":"audio-keyboard-response","trial_index":300,"time_elapsed":2661915,"internal_node_id":"0.0-13.0-0.62","match_key":"a","participant_id":"12"},{"rt":null,"stimulus":"<p style=\"font-size: 48px;\">+</p>","key_press":null,"block":1,"trial_type":"html-keyboard-response","trial_index":301,"time_elapsed":2662913,"internal_node_id":"0.0-13.0-1.62","match_key":"a","participant_id":"12"},{"rt":977.8249999945983,"stimulus":"Images/whistle_3.png","key_press":65,"stim_onset":1581648491867,"block":1,"match_type":"match","image_category":"whistle","sound_category":"whistle","audio_type":"label","phase":"test","trial_type":"image-keyboard-response","trial_index":302,"time_elapsed":2663892,"internal_node_id":"0.0-13.0-2.62","match_key":"a","participant_id":"12","correct":true},{"rt":null,"stimulus":"Sounds/correct.wav","key_press":null,"block":1,"trial_type":"audio-keyboard-response","trial_index":303,"time_elapsed":2665900,"internal_node_id":"0.0-13.0-3.62","match_key":"a","participant_id":"12"},{"rt":null,"stimulus":"Sounds/gun_sound.wav","key_press":null,"block":1,"trial_type":"audio-keyboard-response","trial_index":304,"time_elapsed":2666475,"internal_node_id":"0.0-13.0-0.63","match_key":"a","participant_id":"12"},{"rt":null,"stimulus":"<p style=\"font-size: 48px;\">+</p>","key_press":null,"block":1,"trial_type":"html-keyboard-response","trial_index":305,"time_elapsed":2667463,"internal_node_id":"0.0-13.0-1.63","match_key":"a","participant_id":"12"},{"rt":1387.9649999872781,"stimulus":"Images/gun_3.png","key_press":65,"stim_onset":1581648496418,"block":1,"match_type":"match","image_category":"gun","sound_category":"gun","audio_type":"sound","phase":"test","trial_type":"image-keyboard-response","trial_index":306,"time_elapsed":2668852,"internal_node_id":"0.0-13.0-2.63","match_key":"a","participant_id":"12","correct":true},{"rt":null,"stimulus":"Sounds/correct.wav","key_press":null,"block":1,"trial_type":"audio-keyboard-response","trial_index":307,"time_elapsed":2670870,"internal_node_id":"0.0-13.0-3.63","match_key":"a","participant_id":"12"},{"rt":null,"stimulus":"Sounds/car_sound.wav","key_press":null,"block":1,"trial_type":"audio-keyboard-response","trial_index":308,"time_elapsed":2671955,"internal_node_id":"0.0-13.0-0.64","match_key":"a","participant_id":"12"},{"rt":null,"stimulus":"<p style=\"font-size: 48px;\">+</p>","key_press":null,"block":1,"trial_type":"html-keyboard-response","trial_index":309,"time_elapsed":2672947,"internal_node_id":"0.0-13.0-1.64","match_key":"a","participant_id":"12"},{"rt":520.4100000122562,"stimulus":"Images/car_orig.png","key_press":65,"stim_onset":1581648501901,"block":1,"match_type":"match","image_category":"car","sound_category":"car","audio_type":"sound","phase":"test","trial_type":"image-keyboard-response","trial_index":310,"time_elapsed":2673469,"internal_node_id":"0.0-13.0-2.64","match_key":"a","participant_id":"12","correct":true},{"rt":null,"stimulus":"Sounds/correct.wav","key_press":null,"block":1,"trial_type":"audio-keyboard-response","trial_index":311,"time_elapsed":2675485,"internal_node_id":"0.0-13.0-3.64","match_key":"a","participant_id":"12"},{"rt":null,"stimulus":"Sounds/dog_label.wav","key_press":null,"block":1,"trial_type":"audio-keyboard-response","trial_index":312,"time_elapsed":2676135,"internal_node_id":"0.0-13.0-0.65","match_key":"a","participant_id":"12"},{"rt":null,"stimulus":"<p style=\"font-size: 48px;\">+</p>","key_press":null,"block":1,"trial_type":"html-keyboard-response","trial_index":313,"time_elapsed":2677130,"internal_node_id":"0.0-13.0-1.65","match_key":"a","participant_id":"12"},{"rt":657.1450000046752,"stimulus":"Images/dog_cartoon.png","key_press":65,"stim_onset":1581648506085,"block":1,"match_type":"match","image_category":"dog","sound_category":"dog","audio_type":"label","phase":"test","trial_type":"image-keyboard-response","trial_index":314,"time_elapsed":2677789,"internal_node_id":"0.0-13.0-2.65","match_key":"a","participant_id":"12","correct":true},{"rt":null,"stimulus":"Sounds/correct.wav","key_press":null,"block":1,"trial_type":"audio-keyboard-response","trial_index":315,"time_elapsed":2679801,"internal_node_id":"0.0-13.0-3.65","match_key":"a","participant_id":"12"},{"rt":null,"stimulus":"Sounds/whistle_sound.wav","key_press":null,"block":1,"trial_type":"audio-keyboard-response","trial_index":316,"time_elapsed":2680495,"internal_node_id":"0.0-13.0-0.66","match_key":"a","participant_id":"12"},{"rt":null,"stimulus":"<p style=\"font-size: 48px;\">+</p>","key_press":null,"block":1,"trial_type":"html-keyboard-response","trial_index":317,"time_elapsed":2681497,"internal_node_id":"0.0-13.0-1.66","match_key":"a","participant_id":"12"},{"rt":530.5099999965169,"stimulus":"Images/motorcycle_orig.png","key_press":76,"stim_onset":1581648510452,"block":1,"match_type":"non-match","image_category":"motorcycle","sound_category":"whistle","audio_type":"sound","phase":"test","trial_type":"image-keyboard-response","trial_index":318,"time_elapsed":2682029,"internal_node_id":"0.0-13.0-2.66","match_key":"a","participant_id":"12","correct":true},{"rt":null,"stimulus":"Sounds/correct.wav","key_press":null,"block":1,"trial_type":"audio-keyboard-response","trial_index":319,"time_elapsed":2684038,"internal_node_id":"0.0-13.0-3.66","match_key":"a","participant_id":"12"},{"rt":null,"stimulus":"Sounds/dog_label.wav","key_press":null,"block":1,"trial_type":"audio-keyboard-response","trial_index":320,"time_elapsed":2684675,"internal_node_id":"0.0-13.0-0.67","match_key":"a","participant_id":"12"},{"rt":null,"stimulus":"<p style=\"font-size: 48px;\">+</p>","key_press":null,"block":1,"trial_type":"html-keyboard-response","trial_index":321,"time_elapsed":2685664,"internal_node_id":"0.0-13.0-1.67","match_key":"a","participant_id":"12"},{"rt":571.5899999924004,"stimulus":"Images/dog_2.png","key_press":65,"stim_onset":1581648514618,"block":1,"match_type":"match","image_category":"dog","sound_category":"dog","audio_type":"label","phase":"test","trial_type":"image-keyboard-response","trial_index":322,"time_elapsed":2686237,"internal_node_id":"0.0-13.0-2.67","match_key":"a","participant_id":"12","correct":true},{"rt":null,"stimulus":"Sounds/correct.wav","key_press":null,"block":1,"trial_type":"audio-keyboard-response","trial_index":323,"time_elapsed":2688251,"internal_node_id":"0.0-13.0-3.67","match_key":"a","participant_id":"12"},{"rt":null,"stimulus":"Sounds/frog_sound.wav","key_press":null,"block":1,"trial_type":"audio-keyboard-response","trial_index":324,"time_elapsed":2689155,"internal_node_id":"0.0-13.0-0.68","match_key":"a","participant_id":"12"},{"rt":null,"stimulus":"<p style=\"font-size: 48px;\">+</p>","key_press":null,"block":1,"trial_type":"html-keyboard-response","trial_index":325,"time_elapsed":2690148,"internal_node_id":"0.0-13.0-1.68","match_key":"a","participant_id":"12"},{"rt":752.3800000054762,"stimulus":"Images/whistle_2.png","key_press":76,"stim_onset":1581648519102,"block":1,"match_type":"non-match","image_category":"whistle","sound_category":"frog","audio_type":"sound","phase":"test","trial_type":"image-keyboard-response","trial_index":326,"time_elapsed":2690901,"internal_node_id":"0.0-13.0-2.68","match_key":"a","participant_id":"12","correct":true},{"rt":null,"stimulus":"Sounds/correct.wav","key_press":null,"block":1,"trial_type":"audio-keyboard-response","trial_index":327,"time_elapsed":2692904,"internal_node_id":"0.0-13.0-3.68","match_key":"a","participant_id":"12"},{"rt":null,"stimulus":"Sounds/train_sound.wav","key_press":null,"block":1,"trial_type":"audio-keyboard-response","trial_index":328,"time_elapsed":2694195,"internal_node_id":"0.0-13.0-0.69","match_key":"a","participant_id":"12"},{"rt":null,"stimulus":"<p style=\"font-size: 48px;\">+</p>","key_press":null,"block":1,"trial_type":"html-keyboard-response","trial_index":329,"time_elapsed":2695198,"internal_node_id":"0.0-13.0-1.69","match_key":"a","participant_id":"12"},{"rt":614.3350000055507,"stimulus":"Images/train_orig.png","key_press":65,"stim_onset":1581648524152,"block":1,"match_type":"match","image_category":"train","sound_category":"train","audio_type":"sound","phase":"test","trial_type":"image-keyboard-response","trial_index":330,"time_elapsed":2695813,"internal_node_id":"0.0-13.0-2.69","match_key":"a","participant_id":"12","correct":true},{"rt":null,"stimulus":"Sounds/correct.wav","key_press":null,"block":1,"trial_type":"audio-keyboard-response","trial_index":331,"time_elapsed":2697820,"internal_node_id":"0.0-13.0-3.69","match_key":"a","participant_id":"12"},{"rt":null,"stimulus":"Sounds/train_sound.wav","key_press":null,"block":1,"trial_type":"audio-keyboard-response","trial_index":332,"time_elapsed":2699095,"internal_node_id":"0.0-13.0-0.70","match_key":"a","participant_id":"12"},{"rt":null,"stimulus":"<p style=\"font-size: 48px;\">+</p>","key_press":null,"block":1,"trial_type":"html-keyboard-response","trial_index":333,"time_elapsed":2700098,"internal_node_id":"0.0-13.0-1.70","match_key":"a","participant_id":"12"},{"rt":722.2849999959581,"stimulus":"Images/train_3.png","key_press":65,"stim_onset":1581648529052,"block":1,"match_type":"match","image_category":"train","sound_category":"train","audio_type":"sound","phase":"test","trial_type":"image-keyboard-response","trial_index":334,"time_elapsed":2700821,"internal_node_id":"0.0-13.0-2.70","match_key":"a","participant_id":"12","correct":true},{"rt":null,"stimulus":"Sounds/correct.wav","key_press":null,"block":1,"trial_type":"audio-keyboard-response","trial_index":335,"time_elapsed":2702835,"internal_node_id":"0.0-13.0-3.70","match_key":"a","participant_id":"12"},{"rt":null,"stimulus":"Sounds/motorcycle_sound.wav","key_press":null,"block":1,"trial_type":"audio-keyboard-response","trial_index":336,"time_elapsed":2703955,"internal_node_id":"0.0-13.0-0.71","match_key":"a","participant_id":"12"},{"rt":null,"stimulus":"<p style=\"font-size: 48px;\">+</p>","key_press":null,"block":1,"trial_type":"html-keyboard-response","trial_index":337,"time_elapsed":2704948,"internal_node_id":"0.0-13.0-1.71","match_key":"a","participant_id":"12"},{"rt":568.1650000042282,"stimulus":"Images/motorcycle_3.png","key_press":65,"stim_onset":1581648533902,"block":1,"match_type":"match","image_category":"motorcycle","sound_category":"motorcycle","audio_type":"sound","phase":"test","trial_type":"image-keyboard-response","trial_index":338,"time_elapsed":2705517,"internal_node_id":"0.0-13.0-2.71","match_key":"a","participant_id":"12","correct":true},{"rt":null,"stimulus":"Sounds/correct.wav","key_press":null,"block":1,"trial_type":"audio-keyboard-response","trial_index":339,"time_elapsed":2707521,"internal_node_id":"0.0-13.0-3.71","match_key":"a","participant_id":"12"},{"rt":null,"stimulus":"Sounds/dog_sound.wav","key_press":null,"block":1,"trial_type":"audio-keyboard-response","trial_index":340,"time_elapsed":2708235,"internal_node_id":"0.0-13.0-0.72","match_key":"a","participant_id":"12"},{"rt":null,"stimulus":"<p style=\"font-size: 48px;\">+</p>","key_press":null,"block":1,"trial_type":"html-keyboard-response","trial_index":341,"time_elapsed":2709231,"internal_node_id":"0.0-13.0-1.72","match_key":"a","participant_id":"12"},{"rt":636.8250000090338,"stimulus":"Images/rooster_1.png","key_press":76,"stim_onset":1581648538185,"block":1,"match_type":"non-match","image_category":"rooster","sound_category":"dog","audio_type":"sound","phase":"test","trial_type":"image-keyboard-response","trial_index":342,"time_elapsed":2709869,"internal_node_id":"0.0-13.0-2.72","match_key":"a","participant_id":"12","correct":true},{"rt":null,"stimulus":"Sounds/correct.wav","key_press":null,"block":1,"trial_type":"audio-keyboard-response","trial_index":343,"time_elapsed":2711871,"internal_node_id":"0.0-13.0-3.72","match_key":"a","participant_id":"12"},{"rt":null,"stimulus":"Sounds/motorcycle_sound.wav","key_press":null,"block":1,"trial_type":"audio-keyboard-response","trial_index":344,"time_elapsed":2712955,"internal_node_id":"0.0-13.0-0.73","match_key":"a","participant_id":"12"},{"rt":null,"stimulus":"<p style=\"font-size: 48px;\">+</p>","key_press":null,"block":1,"trial_type":"html-keyboard-response","trial_index":345,"time_elapsed":2713948,"internal_node_id":"0.0-13.0-1.73","match_key":"a","participant_id":"12"},{"rt":832.1699999938719,"stimulus":"Images/dog_3.png","key_press":76,"stim_onset":1581648542902,"block":1,"match_type":"non-match","image_category":"dog","sound_category":"motorcycle","audio_type":"sound","phase":"test","trial_type":"image-keyboard-response","trial_index":346,"time_elapsed":2714781,"internal_node_id":"0.0-13.0-2.73","match_key":"a","participant_id":"12","correct":true},{"rt":null,"stimulus":"Sounds/correct.wav","key_press":null,"block":1,"trial_type":"audio-keyboard-response","trial_index":347,"time_elapsed":2716786,"internal_node_id":"0.0-13.0-3.73","match_key":"a","participant_id":"12"},{"rt":null,"stimulus":"Sounds/whistle_label.wav","key_press":null,"block":1,"trial_type":"audio-keyboard-response","trial_index":348,"time_elapsed":2717495,"internal_node_id":"0.0-13.0-0.74","match_key":"a","participant_id":"12"},{"rt":null,"stimulus":"<p style=\"font-size: 48px;\">+</p>","key_press":null,"block":1,"trial_type":"html-keyboard-response","trial_index":349,"time_elapsed":2718498,"internal_node_id":"0.0-13.0-1.74","match_key":"a","participant_id":"12"},{"rt":729.999999995809,"stimulus":"Images/whistle_1.png","key_press":65,"stim_onset":1581648547452,"block":1,"match_type":"match","image_category":"whistle","sound_category":"whistle","audio_type":"label","phase":"test","trial_type":"image-keyboard-response","trial_index":350,"time_elapsed":2719229,"internal_node_id":"0.0-13.0-2.74","match_key":"a","participant_id":"12","correct":true},{"rt":null,"stimulus":"Sounds/correct.wav","key_press":null,"block":1,"trial_type":"audio-keyboard-response","trial_index":351,"time_elapsed":2721236,"internal_node_id":"0.0-13.0-3.74","match_key":"a","participant_id":"12"},{"rt":null,"stimulus":"Sounds/motorcycle_label.wav","key_press":null,"block":1,"trial_type":"audio-keyboard-response","trial_index":352,"time_elapsed":2722375,"internal_node_id":"0.0-13.0-0.75","match_key":"a","participant_id":"12"},{"rt":null,"stimulus":"<p style=\"font-size: 48px;\">+</p>","key_press":null,"block":1,"trial_type":"html-keyboard-response","trial_index":353,"time_elapsed":2723381,"internal_node_id":"0.0-13.0-1.75","match_key":"a","participant_id":"12"},{"rt":582.5449999975972,"stimulus":"Images/motorcycle_cartoon.png","key_press":65,"stim_onset":1581648552335,"block":1,"match_type":"match","image_category":"motorcycle","sound_category":"motorcycle","audio_type":"label","phase":"test","trial_type":"image-keyboard-response","trial_index":354,"time_elapsed":2723965,"internal_node_id":"0.0-13.0-2.75","match_key":"a","participant_id":"12","correct":true},{"rt":null,"stimulus":"Sounds/correct.wav","key_press":null,"block":1,"trial_type":"audio-keyboard-response","trial_index":355,"time_elapsed":2725970,"internal_node_id":"0.0-13.0-3.75","match_key":"a","participant_id":"12"},{"rt":null,"stimulus":"Sounds/motorcycle_sound.wav","key_press":null,"block":1,"trial_type":"audio-keyboard-response","trial_index":356,"time_elapsed":2727055,"internal_node_id":"0.0-13.0-0.76","match_key":"a","participant_id":"12"},{"rt":null,"stimulus":"<p style=\"font-size: 48px;\">+</p>","key_press":null,"block":1,"trial_type":"html-keyboard-response","trial_index":357,"time_elapsed":2728048,"internal_node_id":"0.0-13.0-1.76","match_key":"a","participant_id":"12"},{"rt":547.9699999997392,"stimulus":"Images/frog_orig.png","key_press":76,"stim_onset":1581648557002,"block":1,"match_type":"non-match","image_category":"frog","sound_category":"motorcycle","audio_type":"sound","phase":"test","trial_type":"image-keyboard-response","trial_index":358,"time_elapsed":2728597,"internal_node_id":"0.0-13.0-2.76","match_key":"a","participant_id":"12","correct":true},{"rt":null,"stimulus":"Sounds/correct.wav","key_press":null,"block":1,"trial_type":"audio-keyboard-response","trial_index":359,"time_elapsed":2730604,"internal_node_id":"0.0-13.0-3.76","match_key":"a","participant_id":"12"},{"rt":null,"stimulus":"Sounds/whistle_label.wav","key_press":null,"block":1,"trial_type":"audio-keyboard-response","trial_index":360,"time_elapsed":2731275,"internal_node_id":"0.0-13.0-0.77","match_key":"a","participant_id":"12"},{"rt":null,"stimulus":"<p style=\"font-size: 48px;\">+</p>","key_press":null,"block":1,"trial_type":"html-keyboard-response","trial_index":361,"time_elapsed":2732265,"internal_node_id":"0.0-13.0-1.77","match_key":"a","participant_id":"12"},{"rt":1235.0600000061095,"stimulus":"Images/cat_2.png","key_press":76,"stim_onset":1581648561219,"block":1,"match_type":"non-match","image_category":"cat","sound_category":"whistle","audio_type":"label","phase":"test","trial_type":"image-keyboard-response","trial_index":362,"time_elapsed":2733501,"internal_node_id":"0.0-13.0-2.77","match_key":"a","participant_id":"12","correct":true},{"rt":null,"stimulus":"Sounds/correct.wav","key_press":null,"block":1,"trial_type":"audio-keyboard-response","trial_index":363,"time_elapsed":2735510,"internal_node_id":"0.0-13.0-3.77","match_key":"a","participant_id":"12"},{"rt":null,"stimulus":"Sounds/gun_label.wav","key_press":null,"block":1,"trial_type":"audio-keyboard-response","trial_index":364,"time_elapsed":2736095,"internal_node_id":"0.0-13.0-0.78","match_key":"a","participant_id":"12"},{"rt":null,"stimulus":"<p style=\"font-size: 48px;\">+</p>","key_press":null,"block":1,"trial_type":"html-keyboard-response","trial_index":365,"time_elapsed":2737098,"internal_node_id