"rt","responses","trial_type","trial_index","time_elapsed","internal_node_id","match_key","participant_id","stimulus","key_press","block","stim_onset","match_type","image_category","sound_category","audio_type","phase","correct"
"7950.679999979911","{""Q0"":""20""}","survey-text","0","7990","0.0-0.0","a","20","","","","","","","","","",""
"69440.64499999513","","html-keyboard-response","1","77431","0.0-1.0","a","20","<p>Use KEYBOARD 2 (match LEFT)</p><p>Press MATCH to continue.</p>","65","","","","","","","",""
"1866525.500000018","","html-keyboard-response","2","1944585","0.0-2.0","a","20","<p>Welcome to the experiment.</p>","32","","","","","","","",""
"25457.01499999268","","html-keyboard-response","3","1970048","0.0-3.0","a","20","<p>Thank you for agreeing to participate in this study.</p><p>If during any part of the procedure you must stop for any reason, please inform the researcher that you do not wish to continue.</p>","32","","","","","","","",""
"31119.169999990845","","html-keyboard-response","4","2001169","0.0-4.0","a","20","<p>In this experiment, you will hear various words or sounds and see pictures of various animals and objects.</p><p>Most of the images will be of common everyday objects, such as cars, cats, cows, firearms, frogs, chickens, whistles, trains, motorcycles, and dogs.</p><p>Some of the images will be real-life stills, while others will be cartoons.</p>","32","","","","","","","",""
"14198.105000017677","","html-keyboard-response","5","2015375","0.0-5.0","a","20","<p>Sometimes, the word/sound will match the picture, for example you'll hear a meowing sound and see a cat.</p><p>Other times, the picture will not match the sound or word.</p><p>Your task is to decide as quickly as possible if the word/sound matches the picture or not. </p>","32","","","","","","","",""
"24558.774999983143","","html-keyboard-response","6","2039935","0.0-6.0","a","20","<p>For example, if you hear the word ""cat"" or hear a meowing sound, and then see a picture of a cat, you should press the MATCH key.</p><p> If the sound and image do not match, press the NOT-MATCH key to indicate that there is not a match.</p>","32","","","","","","","",""
"18855.470000009518","","html-keyboard-response","7","2058792","0.0-7.0","a","20","<p>If you make a mistake, you will hear a buzzing sound instead of a more pleasant sound.</p><p> Try to respond as quickly as possible, while making as few errors as possible. If you are making mistakes, you are probably rushing.</p>","32","","","","","","","",""
"10758.340000000317","","html-keyboard-response","8","2069540","0.0-8.0","a","20","<p>Please try to not move or blink your eyes during the presentation of the images. You can move and blink between images.</p><p>During the experiment there will be some breaks during which you can rest your eyes.</p>","32","","","","","","","",""
"8862.59499998414","","html-keyboard-response","9","2078404","0.0-9.0","a","20","<p>We will begin with 10 practice trials. Please let the experimenter know if you have any questions.</p>","32","","","","","","","",""
"null","","audio-keyboard-response","10","2079766","0.0-10.0-0.0","a","20","Sounds/train_label.wav","null","0","","","","","","",""
"null","","html-keyboard-response","11","2080771","0.0-10.0-1.0","a","20","<p style=""font-size: 48px;"">+</p>","null","0","","","","","","",""
"3998.439999995753","","image-keyboard-response","12","2084772","0.0-10.0-2.0","a","20","Images/motorcycle_cartoon.png","76","0","1582144998394","non-match","motorcycle","train","label","practice","true"
"null","","audio-keyboard-response","13","2086781","0.0-10.0-3.0","a","20","Sounds/correct.wav","null","0","","","","","","",""
"null","","audio-keyboard-response","14","2087625","0.0-10.0-0.1","a","20","Sounds/cat_label.wav","null","0","","","","","","",""
"null","","html-keyboard-response","15","2088621","0.0-10.0-1.1","a","20","<p style=""font-size: 48px;"">+</p>","null","0","","","","","","",""
"908.915000007255","","image-keyboard-response","16","2089531","0.0-10.0-2.1","a","20","Images/whistle_2.png","76","0","1582145006243","non-match","whistle","cat","label","practice","true"
"null","","audio-keyboard-response","17","2091541","0.0-10.0-3.1","a","20","Sounds/correct.wav","null","0","","","","","","",""
"null","","audio-keyboard-response","18","2092445","0.0-10.0-0.2","a","20","Sounds/frog_label.wav","null","0","","","","","","",""
"null","","html-keyboard-response","19","2093438","0.0-10.0-1.2","a","20","<p style=""font-size: 48px;"">+</p>","null","0","","","","","","",""
"732.4899999948684","","image-keyboard-response","20","2094172","0.0-10.0-2.2","a","20","Images/frog_1.png","65","0","1582145011060","match","frog","frog","label","practice","true"
"null","","audio-keyboard-response","21","2096177","0.0-10.0-3.2","a","20","Sounds/correct.wav","null","0","","","","","","",""
"null","","audio-keyboard-response","22","2097305","0.0-10.0-0.3","a","20","Sounds/motorcycle_label.wav","null","0","","","","","","",""
"null","","html-keyboard-response","23","2098305","0.0-10.0-1.3","a","20","<p style=""font-size: 48px;"">+</p>","null","0","","","","","","",""
"881.180000025779","","image-keyboard-response","24","2099187","0.0-10.0-2.3","a","20","Images/motorcycle_1.png","65","0","1582145015927","match","motorcycle","motorcycle","label","practice","true"
"null","","audio-keyboard-response","25","2101195","0.0-10.0-3.3","a","20","Sounds/correct.wav","null","0","","","","","","",""
"null","","audio-keyboard-response","26","2101846","0.0-10.0-0.4","a","20","Sounds/dog_label.wav","null","0","","","","","","",""
"null","","html-keyboard-response","27","2102838","0.0-10.0-1.4","a","20","<p style=""font-size: 48px;"">+</p>","null","0","","","","","","",""
"388.0950000016019","","image-keyboard-response","28","2103227","0.0-10.0-2.4","a","20","Images/dog_cartoon.png","65","0","1582145020460","match","dog","dog","label","practice","true"
"null","","audio-keyboard-response","29","2105242","0.0-10.0-3.4","a","20","Sounds/correct.wav","null","0","","","","","","",""
"null","","audio-keyboard-response","30","2105945","0.0-10.0-0.5","a","20","Sounds/rooster_label.wav","null","0","","","","","","",""
"null","","html-keyboard-response","31","2106938","0.0-10.0-1.5","a","20","<p style=""font-size: 48px;"">+</p>","null","0","","","","","","",""
"376.0099999778904","","image-keyboard-response","32","2107315","0.0-10.0-2.5","a","20","Images/rooster_2.png","65","0","1582145024560","match","rooster","rooster","label","practice","true"
"null","","audio-keyboard-response","33","2109328","0.0-10.0-3.5","a","20","Sounds/correct.wav","null","0","","","","","","",""
"null","","audio-keyboard-response","34","2110245","0.0-10.0-0.6","a","20","Sounds/frog_sound.wav","null","0","","","","","","",""
"null","","html-keyboard-response","35","2111238","0.0-10.0-1.6","a","20","<p style=""font-size: 48px;"">+</p>","null","0","","","","","","",""
"636.180000001099","","image-keyboard-response","36","2111876","0.0-10.0-2.6","a","20","Images/rooster_1.png","76","0","1582145028860","non-match","rooster","frog","sound","practice","true"
"null","","audio-keyboard-response","37","2113892","0.0-10.0-3.6","a","20","Sounds/correct.wav","null","0","","","","","","",""
"null","","audio-keyboard-response","38","2114585","0.0-10.0-0.7","a","20","Sounds/whistle_sound.wav","null","0","","","","","","",""
"null","","html-keyboard-response","39","2115588","0.0-10.0-1.7","a","20","<p style=""font-size: 48px;"">+</p>","null","0","","","","","","",""
"454.2699999874458","","image-keyboard-response","40","2116043","0.0-10.0-2.7","a","20","Images/whistle_orig.png","65","0","1582145033210","match","whistle","whistle","sound","practice","true"
"null","","audio-keyboard-response","41","2118059","0.0-10.0-3.7","a","20","Sounds/correct.wav","null","0","","","","","","",""
"null","","audio-keyboard-response","42","2118645","0.0-10.0-0.8","a","20","Sounds/gun_sound.wav","null","0","","","","","","",""
"null","","html-keyboard-response","43","2119638","0.0-10.0-1.8","a","20","<p style=""font-size: 48px;"">+</p>","null","0","","","","","","",""
"1075.925000011921","","image-keyboard-response","44","2120715","0.0-10.0-2.8","a","20","Images/whistle_3.png","76","0","1582145037260","non-match","whistle","gun","sound","practice","true"
"null","","audio-keyboard-response","45","2122724","0.0-10.0-3.8","a","20","Sounds/correct.wav","null","0","","","","","","",""
"null","","audio-keyboard-response","46","2123845","0.0-10.0-0.9","a","20","Sounds/motorcycle_sound.wav","null","0","","","","","","",""
"null","","html-keyboard-response","47","2124838","0.0-10.0-1.9","a","20","<p style=""font-size: 48px;"">+</p>","null","0","","","","","","",""
"436.2949999924749","","image-keyboard-response","48","2125276","0.0-10.0-2.9","a","20","Images/motorcycle_cartoon.png","65","0","1582145042460","match","motorcycle","motorcycle","sound","practice","true"
"null","","audio-keyboard-response","49","2127293","0.0-10.0-3.9","a","20","Sounds/correct.wav","null","0","","","","","","",""
"42462.27999997791","","html-keyboard-response","50","2169763","0.0-11.0","a","20","<p>The rest of the experiment is divided into five blocks with 100 trials in each block. It will take about 45 minutes to complete.</p><p>The experimenter will be in the outer room and you can communicate with them through the monitor if you have any questions or wish to stop the experiment.</p>","32","","","","","","","",""
"40366.37999999197","","html-keyboard-response","51","2210127","0.0-12.0","a","20","<p>Remember, please try not to move or blink your eyes during the presentation of the images. </p><p>At the end of the experiment, we will show you your scores on the task so you can see how you did.</p><p>The experiment will start on the next screen.</p>","32","","","","","","","",""
"null","","audio-keyboard-response","52","2212728","0.0-13.0-0.0","a","20","Sounds/gun_sound.wav","null","1","","","","","","",""
"null","","html-keyboard-response","53","2213725","0.0-13.0-1.0","a","20","<p style=""font-size: 48px;"">+</p>","null","1","","","","","","",""
"543.6650000046939","","image-keyboard-response","54","2214270","0.0-13.0-2.0","a","20","Images/car_3.png","76","1","1582145131348","non-match","car","gun","sound","test","true"
"null","","audio-keyboard-response","55","2216278","0.0-13.0-3.0","a","20","Sounds/correct.wav","null","1","","","","","","",""
"null","","audio-keyboard-response","56","2216990","0.0-13.0-0.1","a","20","Sounds/dog_sound.wav","null","1","","","","","","",""
"null","","html-keyboard-response","57","2217992","0.0-13.0-1.1","a","20","<p style=""font-size: 48px;"">+</p>","null","1","","","","","","",""
"500.9650000138208","","image-keyboard-response","58","2218494","0.0-13.0-2.1","a","20","Images/dog_2.png","65","1","1582145135614","match","dog","dog","sound","test","true"
"null","","audio-keyboard-response","59","2220499","0.0-13.0-3.1","a","20","Sounds/correct.wav","null","1","","","","","","",""
"null","","audio-keyboard-response","60","2221188","0.0-13.0-0.2","a","20","Sounds/rooster_label.wav","null","1","","","","","","",""
"null","","html-keyboard-response","61","2222192","0.0-13.0-1.2","a","20","<p style=""font-size: 48px;"">+</p>","null","1","","","","","","",""
"276.94999999925494","","image-keyboard-response","62","2222470","0.0-13.0-2.2","a","20","Images/rooster_3.png","65","1","1582145139814","match","rooster","rooster","label","test","true"
"null","","audio-keyboard-response","63","2224478","0.0-13.0-3.2","a","20","Sounds/correct.wav","null","1","","","","","","",""
"null","","audio-keyboard-response","64","2225488","0.0-13.0-0.3","a","20","Sounds/cow_sound.wav","null","1","","","","","","",""
"null","","html-keyboard-response","65","2226492","0.0-13.0-1.3","a","20","<p style=""font-size: 48px;"">+</p>","null","1","","","","","","",""
"464.76000000257045","","image-keyboard-response","66","2226958","0.0-13.0-2.3","a","20","Images/cow_orig.png","76","1","1582145144114","match","cow","cow","sound","test","false"
"null","","audio-keyboard-response","67","2228966","0.0-13.0-3.3","a","20","Sounds/incorrect.wav","null","1","","","","","","",""
"null","","audio-keyboard-response","68","2230048","0.0-13.0-0.4","a","20","Sounds/car_sound.wav","null","1","","","","","","",""
"null","","html-keyboard-response","69","2231059","0.0-13.0-1.4","a","20","<p style=""font-size: 48px;"">+</p>","null","1","","","","","","",""
"610.0449999794364","","image-keyboard-response","70","2231670","0.0-13.0-2.4","a","20","Images/cat_orig.png","76","1","1582145148681","non-match","cat","car","sound","test","true"
"null","","audio-keyboard-response","71","2233679","0.0-13.0-3.4","a","20","Sounds/correct.wav","null","1","","","","","","",""
"null","","audio-keyboard-response","72","2234368","0.0-13.0-0.5","a","20","Sounds/rooster_sound.wav","null","1","","","","","","",""
"null","","html-keyboard-response","73","2235359","0.0-13.0-1.5","a","20","<p style=""font-size: 48px;"">+</p>","null","1","","","","","","",""
"462.3549999957904","","image-keyboard-response","74","2235822","0.0-13.0-2.5","a","20","Images/rooster_1.png","65","1","1582145152981","match","rooster","rooster","sound","test","true"
"null","","audio-keyboard-response","75","2237833","0.0-13.0-3.5","a","20","Sounds/correct.wav","null","1","","","","","","",""
"null","","audio-keyboard-response","76","2238408","0.0-13.0-0.6","a","20","Sounds/gun_label.wav","null","1","","","","","","",""
"null","","html-keyboard-response","77","2239426","0.0-13.0-1.6","a","20","<p style=""font-size: 48px;"">+</p>","null","1","","","","","","",""
"523.4000000054948","","image-keyboard-response","78","2239950","0.0-13.0-2.6","a","20","Images/cow_3.png","76","1","1582145157048","non-match","cow","gun","label","test","true"
"null","","audio-keyboard-response","79","2241963","0.0-13.0-3.6","a","20","Sounds/correct.wav","null","1","","","","","","",""
"null","","audio-keyboard-response","80","2242668","0.0-13.0-0.7","a","20","Sounds/whistle_label.wav","null","1","","","","","","",""
"null","","html-keyboard-response","81","2243659","0.0-13.0-1.7","a","20","<p style=""font-size: 48px;"">+</p>","null","1","","","","","","",""
"513.9550000019372","","image-keyboard-response","82","2244174","0.0-13.0-2.7","a","20","Images/cat_3.png","76","1","1582145161281","non-match","cat","whistle","label","test","true"
"null","","audio-keyboard-response","83","2246182","0.0-13.0-3.7","a","20","Sounds/correct.wav","null","1","","","","","","",""
"null","","audio-keyboard-response","84","2247088","0.0-13.0-0.8","a","20","Sounds/frog_label.wav","null","1","","","","","","",""
"null","","html-keyboard-response","85","2248093","0.0-13.0-1.8","a","20","<p style=""font-size: 48px;"">+</p>","null","1","","","","","","",""
"472.7499999864958","","image-keyboard-response","86","2248566","0.0-13.0-2.8","a","20","Images/cat_cartoon.png","76","1","1582145165715","non-match","cat","frog","label","test","true"
"null","","audio-keyboard-response","87","2250580","0.0-13.0-3.8","a","20","Sounds/correct.wav","null","1","","","","","","",""
"null","","audio-keyboard-response","88","2251168","0.0-13.0-0.9","a","20","Sounds/gun_sound.wav","null","1","","","","","","",""
"null","","html-keyboard-response","89","2252159","0.0-13.0-1.9","a","20","<p style=""font-size: 48px;"">+</p>","null","1","","","","","","",""
"750.0350000048056","","image-keyboard-response","90","2252910","0.0-13.0-2.9","a","20","Images/train_orig.png","76","1","1582145169781","non-match","train","gun","sound","test","true"
"null","","audio-keyboard-response","91","2254915","0.0-13.0-3.9","a","20","Sounds/correct.wav","null","1","","","","","","",""
"null","","audio-keyboard-response","92","2255568","0.0-13.0-0.10","a","20","Sounds/dog_label.wav","null","1","","","","","","",""
"null","","html-keyboard-response","93","2256559","0.0-13.0-1.10","a","20","<p style=""font-size: 48px;"">+</p>","null","1","","","","","","",""
"461.1299999812618","","image-keyboard-response","94","2257022","0.0-13.0-2.10","a","20","Images/motorcycle_1.png","76","1","1582145174181","non-match","motorcycle","dog","label","test","true"
"null","","audio-keyboard-response","95","2259031","0.0-13.0-3.10","a","20","Sounds/correct.wav","null","1","","","","","","",""
"null","","audio-keyboard-response","96","2259728","0.0-13.0-0.11","a","20","Sounds/rooster_label.wav","null","1","","","","","","",""
"null","","html-keyboard-response","97","2260726","0.0-13.0-1.11","a","20","<p style=""font-size: 48px;"">+</p>","null","1","","","","","","",""
"639.3350000148639","","image-keyboard-response","98","2261366","0.0-13.0-2.11","a","20","Images/rooster_cartoon.png","65","1","1582145178348","match","rooster","rooster","label","test","true"
"null","","audio-keyboard-response","99","2263379","0.0-13.0-3.11","a","20","Sounds/correct.wav","null","1","","","","","","",""
"null","","audio-keyboard-response","100","2264008","0.0-13.0-0.12","a","20","Sounds/dog_label.wav","null","1","","","","","","",""
"null","","html-keyboard-response","101","2265026","0.0-13.0-1.12","a","20","<p style=""font-size: 48px;"">+</p>","null","1","","","","","","",""
"347.19500000961125","","image-keyboard-response","102","2265374","0.0-13.0-2.12","a","20","Images/dog_cartoon.png","65","1","1582145182648","match","dog","dog","label","test","true"
"null","","audio-keyboard-response","103","2267381","0.0-13.0-3.12","a","20","Sounds/correct.wav","null","1","","","","","","",""
"null","","audio-keyboard-response","104","2267968","0.0-13.0-0.13","a","20","Sounds/gun_label.wav","null","1","","","","","","",""
"null","","html-keyboard-response","105","2268959","0.0-13.0-1.13","a","20","<p style=""font-size: 48px;"">+</p>","null","1","","","","","","",""
"469.64999998454005","","image-keyboard-response","106","2269430","0.0-13.0-2.13","a","20","Images/gun_3.png","65","1","1582145186581","match","gun","gun","label","test","true"
"null","","audio-keyboard-response","107","2271446","0.0-13.0-3.13","a","20","Sounds/correct.wav","null","1","","","","","","",""
"null","","audio-keyboard-response","108","2272748","0.0-13.0-0.14","a","20","Sounds/train_sound.wav","null","1","","","","","","",""
"null","","html-keyboard-response","109","2273742","0.0-13.0-1.14","a","20","<p style=""font-size: 48px;"">+</p>","null","1","","","","","","",""
"614.800000010524","","image-keyboard-response","110","2274358","0.0-13.0-2.14","a","20","Images/rooster_3.png","76","1","1582145191365","non-match","rooster","train","sound","test","true"
"null","","audio-keyboard-response","111","2276365","0.0-13.0-3.14","a","20","Sounds/correct.wav","null","1","","","","","","",""
"null","","audio-keyboard-response","112","2277068","0.0-13.0-0.15","a","20","Sounds/whistle_label.wav","null","1","","","","","","",""
"null","","html-keyboard-response","113","2278059","0.0-13.0-1.15","a","20","<p style=""font-size: 48px;"">+</p>","null","1","","","","","","",""
"433.79500001855195","","image-keyboard-response","114","2278494","0.0-13.0-2.15","a","20","Images/whistle_orig.png","65","1","1582145195681","match","whistle","whistle","label","test","true"
"null","","audio-keyboard-response","115","2280498","0.0-13.0-3.15","a","20","Sounds/correct.wav","null","1","","","","","","",""
"null","","audio-keyboard-response","116","2281608","0.0-13.0-0.16","a","20","Sounds/motorcycle_sound.wav","null","1","","","","","","",""
"null","","html-keyboard-response","117","2282626","0.0-13.0-1.16","a","20","<p style=""font-size: 48px;"">+</p>","null","1","","","","","","",""
"506.9149999762885","","image-keyboard-response","118","2283134","0.0-13.0-2.16","a","20","Images/cat_1.png","76","1","1582145200248","non-match","cat","motorcycle","sound","test","true"
"null","","audio-keyboard-response","119","2285147","0.0-13.0-3.16","a","20","Sounds/correct.wav","null","1","","","","","","",""
"null","","audio-keyboard-response","120","2285848","0.0-13.0-0.17","a","20","Sounds/rooster_sound.wav","null","1","","","","","","",""
"null","","html-keyboard-response","121","2286843","0.0-13.0-1.17","a","20","<p style=""font-size: 48px;"">+</p>","null","1","","","","","","",""
"442.40500000910833","","image-keyboard-response","122","2287286","0.0-13.0-2.17","a","20","Images/rooster_orig.png","65","1","1582145204465","match","rooster","rooster","sound","test","true"
"null","","audio-keyboard-response","123","2289296","0.0-13.0-3.17","a","20","Sounds/correct.wav","null","1","","","","","","",""
"null","","audio-keyboard-response","124","2289968","0.0-13.0-0.18","a","20","Sounds/whistle_label.wav","null","1","","","","","","",""
"null","","html-keyboard-response","125","2290959","0.0-13.0-1.18","a","20","<p style=""font-size: 48px;"">+</p>","null","1","","","","","","",""
"493.50000001117587","","image-keyboard-response","126","2291454","0.0-13.0-2.18","a","20","Images/whistle_3.png","65","1","1582145208581","match","whistle","whistle","label","test","true"
"null","","audio-keyboard-response","127","2293462","0.0-13.0-3.18","a","20","Sounds/correct.wav","null","1","","","","","","",""
"null","","audio-keyboard-response","128","2294308","0.0-13.0-0.19","a","20","Sounds/cat_label.wav","null","1","","","","","","",""
"null","","html-keyboard-response","129","2295343","0.0-13.0-1.19","a","20","<p style=""font-size: 48px;"">+</p>","null","1","","","","","","",""
"358.1100000012666","","image-keyboard-response","130","2295702","0.0-13.0-2.19","a","20","Images/cat_orig.png","65","1","1582145212965","match","cat","cat","label","test","true"
"null","","audio-keyboard-response","131","2297712","0.0-13.0-3.19","a","20","Sounds/correct.wav","null","1","","","","","","",""
"null","","audio-keyboard-response","132","2298408","0.0-13.0-0.20","a","20","Sounds/whistle_sound.wav","null","1","","","","","","",""
"null","","html-keyboard-response","133","2299426","0.0-13.0-1.20","a","20","<p style=""font-size: 48px;"">+</p>","null","1","","","","","","",""
"667.0300000114366","","image-keyboard-response","134","2300094","0.0-13.0-2.20","a","20","Images/frog_3.png","76","1","1582145217048","non-match","frog","whistle","sound","test","true"
"null","","audio-keyboard-response","135","2302099","0.0-13.0-3.20","a","20","Sounds/correct.wav","null","1","","","","","","",""
"null","","audio-keyboard-response","136","2303128","0.0-13.0-0.21","a","20","Sounds/cow_label.wav","null","1","","","","","","",""
"null","","html-keyboard-response","137","2304126","0.0-13.0-1.21","a","20","<p style=""font-size: 48px;"">+</p>","null","1","","","","","","",""
"566.7100000139326","","image-keyboard-response","138","2304694","0.0-13.0-2.21","a","20","Images/cow_cartoon.png","65","1","1582145221748","match","cow","cow","label","test","true"
"null","","audio-keyboard-response","139","2306698","0.0-13.0-3.21","a","20","Sounds/correct.wav","null","1","","","","","","",""
"null","","audio-keyboard-response","140","2307808","0.0-13.0-0.22","a","20","Sounds/motorcycle_sound.wav","null","1","","","","","","",""
"null","","html-keyboard-response","141","2308826","0.0-13.0-1.22","a","20","<p style=""font-size: 48px;"">+</p>","null","1","","","","","","",""
"370.7199999769218","","image-keyboard-response","142","2309198","0.0-13.0-2.22","a","20","Images/motorcycle_1.png","65","1","1582145226448","match","motorcycle","motorcycle","sound","test","true"
"null","","audio-keyboard-response","143","2311215","0.0-13.0-3.22","a","20","Sounds/correct.wav","null","1","","","","","","",""
"null","","audio-keyboard-response","144","2312128","0.0-13.0-0.23","a","20","Sounds/frog_sound.wav","null","1","","","","","","",""
"null","","html-keyboard-response","145","2313126","0.0-13.0-1.23","a","20","<p style=""font-size: 48px;"">+</p>","null","1","","","","","","",""
"406.9700000109151","","image-keyboard-response","146","2313534","0.0-13.0-2.23","a","20","Images/frog_2.png","65","1","1582145230748","match","frog","frog","sound","test","true"
"null","","audio-keyboard-response","147","2315547","0.0-13.0-3.23","a","20","Sounds/correct.wav","null","1","","","","","","",""
"null","","audio-keyboard-response","148","2316568","0.0-13.0-0.24","a","20","Sounds/cow_sound.wav","null","1","","","","","","",""
"null","","html-keyboard-response","149","2317559","0.0-13.0-1.24","a","20","<p style=""font-size: 48px;"">+</p>","null","1","","","","","","",""
"387.92999999737367","","image-keyboard-response","150","2317950","0.0-13.0-2.24","a","20","Images/cow_1.png","65","1","1582145235182","match","cow","cow","sound","test","true"
"null","","audio-keyboard-response","151","2319962","0.0-13.0-3.24","a","20","Sounds/correct.wav","null","1","","","","","","",""
"null","","audio-keyboard-response","152","2320988","0.0-13.0-0.25","a","20","Sounds/cow_label.wav","null","1","","","","","","",""
"null","","html-keyboard-response","153","2321993","0.0-13.0-1.25","a","20","<p style=""font-size: 48px;"">+</p>","null","1","","","","","","",""
"395.79000000981614","","image-keyboard-response","154","2322390","0.0-13.0-2.25","a","20","Images/gun_orig.png","76","1","1582145239615","non-match","gun","cow","label","test","true"
"null","","audio-keyboard-response","155","2324398","0.0-13.0-3.25","a","20","Sounds/correct.wav","null","1","","","","","","",""
"null","","audio-keyboard-response","156","2325248","0.0-13.0-0.26","a","20","Sounds/cat_label.wav","null","1","","","","","","",""
"null","","html-keyboard-response","157","2326243","0.0-13.0-1.26","a","20","<p style=""font-size: 48px;"">+</p>","null","1","","","","","","",""
"530.0899999854155","","image-keyboard-response","158","2326774","0.0-13.0-2.26","a","20","Images/gun_2.png","76","1","1582145243865","non-match","gun","cat","label","test","true"
"null","","audio-keyboard-response","159","2328781","0.0-13.0-3.26","a","20","Sounds/correct.wav","null","1","","","","","","",""
"null","","audio-keyboard-response","160","2330067","0.0-13.0-0.27","a","20","Sounds/train_label.wav","null","1","","","","","","",""
"null","","html-keyboard-response","161","2331059","0.0-13.0-1.27","a","20","<p style=""font-size: 48px;"">+</p>","null","1","","","","","","",""
"1337.0550000108778","","image-keyboard-response","162","2332397","0.0-13.0-2.27","a","20","Images/train_orig.png","65","1","1582145248681","match","train","train","label","test","true"
"null","","audio-keyboard-response","163","2334403","0.0-13.0-3.27","a","20","Sounds/correct.wav","null","1","","","","","","",""
"null","","audio-keyboard-response","164","2335387","0.0-13.0-0.28","a","20","Sounds/cow_label.wav","null","1","","","","","","",""
"null","","html-keyboard-response","165","2336393","0.0-13.0-1.28","a","20","<p style=""font-size: 48px;"">+</p>","null","1","","","","","","",""
"483.78999999864027","","image-keyboard-response","166","2336878","0.0-13.0-2.28","a","20","Images/car_orig.png","76","1","1582145254014","non-match","car","cow","label","test","true"
"null","","audio-keyboard-response","167","2338881","0.0-13.0-3.28","a","20","Sounds/correct.wav","null","1","","","","","","",""
"null","","audio-keyboard-response","168","2339467","0.0-13.0-0.29","a","20","Sounds/gun_label.wav","null","1","","","","","","",""
"null","","html-keyboard-response","169","2340459","0.0-13.0-1.29","a","20","<p style=""font-size: 48px;"">+</p>","null","1","","","","","","",""
"432.94999998714775","","image-keyboard-response","170","2340893","0.0-13.0-2.29","a","20","Images/gun_orig.png","65","1","1582145258081","match","gun","gun","label","test","true"
"null","","audio-keyboard-response","171","2342898","0.0-13.0-3.29","a","20","Sounds/correct.wav","null","1","","","","","","",""
"null","","audio-keyboard-response","172","2343587","0.0-13.0-0.30","a","20","Sounds/rooster_label.wav","null","1","","","","","","",""
"null","","html-keyboard-response","173","2344576","0.0-13.0-1.30","a","20","<p style=""font-size: 48px;"">+</p>","null","1","","","","","","",""
"508.219999989029","","image-keyboard-response","174","2345085","0.0-13.0-2.30","a","20","Images/rooster_2.png","65","1","1582145262198","match","rooster","rooster","label","test","true"
"null","","audio-keyboard-response","175","2347095","0.0-13.0-3.30","a","20","Sounds/correct.wav","null","1","","","","","","",""
"null","","audio-keyboard-response","176","2347767","0.0-13.0-0.31","a","20","Sounds/rooster_label.wav","null","1","","","","","","",""
"null","","html-keyboard-response","177","2348759","0.0-13.0-1.31","a","20","<p style=""font-size: 48px;"">+</p>","null","1","","","","","","",""
"437.17000001948327","","image-keyboard-response","178","2349197","0.0-13.0-2.31","a","20","Images/whistle_orig.png","76","1","1582145266381","non-match","whistle","rooster","label","test","true"
"null","","audio-keyboard-response","179","2351213","0.0-13.0-3.31","a","20","Sounds/correct.wav","null","1","","","","","","",""
"null","","audio-keyboard-response","180","2352227","0.0-13.0-0.32","a","20","Sounds/cow_sound.wav","null","1","","","","","","",""
"null","","html-keyboard-response","181","2353226","0.0-13.0-1.32","a","20","<p style=""font-size: 48px;"">+</p>","null","1","","","","","","",""
"418.2300000102259","","image-keyboard-response","182","2353645","0.0-13.0-2.32","a","20","Images/cow_2.png","65","1","1582145270848","match","cow","cow","sound","test","true"
"null","","audio-keyboard-response","183","2355648","0.0-13.0-3.32","a","20","Sounds/correct.wav","null","1","","","","","","",""
"null","","audio-keyboard-response","184","2356767","0.0-13.0-0.33","a","20","Sounds/motorcycle_sound.wav","null","1","","","","","","",""
"null","","html-keyboard-response","185","2357759","0.0-13.0-1.33","a","20","<p style=""font-size: 48px;"">+</p>","null","1","","","","","","",""
"820.974999981001","","image-keyboard-response","186","2358581","0.0-13.0-2.33","a","20","Images/motorcycle_3.png","65","1","1582145275381","match","motorcycle","motorcycle","sound","test","true"
"null","","audio-keyboard-response","187","2360583","0.0-13.0-3.33","a","20","Sounds/correct.wav","null","1","","","","","","",""
"null","","audio-keyboard-response","188","2361247","0.0-13.0-0.34","a","20","Sounds/rooster_label.wav","null","1","","","","","","",""
"null","","html-keyboard-response","189","2362243","0.0-13.0-1.34","a","20","<p style=""font-size: 48px;"">+</p>","null","1","","","","","","",""
"553.7499999916181","","image-keyboard-response","190","2362797","0.0-13.0-2.34","a","20","Images/dog_orig.png","76","1","1582145279865","non-match","dog","rooster","label","test","true"
"null","","audio-keyboard-response","191","2364813","0.0-13.0-3.34","a","20","Sounds/correct.wav","null","1","","","","","","",""
"null","","audio-keyboard-response","192","2365387","0.0-13.0-0.35","a","20","Sounds/gun_sound.wav","null","1","","","","","","",""
"null","","html-keyboard-response","193","2366376","0.0-13.0-1.35","a","20","<p style=""font-size: 48px;"">+</p>","null","1","","","","","","",""
"499.9900000113994","","image-keyboard-response","194","2366877","0.0-13.0-2.35","a","20","Images/gun_1.png","65","1","1582145283998","match","gun","gun","sound","test","true"
"null","","audio-keyboard-response","195","2368881","0.0-13.0-3.35","a","20","Sounds/correct.wav","null","1","","","","","","",""
"null","","audio-keyboard-response","196","2369907","0.0-13.0-0.36","a","20","Sounds/cow_label.wav","null","1","","","","","","",""
"null","","html-keyboard-response","197","2370909","0.0-13.0-1.36","a","20","<p style=""font-size: 48px;"">+</p>","null","1","","","","","","",""
"342.899999988731","","image-keyboard-response","198","2371253","0.0-13.0-2.36","a","20","Images/cow_3.png","65","1","1582145288532","match","cow","cow","label","test","true"
"null","","audio-keyboard-response","199","2373263","0.0-13.0-3.36","a","20","Sounds/correct.wav","null","1","","","","","","",""
"null","","audio-keyboard-response","200","2373967","0.0-13.0-0.37","a","20","Sounds/rooster_sound.wav","null","1","","","","","","",""
"null","","html-keyboard-response","201","2374959","0.0-13.0-1.37","a","20","<p style=""font-size: 48px;"">+</p>","null","1","","","","","","",""
"485.0250000022352","","image-keyboard-response","202","2375445","0.0-13.0-2.37","a","20","Images/frog_2.png","76","1","1582145292581","non-match","frog","rooster","sound","test","true"
"null","","audio-keyboard-response","203","2377448","0.0-13.0-3.37","a","20","Sounds/correct.wav","null","1","","","","","","",""
"null","","audio-keyboard-response","204","2378107","0.0-13.0-0.38","a","20","Sounds/dog_label.wav","null","1","","","","","","",""
"null","","html-keyboard-response","205","2379110","0.0-13.0-1.38","a","20","<p style=""font-size: 48px;"">+</p>","null","1","","","","","","",""
"502.5949999978766","","image-keyboard-response","206","2379613","0.0-13.0-2.38","a","20","Images/car_cartoon.png","76","1","1582145296732","non-match","car","dog","label","test","true"
"null","","audio-keyboard-response","207","2381630","0.0-13.0-3.38","a","20","Sounds/correct.wav","null","1","","","","","","",""
"null","","audio-keyboard-response","208","2382547","0.0-13.0-0.39","a","20","Sounds/frog_sound.wav","null","1","","","","","","",""
"null","","html-keyboard-response","209","2383543","0.0-13.0-1.39","a","20","<p style=""font-size: 48px;"">+</p>","null","1","","","","","","",""
"565.2499999850988","","image-keyboard-response","210","2384109","0.0-13.0-2.39","a","20","Images/frog_3.png","65","1","1582145301165","match","frog","frog","sound","test","true"
"null","","audio-keyboard-response","211","2386117","0.0-13.0-3.39","a","20","Sounds/correct.wav","null","1","","","","","","",""
"null","","audio-keyboard-response","212","2387187","0.0-13.0-0.40","a","20","Sounds/car_label.wav","null","1","","","","","","",""
"null","","html-keyboard-response","213","2388193","0.0-13.0-1.40","a","20","<p style=""font-size: 48px;"">+</p>","null","1","","","","","","",""
"475.0550000173971","","image-keyboard-response","214","2388669","0.0-13.0-2.40","a","20","Images/frog_orig.png","76","1","1582145305815","non-match","frog","car","label","test","true"
"null","","audio-keyboard-response","215","2390679","0.0-13.0-3.40","a","20","Sounds/correct.wav","null","1","","","","","","",""
"null","","audio-keyboard-response","216","2391507","0.0-13.0-0.41","a","20","Sounds/cat_label.wav","null","1","","","","","","",""
"null","","html-keyboard-response","217","2392509","0.0-13.0-1.41","a","20","<p style=""font-size: 48px;"">+</p>","null","1","","","","","","",""
"414.4999999841675","","image-keyboard-response","218","2392925","0.0-13.0-2.41","a","20","Images/cat_1.png","65","1","1582145310131","match","cat","cat","label","test","true"
"null","","audio-keyboard-response","219","2394932","0.0-13.0-3.41","a","20","Sounds/correct.wav","null","1","","","","","","",""
"null","","audio-keyboard-response","220","2395827","0.0-13.0-0.42","a","20","Sounds/frog_label.wav","null","1","","","","","","",""
"null","","html-keyboard-response","221","2396826","0.0-13.0-1.42","a","20","<p style=""font-size: 48px;"">+</p>","null","1","","","","","","",""
"745.6799999922514","","image-keyboard-response","222","2397573","0.0-13.0-2.42","a","20","Images/rooster_cartoon.png","76","1","1582145314448","non-match","rooster","frog","label","test","true"
"null","","audio-keyboard-response","223","2399581","0.0-13.0-3.42","a","20","Sounds/correct.wav","null","1","","","","","","",""
"null","","audio-keyboard-response","224","2400667","0.0-13.0-0.43","a","20","Sounds/car_sound.wav","null","1","","","","","","",""
"null","","html-keyboard-response","225","2401659","0.0-13.0-1.43","a","20","<p style=""font-size: 48px;"">+</p>","null","1","","","","","","",""
"400.63999997777864","","image-keyboard-response","226","2402061","0.0-13.0-2.43","a","20","Images/car_2.png","65","1","1582145319281","match","car","car","sound","test","true"
"null","","audio-keyboard-response","227","2404066","0.0-13.0-3.43","a","20","Sounds/correct.wav","null","1","","","","","","",""
"null","","audio-keyboard-response","228","2405087","0.0-13.0-0.44","a","20","Sounds/cow_label.wav","null","1","","","","","","",""
"null","","html-keyboard-response","229","2406093","0.0-13.0-1.44","a","20","<p style=""font-size: 48px;"">+</p>","null","1","","","","","","",""
"502.80500002531335","","image-keyboard-response","230","2406597","0.0-13.0-2.44","a","20","Images/motorcycle_3.png","76","1","1582145323715","non-match","motorcycle","cow","label","test","true"
"null","","audio-keyboard-response","231","2408599","0.0-13.0-3.44","a","20","Sounds/correct.wav","null","1","","","","","","",""
"null","","audio-keyboard-response","232","2409727","0.0-13.0-0.45","a","20","Sounds/motorcycle_sound.wav","null","1","","","","","","",""
"null","","html-keyboard-response","233","2410726","0.0-13.0-1.45","a","20","<p style=""font-size: 48px;"">+</p>","null","1","","","","","","",""
"548.9899999811314","","image-keyboard-response","234","2411277","0.0-13.0-2.45","a","20","Images/whistle_2.png","76","1","1582145328348","non-match","whistle","motorcycle","sound","test","true"
"null","","audio-keyboard-response","235","2413281","0.0-13.0-3.45","a","20","Sounds/correct.wav","null","1","","","","","","",""
"null","","audio-keyboard-response","236","2414367","0.0-13.0-0.46","a","20","Sounds/car_label.wav","null","1","","","","","","",""
"null","","html-keyboard-response","237","2415360","0.0-13.0-1.46","a","20","<p style=""font-size: 48px;"">+</p>","null","1","","","","","","",""
"412.539999990724","","image-keyboard-response","238","2415773","0.0-13.0-2.46","a","20","Images/car_1.png","65","1","1582145332982","match","car","car","label","test","true"
"null","","audio-keyboard-response","239","2417785","0.0-13.0-3.46","a","20","Sounds/correct.wav","null","1","","","","","","",""
"null","","audio-keyboard-response","240","2418347","0.0-13.0-0.47","a","20","Sounds/gun_sound.wav","null","1","","","","","","",""
"null","","html-keyboard-response","241","2419343","0.0-13.0-1.47","a","20","<p style=""font-size: 48px;"">+</p>","null","1","","","","","","",""
"404.9599999850616","","image-keyboard-response","242","2419749","0.0-13.0-2.47","a","20","Images/gun_cartoon.png","65","1","1582145336965","match","gun","gun","sound","test","true"
"null","","audio-keyboard-response","243","2421762","0.0-13.0-3.47","a","20","Sounds/correct.wav","null","1","","","","","","",""
"null","","audio-keyboard-response","244","2422787","0.0-13.0-0.48","a","20","Sounds/cow_sound.wav","null","1","","","","","","",""
"null","","html-keyboard-response","245","2423793","0.0-13.0-1.48","a","20","<p style=""font-size: 48px;"">+</p>","null","1","","","","","","",""
"514.7050000089221","","image-keyboard-response","246","2424309","0.0-13.0-2.48","a","20","Images/rooster_2.png","76","1","1582145341415","non-match","rooster","cow","sound","test","true"
"null","","audio-keyboard-response","247","2426316","0.0-13.0-3.48","a","20","Sounds/correct.wav","null","1","","","","","","",""
"null","","audio-keyboard-response","248","2427607","0.0-13.0-0.49","a","20","Sounds/train_sound.wav","null","1","","","","","","",""
"null","","html-keyboard-response","249","2428610","0.0-13.0-1.49","a","20","<p style=""font-size: 48px;"">+</p>","null","1","","","","","","",""
"506.48000001115724","","image-keyboard-response","250","2429117","0.0-13.0-2.49","a","20","Images/train_cartoon.png","65","1","1582145346232","match","train","train","sound","test","true"
"null","","audio-keyboard-response","251","2431130","0.0-13.0-3.49","a","20","Sounds/correct.wav","null","1","","","","","","",""
"null","","audio-keyboard-response","252","2432407","0.0-13.0-0.50","a","20","Sounds/train_sound.wav","null","1","","","","","","",""
"null","","html-keyboard-response","253","2433410","0.0-13.0-1.50","a","20","<p style=""font-size: 48px;"">+</p>","null","1","","","","","","",""
"634.0999999954365","","image-keyboard-response","254","2434045","0.0-13.0-2.50","a","20","Images/whistle_3.png","76","1","1582145351032","non-match","whistle","train","sound","test","true"
"null","","audio-keyboard-response","255","2436056","0.0-13.0-3.50","a","20","Sounds/correct.wav","null","1","","","","","","",""
"null","","audio-keyboard-response","256","2437127","0.0-13.0-0.51","a","20","Sounds/car_sound.wav","null","1","","","","","","",""
"null","","html-keyboard-response","257","2438126","0.0-13.0-1.51","a","20","<p style=""font-size: 48px;"">+</p>","null","1","","","","","","",""
"661.5649999873713","","image-keyboard-response","258","2438789","0.0-13.0-2.51","a","20","Images/car_orig.png","65","1","1582145355749","match","car","car","sound","test","true"
"null","","audio-keyboard-response","259","2440798","0.0-13.0-3.51","a","20","Sounds/correct.wav","null","1","","","","","","",""
"null","","audio-keyboard-response","260","2441687","0.0-13.0-0.52","a","20","Sounds/frog_label.wav","null","1","","","","","","",""
"null","","html-keyboard-response","261","2442676","0.0-13.0-1.52","a","20","<p style=""font-size: 48px;"">+</p>","null","1","","","","","","",""
"439.55499998945743","","image-keyboard-response","262","2443117","0.0-13.0-2.52","a","20","Images/gun_1.png","76","1","1582145360299","non-match","gun","frog","label","test","true"
"null","","audio-keyboard-response","263","2445131","0.0-13.0-3.52","a","20","Sounds/correct.wav","null","1","","","","","","",""
"null","","audio-keyboard-response","264","2445787","0.0-13.0-0.53","a","20","Sounds/dog_label.wav","null","1","","","","","","",""
"null","","html-keyboard-response","265","2446776","0.0-13.0-1.53","a","20","<p style=""font-size: 48px;"">+</p>","null","1","","","","","","",""
"523.4700000146404","","image-keyboard-response","266","2447301","0.0-13.0-2.53","a","20","Images/rooster_1.png","76","1","1582145364399","non-match","rooster","dog","label","test","true"
"null","","audio-keyboard-response","267","2449314","0.0-13.0-3.53","a","20","Sounds/correct.wav","null","1","","","","","","",""
"null","","audio-keyboard-response","268","2449887","0.0-13.0-0.54","a","20","Sounds/gun_sound.wav","null","1","","","","","","",""
"null","","html-keyboard-response","269","2450876","0.0-13.0-1.54","a","20","<p style=""font-size: 48px;"">+</p>","null","1","","","","","","",""
"463.24999997159466","","image-keyboard-response","270","2451341","0.0-13.0-2.54","a","20","Images/gun_2.png","65","1","1582145368498","match","gun","gun","sound","test","true"
"null","","audio-keyboard-response","271","2453349","0.0-13.0-3.54","a","20","Sounds/correct.wav","null","1","","","","","","",""
"null","","audio-keyboard-response","272","2454647","0.0-13.0-0.55","a","20","Sounds/train_sound.wav","null","1","","","","","","",""
"null","","html-keyboard-response","273","2455643","0.0-13.0-1.55","a","20","<p style=""font-size: 48px;"">+</p>","null","1","","","","","","",""
"536.6749999811873","","image-keyboard-response","274","2456181","0.0-13.0-2.55","a","20","Images/car_2.png","76","1","1582145373265","non-match","car","train","sound","test","true"
"null","","audio-keyboard-response","275","2458198","0.0-13.0-3.55","a","20","Sounds/correct.wav","null","1","","","","","","",""
"null","","audio-keyboard-response","276","2459027","0.0-13.0-0.56","a","20","Sounds/cat_sound.wav","null","1","","","","","","",""
"null","","html-keyboard-response","277","2460026","0.0-13.0-1.56","a","20","<p style=""font-size: 48px;"">+</p>","null","1","","","","","","",""
"369.28499999362975","","image-keyboard-response","278","2460397","0.0-13.0-2.56","a","20","Images/cat_3.png","65","1","1582145377648","match","cat","cat","sound","test","true"
"null","","audio-keyboard-response","279","2462414","0.0-13.0-3.56","a","20","Sounds/correct.wav","null","1","","","","","","",""
"null","","audio-keyboard-response","280","2463487","0.0-13.0-0.57","a","20","Sounds/car_label.wav","null","1","","","","","","",""
"null","","html-keyboard-response","281","2464476","0.0-13.0-1.57","a","20","<p style=""font-size: 48px;"">+</p>","null","1","","","","","","",""
"375.18000000249594","","image-keyboard-response","282","2464853","0.0-13.0-2.57","a","20","Images/car_3.png","65","1","1582145382099","match","car","car","label","test","true"
"null","","audio-keyboard-response","283","2466864","0.0-13.0-3.57","a","20","Sounds/correct.wav","null","1","","","","","","",""
"null","","audio-keyboard-response","284","2467987","0.0-13.0-0.58","a","20","Sounds/motorcycle_sound.wav","null","1","","","","","","",""
"null","","html-keyboard-response","285","2468976","0.0-13.0-1.58","a","20","<p style=""font-size: 48px;"">+</p>","null","1","","","","","","",""
"507.48000000044703","","image-keyboard-response","286","2469485","0.0-13.0-2.58","a","20","Images/motorcycle_orig.png","65","1","1582145386599","match","motorcycle","motorcycle","sound","test","true"
"null","","audio-keyboard-response","287","2471498","0.0-13.0-3.58","a","20","Sounds/correct.wav","null","1","","","","","","",""
"null","","audio-keyboard-response","288","2472187","0.0-13.0-0.59","a","20","Sounds/whistle_sound.wav","null","1","","","","","","",""
"null","","html-keyboard-response","289","2473177","0.0-13.0-1.59","a","20","<p style=""font-size: 48px;"">+</p>","null","1","","","","","","",""
"339.06500000786036","","image-keyboard-response","290","2473517","0.0-13.0-2.59","a","20","Images/whistle_2.png","65","1","1582145390799","match","whistle","whistle","sound","test","true"
"null","","audio-keyboard-response","291","2475531","0.0-13.0-3.59","a","20","Sounds/correct.wav","null","1","","","","","","",""
"null","","audio-keyboard-response","292","2476227","0.0-13.0-0.60","a","20","Sounds/rooster_sound.wav","null","1","","","","","","",""
"null","","html-keyboard-response","293","2477227","0.0-13.0-1.60","a","20","<p style=""font-size: 48px;"">+</p>","null","1","","","","","","",""
"432.86500000953674","","image-keyboard-response","294","2477660","0.0-13.0-2.60","a","20","Images/car_1.png","76","1","1582145394849","non-match","car","rooster","sound","test","true"
"null","","audio-keyboard-response","295","2479665","0.0-13.0-3.60","a","20","Sounds/correct.wav","null","1","","","","","","",""
"null","","audio-keyboard-response","296","2480747","0.0-13.0-0.61","a","20","Sounds/car_sound.wav","null","1","","","","","","",""
"null","","html-keyboard-response","297","2481743","0.0-13.0-1.61","a","20","<p style=""font-size: 48px;"">+</p>","null","1","","","","","","",""
"387.3200000086799","","image-keyboard-response","298","2482133","0.0-13.0-2.61","a","20","Images/car_cartoon.png","65","1","1582145399365","match","car","car","sound","test","true"
"null","","audio-keyboard-response","299","2484149","0.0-13.0-3.61","a","20","Sounds/correct.wav","null","1","","","","","","",""
"null","","audio-keyboard-response","300","2485287","0.0-13.0-0.62","a","20","Sounds/motorcycle_label.wav","null","1","","","","","","",""
"null","","html-keyboard-response","301","2486277","0.0-13.0-1.62","a","20","<p style=""font-size: 48px;"">+</p>","null","1","","","","","","",""
"423.04500000271946","","image-keyboard-response","302","2486701","0.0-13.0-2.62","a","20","Images/motorcycle_cartoon.png","65","1","1582145403899","match","motorcycle","motorcycle","label","test","true"
"null","","audio-keyboard-response","303","2488717","0.0-13.0-3.62","a","20","Sounds/correct.wav","null","1","","","","","","",""
"null","","audio-keyboard-response","304","2489387","0.0-13.0-0.63","a","20","Sounds/whistle_sound.wav","null","1","","","","","","",""
"null","","html-keyboard-response","305","2490377","0.0-13.0-1.63","a","20","<p style=""font-size: 48px;"">+</p>","null","1","","","","","","",""
"402.6650000018999","","image-keyboard-response","306","2490781","0.0-13.0-2.63","a","20","Images/whistle_cartoon.png","65","1","1582145407999","match","whistle","whistle","sound","test","true"
"null","","audio-keyboard-response","307","2492797","0.0-13.0-3.63","a","20","Sounds/correct.wav","null","1","","","","","","",""
"null","","audio-keyboard-response","308","2493707","0.0-13.0-0.64","a","20","Sounds/frog_label.wav","null","1","","","","","","",""
"null","","html-keyboard-response","309","2494710","0.0-13.0-1.64","a","20","<p style=""font-size: 48px;"">+</p>","null","1","","","","","","",""
"437.5649999999441","","image-keyboard-response","310","2495149","0.0-13.0-2.64","a","20","Images/motorcycle_cartoon.png","76","1","1582145412332","non-match","motorcycle","frog","label","test","true"
"null","","audio-keyboard-response","311","2497165","0.0-13.0-3.64","a","20","Sounds/correct.wav","null","1","","","","","","",""
"null","","audio-keyboard-response","312","2498447","0.0-13.0-0.65","a","20","Sounds/train_label.wav","null","1","","","","","","",""
"null","","html-keyboard-response","313","2499444","0.0-13.0-1.65","a","20","<p style=""font-size: 48px;"">+</p>","null","1","","","","","","",""
"936.0349999917671","","image-keyboard-response","314","2500381","0.0-13.0-2.65","a","20","Images/train_1.png","65","1","1582145417066","match","train","train","label","test","true"
"null","","audio-keyboard-response","315","2502397","0.0-13.0-3.65","a","20","Sounds/correct.wav","null","1","","","","","","",""
"null","","audio-keyboard-response","316","2503227","0.0-13.0-0.66","a","20","Sounds/cat_label.wav","null","1","","","","","","",""
"null","","html-keyboard-response","317","2504227","0.0-13.0-1.66","a","20","<p style=""font-size: 48px;"">+</p>","null","1","","","","","","",""
"504.60000001452863","","image-keyboard-response","318","2504733","0.0-13.0-2.66","a","20","Images/rooster_orig.png","76","1","1582145421849","non-match","rooster","cat","label","test","true"
"null","","audio-keyboard-response","319","2506748","0.0-13.0-3.66","a","20","Sounds/correct.wav","null","1","","","","","","",""
"null","","audio-keyboard-response","320","2507587","0.0-13.0-0.67","a","20","Sounds/cat_sound.wav","null","1","","","","","","",""
"null","","html-keyboard-response","321","2508577","0.0-13.0-1.67","a","20","<p style=""font-size: 48px;"">+</p>","null","1","","","","","","",""
"378.9350000154227","","image-keyboard-response","322","2508957","0.0-13.0-2.67","a","20","Images/cat_cartoon.png","65","1","1582145426199","match","cat","cat","sound","test","true"
"null","","audio-keyboard-response","323","2510967","0.0-13.0-3.67","a","20","Sounds/correct.wav","null","1","","","","","","",""
"null","","audio-keyboard-response","324","2512266","0.0-13.0-0.68","a","20","Sounds/train_sound.wav","null","1","","","","","","",""
"null","","html-keyboard-response","325","2513260","0.0-13.0-1.68","a","20","<p style=""font-size: 48px;"">+</p>","null","1","","","","","","",""
"479.2200000085868","","image-keyboard-response","326","2513740","0.0-13.0-2.68","a","20","Images/dog_cartoon.png","76","1","1582145430882","non-match","dog","train","sound","test","true"
"null","","audio-keyboard-response","327","2515748","0.0-13.0-3.68","a","20","Sounds/correct.wav","null","1","","","","","","",""
"null","","audio-keyboard-response","328","2516566","0.0-13.0-0.69","a","20","Sounds/cat_label.wav","null","1","","","","","","",""
"null","","html-keyboard-response","329","2517559","0.0-13.0-1.69","a","20","<p style=""font-size: 48px;"">+</p>","null","1","","","","","","",""
"563.9500000104308","","image-keyboard-response","330","2518124","0.0-13.0-2.69","a","20","Images/cow_orig.png","76","1","1582145435182","non-match","cow","cat","label","test","true"
"null","","audio-keyboard-response","331","2520133","0.0-13.0-3.69","a","20","Sounds/correct.wav","null","1","","","","","","",""
"null","","audio-keyboard-response","332","2520786","0.0-13.0-0.70","a","20","Sounds/dog_label.wav","null","1","","","","","","",""
"null","","html-keyboard-response","333","2521777","0.0-13.0-1.70","a","20","<p style=""font-size: 48px;"">+</p>","null","1","","","","","","",""
"586.7200000211596","","image-keyboard-response","334","2522364","0.0-13.0-2.70","a","20","Images/cow_1.png","76","1","1582145439399","non-match","cow","dog","label","test","true"
"null","","audio-keyboard-response","335","2524381","0.0-13.0-3.70","a","20","Sounds/correct.wav","null","1","","","","","","",""
"null","","audio-keyboard-response","336","2525086","0.0-13.0-0.71","a","20","Sounds/whistle_sound.wav","null","1","","","","","","",""
"null","","html-keyboard-response","337","2526077","0.0-13.0-1.71","a","20","<p style=""font-size: 48px;"">+</p>","null","1","","","","","","",""
"606.4450000119396","","image-keyboard-response","338","2526684","0.0-13.0-2.71","a","20","Images/dog_2.png","76","1","1582145443699","non-match","dog","whistle","sound","test","true"
"null","","audio-keyboard-response","339","2528699","0.0-13.0-3.71","a","20","Sounds/correct.wav","null","1","","","","","","",""
"null","","audio-keyboard-response","340","2529286","0.0-13.0-0.72","a","20","Sounds/gun_sound.wav","null","1","","","","","","",""
"null","","html-keyboard-response","341","2530277","0.0-13.0-1.72","a","20","<p style=""font-size: 48px;"">+</p>","null","1","","","","","","",""
"566.3899999926798","","image-keyboard-response","342","2530844","0.0-13.0-2.72","a","20","Images/motorcycle_orig.png","76","1","1582145447899","non-match","motorcycle","gun","sound","test","true"
"null","","audio-keyboard-response","343","2532848","0.0-13.0-3.72","a","20","Sounds/correct.wav","null","1","","","","","","",""
"null","","audio-keyboard-response","344","2533686","0.0-13.0-0.73","a","20","Sounds/cat_sound.wav","null","1","","","","","","",""
"null","","html-keyboard-response","345","2534677","0.0-13.0-1.73","a","20","<p style=""font-size: 48px;"">+</p>","null","1","","","","","","",""
"574.529999983497","","image-keyboard-response","346","2535252","0.0-13.0-2.73","a","20","Images/dog_1.png","76","1","1582145452299","non-match","dog","cat","sound","test","true"
"null","","audio-keyboard-response","347","2537265","0.0-13.0-3.73","a","20","Sounds/correct.wav","null","1","","","","","","",""
"null","","audio-keyboard-response","348","2538106","0.0-13.0-0.74","a","20","Sounds/cat_label.wav","null","1","","","","","","",""
"null","","html-keyboard-response","349","2539110","0.0-13.0-1.74","a","20","<p style=""font-size: 48px;"">+</p>","null","1","","","","","","",""
"468.9950000029057","","image-keyboard-response","350","2539580","0.0-13.0-2.74","a","20","Images/motorcycle_2.png","76","1","1582145456732","non-match","motorcycle","cat","label","test","true"
"null","","audio-keyboard-response","351","2541587","0.0-13.0-3.74","a","20","Sounds/correct.wav","null","1","","","","","","",""
"null","","audio-keyboard-response","352","2542286","0.0-13.0-0.75","a","20","Sounds/dog_sound.wav","null","1","","","","","","",""
"null","","html-keyboard-response","353","2543277","0.0-13.0-1.75","a","20","<p style=""font-size: 48px;"">+</p>","null","1","","","","","","",""
"486.47999999206513","","image-keyboard-response","354","2543764","0.0-13.0-2.75","a","20","Images/gun_3.png","65","1","1582145460899","non-match","gun","dog","sound","test","false"
"null","","audio-keyboard-response","355","2545781","0.0-13.0-3.75","a","20","Sounds/incorrect.wav","null","1","","","","","","",""
"null","","audio-keyboard-response","356","2546866","0.0-13.0-0.76","a","20","Sounds/car_label.wav","null","1","","","","","","",""
"null","","html-keyboard-response","357","2547860","0.0-13.0-1.76","a","20","<p style=""font-size: 48px;"">+</p>","null","1","","","","","","",""
"567.0250000259839","","image-keyboard-response","358","2548428","0.0-13.0-2.76","a","20","Images/train_3.png","76","1","1582145465482","non-match","train","car","label","test","true"
"null","","audio-keyboard-response","359","2550432","0.0-13.0-3.76","a","20","Sounds/correct.wav","null","1","","","","","","",""
"null","","audio-keyboard-response","360","2551446","0.0-13.0-0.77","a","20","Sounds/cow_sound.wav","null","1","","","","","","",""
"null","","html-keyboard-response","361","2552444","0.0-13.0-1.77","a","20","<p style=""font-size: 48px;"">+</p>","null","1","","","","","","",""
"767.3800000050105","","image-keyboard-response","362","2553212","0.0-13.0-2.77","a","20","Images/cat_2.png","76","1","1582145470066","non-match","cat","cow","sound","test","true"
"null","","audio-keyboard-response","363","2555215","0.0-13.0-3.77","a","20","Sounds/correct.wav","null","1","","","","","","",""
"null","","audio-keyboard-response","364","2556066","0.0-13.0-0.78","a","20","Sounds/cat_sound.wav","null","1","","","","","","",""
"null","","html-keyboard-response","365","2557060","0.0-13.0-1.78","a","20","<p style=""font-size: 48px;"">+</p>","null","1","","","","","","",""
"445.5949999978766","","image-keyboard-response","366","2557508","0.0-13.0-2.78","a","20","Images/cat_2.png","65","1","1582145474682","match","cat","cat","sound","test","true"
"null","","audio-keyboard-response","367","2559517","0.0-13.0-3.78","a","20","Sounds/correct.wav","null","1","","","","","","",""
"null","","audio-keyboard-response","368","2560426","0.0-13.0-0.79","a","20","Sounds/frog_sound.wav","null","1","","","","","","",""
"null","","html-keyboard-response","369","2561444","0.0-13.0-1.79","a","20","<p style=""font-size: 48px;"">+</p>","null","1","","","","","","",""
"487.5999999931082","","image-keyboard-response","370","2561932","0.0-13.0-2.79","a","20","Images/cow_cartoon.png","76","1","1582145479066","non-match","cow","frog","sound","test","true"
"null","","audio-keyboard-response","371","2563948","0.0-13.0-3.79","a","20","Sounds/correct.wav","null","1","","","","","","",""
"null","","audio-keyboard-response","372","2565086","0.0-13.0-0.80","a","20","Sounds/motorcycle_label.wav","null","1","","","","","","",""
"null","","html-keyboard-response","373","2566077","0.0-13.0-1.80","a","20","<p style=""font-size: 48px;"">+</p>","null","1","","","","","","",""
"518.0950000062585","","image-keyboard-response","374","2566596","0.0-13.0-2.80","a","20","Images/motorcycle_2.png","65","1","1582145483699","match","motorcycle","motorcycle","label","test","true"
"null","","audio-keyboard-response","375","2568599","0.0-13.0-3.80","a","20","Sounds/correct.wav","null","1","","","","","","",""
"null","","audio-keyboard-response","376","2569306","0.0-13.0-0.81","a","20","Sounds/dog_sound.wav","null","1","","","","","","",""
"null","","html-keyboard-response","377","2570311","0.0-13.0-1.81","a","20","<p style=""font-size: 48px;"">+</p>","null","1","","","","","","",""
"452.61000000778586","","image-keyboard-response","378","2570764","0.0-13.0-2.81","a","20","Images/dog_orig.png","65","1","1582145487933","match","dog","dog","sound","test","true"
"null","","audio-keyboard-response","379","2572781","0.0-13.0-3.81","a","20","Sounds/correct.wav","null","1","","","","","","",""
"null","","audio-keyboard-response","380","2573686","0.0-13.0-0.82","a","20","Sounds/frog_label.wav","null","1","","","","","","",""
"null","","html-keyboard-response","381","2574677","0.0-13.0-1.82","a","20","<p style=""font-size: 48px;"">+</p>","null","1","","","","","","",""
"446.09499999228865","","image-keyboard-response","382","2575124","0.0-13.0-2.82","a","20","Images/frog_orig.png","65","1","1582145492299","match","frog","frog","label","test","true"
"null","","audio-keyboard-response","383","2577132","0.0-13.0-3.82","a","20","Sounds/correct.wav","null","1","","","","","","",""
"null","","audio-keyboard-response","384","2577786","0.0-13.0-0.83","a","20","Sounds/dog_label.wav","null","1","","","","","","",""
"null","","html-keyboard-response","385","2578777","0.0-13.0-1.83","a","20","<p style=""font-size: 48px;"">+</p>","null","1","","","","","","",""
"601.8099999926053","","image-keyboard-response","386","2579380","0.0-13.0-2.83","a","20","Images/dog_1.png","65","1","1582145496399","match","dog","dog","label","test","true"
"null","","audio-keyboard-response","387","2581397","0.0-13.0-3.83","a","20","Sounds/correct.wav","null","1","","","","","","",""
"null","","audio-keyboard-response","388","2582106","0.0-13.0-0.84","a","20","Sounds/whistle_label.wav","null","1","","","","","","",""
"null","","html-keyboard-response","389","2583110","0.0-13.0-1.84","a","20","<p style=""font-size: 48px;"">+</p>","null","1","","","","","","",""
"372.26499998383224","","image-keyboard-response","390","2583484","0.0-13.0-2.84","a","20","Images/whistle_1.png","65","1","1582145500732","match","whistle","whistle","label","test","true"
"null","","audio-keyboard-response","391","2585499","0.0-13.0-3.84","a","20","Sounds/correct.wav","null","1","","","","","","",""
"null","","audio-keyboard-response","392","2586126","0.0-13.0-0.85","a","20","Sounds/dog_label.wav","null","1","","","","","","",""
"null","","html-keyboard-response","393","2587143","0.0-13.0-1.85","a","20","<p style=""font-size: 48px;"">+</p>","null","1","","","","","","",""
"481.16500000469387","","image-keyboard-response","394","2587628","0.0-13.0-2.85","a","20","Images/dog_3.png","65","1","1582145504766","match","dog","dog","label","test","true"
"null","","audio-keyboard-response","395","2589632","0.0-13.0-3.85","a","20","Sounds/correct.wav","null","1","","","","","","",""
"null","","audio-keyboard-response","396","2590706","0.0-13.0-0.86","a","20","Sounds/car_sound.wav","null","1","","","","","","",""
"null","","html-keyboard-response","397","2591710","0.0-13.0-1.86","a","20","<p style=""font-size: 48px;"">+</p>","null","1","","","","","","",""
"796.3349999920465","","image-keyboard-response","398","2592508","0.0-13.0-2.86","a","20","Images/gun_cartoon.png","76","1","1582145509332","non-match","gun","car","sound","test","true"
"null","","audio-keyboard-response","399","2594517","0.0-13.0-3.86","a","20","Sounds/correct.wav","null","1","","","","","","",""
"null","","audio-keyboard-response","400","2595566","0.0-13.0-0.87","a","20","Sounds/car_sound.wav","null","1","","","","","","",""
"null","","html-keyboard-response","401","2596560","0.0-13.0-1.87","a","20","<p style=""font-size: 48px;"">+</p>","null","1","","","","","","",""
"794.3749999976717","","image-keyboard-response","402","2597356","0.0-13.0-2.87","a","20","Images/whistle_cartoon.png","76","1","1582145514183","non-match","whistle","car","sound","test","true"
"null","","audio-keyboard-response","403","2599367","0.0-13.0-3.87","a","20","Sounds/correct.wav","null","1","","","","","","",""
"null","","audio-keyboard-response","404","2600666","0.0-13.0-0.88","a","20","Sounds/train_sound.wav","null","1","","","","","","",""
"null","","html-keyboard-response","405","2601660","0.0-13.0-1.88","a","20","<p style=""font-size: 48px;"">+</p>","null","1","","","","","","",""
"718.8200000091456","","image-keyboard-response","406","2602380","0.0-13.0-2.88","a","20","Images/frog_1.png","76","1","1582145519283","non-match","frog","train","sound","test","true"
"null","","audio-keyboard-response","407","2604398","0.0-13.0-3.88","a","20","Sounds/correct.wav","null","1","","","","","","",""
"null","","audio-keyboard-response","408","2605526","0.0-13.0-0.89","a","20","Sounds/motorcycle_label.wav","null","1","","","","","","",""
"null","","html-keyboard-response","409","2606544","0.0-13.0-1.89","a","20","<p style=""font-size: 48px;"">+</p>","null","1","","","","","","",""
"1082.7950000236742","","image-keyboard-response","410","2607628","0.0-13.0-2.89","a","20","Images/dog_3.png","76","1","1582145524166","non-match","dog","motorcycle","label","test","true"
"null","","audio-keyboard-response","411","2609634","0.0-13.0-3.89","a","20","Sounds/correct.wav","null","1","","","","","","",""
"null","","audio-keyboard-response","412","2610326","0.0-13.0-0.90","a","20","Sounds/whistle_label.wav","null","1","","","","","","",""
"null","","html-keyboard-response","413","2611344","0.0-13.0-1.90","a","20","<p style=""font-size: 48px;"">+</p>","null","1","","","","","","",""
"539.1399999791756","","image-keyboard-response","414","2611884","0.0-13.0-2.90","a","20","Images/train_2.png","76","1","1582145528966","non-match","train","whistle","label","test","true"
"null","","audio-keyboard-response","415","2613898","0.0-13.0-3.90","a","20","Sounds/correct.wav","null","1","","","","","","",""
"null","","audio-keyboard-response","416","2614806","0.0-13.0-0.91","a","20","Sounds/frog_label.wav","null","1","","","","","","",""
"null","","html-keyboard-response","417","2615811","0.0-13.0-1.91","a","20","<p style=""font-size: 48px;"">+</p>","null","1","","","","","","",""
"448.09499999973923","","image-keyboard-response","418","2616260","0.0-13.0-2.91","a","20","Images/frog_cartoon.png","65","1","1582145533433","match","frog","frog","label","test","true"
"null","","audio-keyboard-response","419","2618265","0.0-13.0-3.91","a","20","Sounds/correct.wav","null","1","","","","","","",""
"null","","audio-keyboard-response","420","2619546","0.0-13.0-0.92","a","20","Sounds/train_label.wav","null","1","","","","","","",""
"null","","html-keyboard-response","421","2620544","0.0-13.0-1.92","a","20","<p style=""font-size: 48px;"">+</p>","null","1","","","","","","",""
"1563.0449999878183","","image-keyboard-response","422","2622108","0.0-13.0-2.92","a","20","Images/train_3.png","65","1","1582145538166","match","train","train","label","test","true"
"null","","audio-keyboard-response","423","2624120","0.0-13.0-3.92","a","20","Sounds/correct.wav","null","1","","","","","","",""
"null","","audio-keyboard-response","424","2625206","0.0-13.0-0.93","a","20","Sounds/car_label.wav","null","1","","","","","","",""
"null","","html-keyboard-response","425","2626211","0.0-13.0-1.93","a","20","<p style=""font-size: 48px;"">+</p>","null","1","","","","","","",""
"446.75999999186024","","image-keyboard-response","426","2626660","0.0-13.0-2.93","a","20","Images/cow_2.png","76","1","1582145543833","non-match","cow","car","label","test","true"
"null","","audio-keyboard-response","427","2628671","0.0-13.0-3.93","a","20","Sounds/correct.wav","null","1","","","","","","",""
"null","","audio-keyboard-response","428","2629546","0.0-13.0-0.94","a","20","Sounds/frog_label.wav","null","1","","","","","","",""
"null","","html-keyboard-response","429","2630544","0.0-13.0-1.94","a","20","<p style=""font-size: 48px;"">+</p>","null","1","","","","","","",""
"499.004999990575","","image-keyboard-response","430","2631044","0.0-13.0-2.94","a","20","Images/frog_1.png","65","1","1582145548166","match","frog","frog","label","test","true"
"null","","audio-keyboard-response","431","2633049","0.0-13.0-3.94","a","20","Sounds/correct.wav","null","1","","","","","","",""
"null","","audio-keyboard-response","432","2634166","0.0-13.0-0.95","a","20","Sounds/motorcycle_sound.wav","null","1","","","","","","",""
"null","","html-keyboard-response","433","2635161","0.0-13.0-1.95","a","20","<p style=""font-size: 48px;"">+</p>","null","1","","","","","","",""
"1248.6349999960512","","image-keyboard-response","434","2636412","0.0-13.0-2.95","a","20","Images/train_1.png","76","1","1582145552783","non-match","train","motorcycle","sound","test","true"
"null","","audio-keyboard-response","435","2638420","0.0-13.0-3.95","a","20","Sounds/correct.wav","null","1","","","","","","",""
"null","","audio-keyboard-response","436","2639506","0.0-13.0-0.96","a","20","Sounds/motorcycle_sound.wav","null","1","","","","","","",""
"null","","html-keyboard-response","437","2640494","0.0-13.0-1.96","a","20","<p style=""font-size: 48px;"">+</p>","null","1","","","","","","",""
"740.7950000199489","","image-keyboard-response","438","2641236","0.0-13.0-2.96","a","20","Images/frog_cartoon.png","76","1","1582145558116","non-match","frog","motorcycle","sound","test","true"
"null","","audio-keyboard-response","439","2643248","0.0-13.0-3.96","a","20","Sounds/correct.wav","null","1","","","","","","",""
"null","","audio-keyboard-response","440","2644546","0.0-13.0-0.97","a","20","Sounds/train_sound.wav","null","1","","","","","","",""
"null","","html-keyboard-response","441","2645544","0.0-13.0-1.97","a","20","<p style=""font-size: 48px;"">+</p>","null","1","","","","","","",""
"481.70499998377636","","image-keyboard-response","442","2646028","0.0-13.0-2.97","a","20","Images/train_2.png","65","1","1582145563166","match","train","train","sound","test","true"
"null","","audio-keyboard-response","443","2648033","0.0-13.0-3.97","a","20","Sounds/correct.wav","null","1","","","","","","",""
"null","","audio-keyboard-response","444","2648726","0.0-13.0-0.98","a","20","Sounds/rooster_label.wav","null","1","","","","","","",""
"null","","html-keyboard-response","445","2649744","0.0-13.0-1.98","a","20","<p style=""font-size: 48px;"">+</p>","null","1","","","","","","",""
"490.2850000075996","","image-keyboard-response","446","2650236","0.0-13.0-2.98","a","20","Images/train_cartoon.png","76","1","1582145567366","non-match","train","rooster","label","test","true"
"null","","audio-keyboard-response","447","2652250","0.0-13.0-3.98","a","20","Sounds/correct.wav","null","1","","","","","","",""
"null","","audio-keyboard-response","448","2652826","0.0-13.0-0.99","a","20","Sounds/gun_sound.wav","null","1","","","","","","",""
"null","","html-keyboard-response","449","2653844","0.0-13.0-1.99","a","20","<p style=""font-size: 48px;"">+</p>","null","1","","","","","","",""
"398.7300000153482","","image-keyboard-response","450","2654244","0.0-13.0-2.99","a","20","Images/whistle_1.png","65","1","1582145571466","non-match","whistle","gun","sound","test","false"
"null","","audio-keyboard-response","451","2656249","0.0-13.0-3.99","a","20","Sounds/incorrect.wav","null","1","","","","","","",""
"19545.960000017658","","html-keyboard-response","452","2675796","0.0-14.0","a","20","<p>Please take this opportunity to rest your eyes before proceeding.</p><p>When ready, press the enter key to continue to the next set of trials.</p>","13","","","","","","","",""
"null","","audio-keyboard-response","453","2678831","0.0-15.0-0.0","a","20","Sounds/cow_label.wav","null","2","","","","","","",""
"null","","html-keyboard-response","454","2679828","0.0-15.0-1.0","a","20","<p style=""font-size: 48px;"">+</p>","null","2","","","","","","",""
"430.3099999958649","","image-keyboard-response","455","2680260","0.0-15.0-2.0","a","20","Images/cow_1.png","65","2","1582145597450","match","cow","cow","label","test","true"
"null","","audio-keyboard-response","456","2682266","0.0-15.0-3.0","a","20","Sounds/correct.wav","null","2","","","","","","",""
"null","","audio-keyboard-response","457","2683551","0.0-15.0-0.1","a","20","Sounds/train_label.wav","null","2","","","","","","",""
"null","","html-keyboard-response","458","2684545","0.0-15.0-1.1","a","20","<p style=""font-size: 48px;"">+</p>","null","2","","","","","","",""
"393.9299999913201","","image-keyboard-response","459","2684940","0.0-15.0-2.1","a","20","Images/train_1.png","65","2","1582145602167","match","train","train","label","test","true"
"null","","audio-keyboard-response","460","2686947","0.0-15.0-3.1","a","20","Sounds/correct.wav","null","2","","","","","","",""
"null","","audio-keyboard-response","461","2687611","0.0-15.0-0.2","a","20","Sounds/dog_label.wav","null","2","","","","","","",""
"null","","html-keyboard-response","462","2688611","0.0-15.0-1.2","a","20","<p style=""font-size: 48px;"">+</p>","null","2","","","","","","",""
"343.5150000145659","","image-keyboard-response","463","2688956","0.0-15.0-2.2","a","20","Images/dog_3.png","65","2","1582145606233","match","dog","dog","label","test","true"
"null","","audio-keyboard-response","464","2690965","0.0-15.0-3.2","a","20","Sounds/correct.wav","null","2","","","","","","",""
"null","","audio-keyboard-response","465","2691551","0.0-15.0-0.3","a","20","Sounds/gun_sound.wav","null","2","","","","","","",""
"null","","html-keyboard-response","466","2692545","0.0-15.0-1.3","a","20","<p style=""font-size: 48px;"">+</p>","null","2","","","","","","",""
"577.9749999926426","","image-keyboard-response","467","2693124","0.0-15.0-2.3","a","20","Images/cat_3.png","76","2","1582145610167","non-match","cat","gun","sound","test","true"
"null","","audio-keyboard-response","468","2695135","0.0-15.0-3.3","a","20","Sounds/correct.wav","null","2","","","","","","",""
"null","","audio-keyboard-response","469","2695831","0.0-15.0-0.4","a","20","Sounds/whistle_label.wav","null","2","","","","","","",""
"null","","html-keyboard-response","470","2696828","0.0-15.0-1.4","a","20","<p style=""font-size: 48px;"">+</p>","null","2","","","","","","",""
"414.5499999867752","","image-keyboard-response","471","2697244","0.0-15.0-2.4","a","20","Images/whistle_1.png","65","2","1582145614450","match","whistle","whistle","label","test","true"
"null","","audio-keyboard-response","472","2699252","0.0-15.0-3.4","a","20","Sounds/correct.wav","null","2","","","","","","",""
"null","","audio-keyboard-response","473","2699831","0.0-15.0-0.5","a","20","Sounds/gun_label.wav","null","2","","","","","","",""
"null","","html-keyboard-response","474","2700828","0.0-15.0-1.5","a","20","<p style=""font-size: 48px;"">+</p>","null","2","","","","","","",""
"478.86999999172986","","image-keyboard-response","475","2701308","0.0-15.0-2.5","a","20","Images/frog_orig.png","76","2","1582145618451","non-match","frog","gun","label","test","true"
"null","","audio-keyboard-response","476","2703317","0.0-15.0-3.5","a","20","Sounds/correct.wav","null","2","","","","","","",""
"null","","audio-keyboard-response","477","2704331","0.0-15.0-0.6","a","20","Sounds/cow_sound.wav","null","2","","","","","","",""
"null","","html-keyboard-response","478","2705328","0.0-15.0-1.6","a","20","<p style=""font-size: 48px;"">+</p>","null","2","","","","","","",""
"738.4099999908358","","image-keyboard-response","479","2706068","0.0-15.0-2.6","a","20","Images/cat_cartoon.png","76","2","1582145622950","non-match","cat","cow","sound","test","true"
"null","","audio-keyboard-response","480","2708082","0.0-15.0-3.6","a","20","Sounds/correct.wav","null","2","","","","","","",""
"null","","audio-keyboard-response","481","2709371","0.0-15.0-0.7","a","20","Sounds/train_sound.wav","null","2","","","","","","",""
"null","","html-keyboard-response","482","2710362","0.0-15.0-1.7","a","20","<p style=""font-size: 48px;"">+</p>","null","2","","","","","","",""
"537.4400000148453","","image-keyboard-response","483","2710900","0.0-15.0-2.7","a","20","Images/train_orig.png","65","2","1582145627984","match","train","train","sound","test","true"
"null","","audio-keyboard-response","484","2712916","0.0-15.0-3.7","a","20","Sounds/correct.wav","null","2","","","","","","",""
"null","","audio-keyboard-response","485","2713471","0.0-15.0-0.8","a","20","Sounds/gun_label.wav","null","2","","","","","","",""
"null","","html-keyboard-response","486","2714462","0.0-15.0-1.8","a","20","<p style=""font-size: 48px;"">+</p>","null","2","","","","","","",""
"533.2649999763817","","image-keyboard-response","487","2714996","0.0-15.0-2.8","a","20","Images/cow_2.png","76","2","1582145632084","non-match","cow","gun","label","test","true"
"null","","audio-keyboard-response","488","2717002","0.0-15.0-3.8","a","20","Sounds/correct.wav","null","2","","","","","","",""
"null","","audio-keyboard-response","489","2718271","0.0-15.0-0.9","a","20","Sounds/train_label.wav","null","2","","","","","","",""
"null","","html-keyboard-response","490","2719262","0.0-15.0-1.9","a","20","<p style=""font-size: 48px;"">+</p>","null","2","","","","","","",""
"645.3200000105426","","image-keyboard-response","491","2719908","0.0-15.0-2.9","a","20","Images/dog_3.png","76","2","1582145636884","non-match","dog","train","label","test","true"
"null","","audio-keyboard-response","492","2721917","0.0-15.0-3.9","a","20","Sounds/correct.wav","null","2","","","","","","",""
"null","","audio-keyboard-response","493","2722611","0.0-15.0-0.10","a","20","Sounds/rooster_label.wav","null","2","","","","","","",""
"null","","html-keyboard-response","494","2723629","0.0-15.0-1.10","a","20","<p style=""font-size: 48px;"">+</p>","null","2","","","","","","",""
"382.3449999913573","","image-keyboard-response","495","2724012","0.0-15.0-2.10","a","20","Images/rooster_2.png","65","2","1582145641251","match","rooster","rooster","label","test","true"
"null","","audio-keyboard-response","496","2726017","0.0-15.0-3.10","a","20","Sounds/correct.wav","null","2","","","","","","",""
"null","","audio-keyboard-response","497","2726851","0.0-15.0-0.11","a","20","Sounds/cat_label.wav","null","2","","","","","","",""
"null","","html-keyboard-response","498","2727845","0.0-15.0-1.11","a","20","<p style=""font-size: 48px;"">+</p>","null","2","","","","","","",""
"405.8649999788031","","image-keyboard-response","499","2728252","0.0-15.0-2.11","a","20","Images/cat_2.png","65","2","1582145645467","match","cat","cat","label","test","true"
"null","","audio-keyboard-response","500","2730266","0.0-15.0-3.11","a","20","Sounds/correct.wav","null","2","","","","","","",""
"null","","audio-keyboard-response","501","2731351","0.0-15.0-0.12","a","20","Sounds/car_label.wav","null","2","","","","","","",""
"null","","html-keyboard-response","502","2732345","0.0-15.0-1.12","a","20","<p style=""font-size: 48px;"">+</p>","null","2","","","","","","",""
"601.8299999991432","","image-keyboard-response","503","2732948","0.0-15.0-2.12","a","20","Images/train_1.png","76","2","1582145649967","non-match","train","car","label","test","true"
"null","","audio-keyboard-response","504","2734952","0.0-15.0-3.12","a","20","Sounds/correct.wav","null","2","","","","","","",""
"null","","audio-keyboard-response","505","2735971","0.0-15.0-0.13","a","20","Sounds/cow_label.wav","null","2","","","","","","",""
"null","","html-keyboard-response","506","2736962","0.0-15.0-1.13","a","20","<p style=""font-size: 48px;"">+</p>","null","2","","","","","","",""
"928.9450000217184","","image-keyboard-response","507","2737892","0.0-15.0-2.13","a","20","Images/cow_orig.png","65","2","1582145654584","match","cow","cow","label","test","true"
"null","","audio-keyboard-response","508","2739901","0.0-15.0-3.13","a","20","Sounds/correct.wav","null","2","","","","","","",""
"null","","audio-keyboard-response","509","2740591","0.0-15.0-0.14","a","20","Sounds/whistle_label.wav","null","2","","","","","","",""
"null","","html-keyboard-response","510","2741596","0.0-15.0-1.14","a","20","<p style=""font-size: 48px;"">+</p>","null","2","","","","","","",""
"479.47499999962747","","image-keyboard-response","511","2742076","0.0-15.0-2.14","a","20","Images/whistle_orig.png","65","2","1582145659218","match","whistle","whistle","label","test","true"
"null","","audio-keyboard-response","512","2744084","0.0-15.0-3.14","a","20","Sounds/correct.wav","null","2","","","","","","",""
"null","","audio-keyboard-response","513","2745231","0.0-15.0-0.15","a","20","Sounds/motorcycle_label.wav","null","2","","","","","","",""
"null","","html-keyboard-response","514","2746229","0.0-15.0-1.15","a","20","<p style=""font-size: 48px;"">+</p>","null","2","","","","","","",""
"630.269999993965","","image-keyboard-response","515","2746860","0.0-15.0-2.15","a","20","Images/whistle_1.png","76","2","1582145663851","non-match","whistle","motorcycle","label","test","true"
"null","","audio-keyboard-response","516","2748869","0.0-15.0-3.15","a","20","Sounds/correct.wav","null","2","","","","","","",""
"null","","audio-keyboard-response","517","2749771","0.0-15.0-0.16","a","20","Sounds/frog_label.wav","null","2","","","","","","",""
"null","","html-keyboard-response","518","2750762","0.0-15.0-1.16","a","20","<p style=""font-size: 48px;"">+</p>","null","2","","","","","","",""
"384.9350000093691","","image-keyboard-response","519","2751148","0.0-15.0-2.16","a","20","Images/frog_2.png","65","2","1582145668384","match","frog","frog","label","test","true"
"null","","audio-keyboard-response","520","2753166","0.0-15.0-3.16","a","20","Sounds/correct.wav","null","2","","","","","","",""
"null","","audio-keyboard-response","521","2753831","0.0-15.0-0.17","a","20","Sounds/whistle_label.wav","null","2","","","","","","",""
"null","","html-keyboard-response","522","2754829","0.0-15.0-1.17","a","20","<p style=""font-size: 48px;"">+</p>","null","2","","","","","","",""
"462.3600000049919","","image-keyboard-response","523","2755292","0.0-15.0-2.17","a","20","Images/whistle_cartoon.png","65","2","1582145672451","match","whistle","whistle","label","test","true"
"null","","audio-keyboard-response","524","2757301","0.0-15.0-3.17","a","20","Sounds/correct.wav","null","2","","","","","","",""
"null","","audio-keyboard-response","525","2758211","0.0-15.0-0.18","a","20","Sounds/frog_sound.wav","null","2","","","","","","",""
"null","","html-keyboard-response","526","2759229","0.0-15.0-1.18","a","20","<p style=""font-size: 48px;"">+</p>","null","2","","","","","","",""
"510.1400000276044","","image-keyboard-response","527","2759740","0.0-15.0-2.18","a","20","Images/gun_1.png","76","2","1582145676851","non-match","gun","frog","sound","test","true"
"null","","audio-keyboard-response","528","2761749","0.0-15.0-3.18","a","20","Sounds/correct.wav","null","2","","","","","","",""
"null","","audio-keyboard-response","529","2762411","0.0-15.0-0.19","a","20","Sounds/whistle_label.wav","null","2","","","","","","",""
"null","","html-keyboard-response","530","2763429","0.0-15.0-1.19","a","20","<p style=""font-size: 48px;"">+</p>","null","2","","","","","","",""
"733.9150000191294","","image-keyboard-response","531","2764164","0.0-15.0-2.19","a","20","Images/gun_2.png","76","2","1582145681051","non-match","gun","whistle","label","test","true"
"null","","audio-keyboard-response","532","2766168","0.0-15.0-3.19","a","20","Sounds/correct.wav","null","2","","","","","","",""
"null","","audio-keyboard-response","533","2767011","0.0-15.0-0.20","a","20","Sounds/cat_sound.wav","null","2","","","","","","",""
"null","","html-keyboard-response","534","2768029","0.0-15.0-1.20","a","20","<p style=""font-size: 48px;"">+</p>","null","2","","","","","","",""
"534.1199999968521","","image-keyboard-response","535","2768564","0.0-15.0-2.20","a","20","Images/cat_3.png","65","2","1582145685651","match","cat","cat","sound","test","true"
"null","","audio-keyboard-response","536","2770567","0.0-15.0-3.20","a","20","Sounds/correct.wav","null","2","","","","","","",""
"null","","audio-keyboard-response","537","2771471","0.0-15.0-0.21","a","20","Sounds/frog_label.wav","null","2","","","","","","",""
"null","","html-keyboard-response","538","2772462","0.0-15.0-1.21","a","20","<p style=""font-size: 48px;"">+</p>","null","2","","","","","","",""
"980.7199999922886","","image-keyboard-response","539","2773444","0.0-15.0-2.21","a","20","Images/car_2.png","76","2","1582145690084","non-match","car","frog","label","test","true"
"null","","audio-keyboard-response","540","2775457","0.0-15.0-3.21","a","20","Sounds/correct.wav","null","2","","","","","","",""
"null","","audio-keyboard-response","541","2776171","0.0-15.0-0.22","a","20","Sounds/dog_sound.wav","null","2","","","","","","",""
"null","","html-keyboard-response","542","2777162","0.0-15.0-1.22","a","20","<p style=""font-size: 48px;"">+</p>","null","2","","","","","","",""
"456.4050000049174","","image-keyboard-response","543","2777620","0.0-15.0-2.22","a","20","Images/train_cartoon.png","76","2","1582145694784","non-match","train","dog","sound","test","true"
"null","","audio-keyboard-response","544","2779632","0.0-15.0-3.22","a","20","Sounds/correct.wav","null","2","","","","","","",""
"null","","audio-keyboard-response","545","2780711","0.0-15.0-0.23","a","20","Sounds/car_sound.wav","null","2","","","","","","",""
"null","","html-keyboard-response","546","2781729","0.0-15.0-1.23","a","20","<p style=""font-size: 48px;"">+</p>","null","2","","","","","","",""
"481.8950000042096","","image-keyboard-response","547","2782212","0.0-15.0-2.23","a","20","Images/dog_1.png","76","2","1582145699351","non-match","dog","car","sound","test","true"
"null","","audio-keyboard-response","548","2784219","0.0-15.0-3.23","a","20","Sounds/correct.wav","null","2","","","","","","",""
"null","","audio-keyboard-response","549","2785091","0.0-15.0-0.24","a","20","Sounds/frog_label.wav","null","2","","","","","","",""
"null","","html-keyboard-response","550","2786079","0.0-15.0-1.24","a","20","<p style=""font-size: 48px;"">+</p>","null","2","","","","","","",""
"499.62499999674037","","image-keyboard-response","551","2786580","0.0-15.0-2.24","a","20","Images/motorcycle_3.png","76","2","1582145703701","non-match","motorcycle","frog","label","test","true"
"null","","audio-keyboard-response","552","2788584","0.0-15.0-3.24","a","20","Sounds/correct.wav","null","2","","","","","","",""
"null","","audio-keyboard-response","553","2789631","0.0-15.0-0.25","a","20","Sounds/car_sound.wav","null","2","","","","","","",""
"null","","html-keyboard-response","554","2790629","0.0-15.0-1.25","a","20","<p style=""font-size: 48px;"">+</p>","null","2","","","","","","",""
"1150.02000000095","","image-keyboard-response","555","2791780","0.0-15.0-2.25","a","20","Images/car_1.png","65","2","1582145708251","match","car","car","sound","test","true"
"null","","audio-keyboard-response","556","2793784","0.0-15.0-3.25","a","20","Sounds/correct.wav","null","2","","","","","","",""
"null","","audio-keyboard-response","557","2794931","0.0-15.0-0.26","a","20","Sounds/motorcycle_label.wav","null","2","","","","","","",""
"null","","html-keyboard-response","558","2795929","0.0-15.0-1.26","a","20","<p style=""font-size: 48px;"">+</p>","null","2","","","","","","",""
"385.81500001624227","","image-keyboard-response","559","2796316","0.0-15.0-2.26","a","20","Images/motorcycle_3.png","65","2","1582145713551","match","motorcycle","motorcycle","label","test","true"
"null","","audio-keyboard-response","560","2798319","0.0-15.0-3.26","a","20","Sounds/correct.wav","null","2","","","","","","",""
"null","","audio-keyboard-response","561","2798891","0.0-15.0-0.27","a","20","Sounds/gun_label.wav","null","2","","","","","","",""
"null","","html-keyboard-response","562","2799896","0.0-15.0-1.27","a","20","<p style=""font-size: 48px;"">+</p>","null","2","","","","","","",""
"338.6849999949336","","image-keyboard-response","563","2800236","0.0-15.0-2.27","a","20","Images/gun_1.png","65","2","1582145717518","match","gun","gun","label","test","true"
"null","","audio-keyboard-response","564","2802250","0.0-15.0-3.27","a","20","Sounds/correct.wav","null","2","","","","","","",""
"null","","audio-keyboard-response","565","2803311","0.0-15.0-0.28","a","20","Sounds/car_sound.wav","null","2","","","","","","",""
"null","","html-keyboard-response","566","2804329","0.0-15.0-1.28","a","20","<p style=""font-size: 48px;"">+</p>","null","2","","","","","","",""
"377.42000000411645","","image-keyboard-response","567","2804708","0.0-15.0-2.28","a","20","Images/car_3.png","65","2","1582145721951","match","car","car","sound","test","true"
"null","","audio-keyboard-response","568","2806717","0.0-15.0-3.28","a","20","Sounds/correct.wav","null","2","","","","","","",""
"null","","audio-keyboard-response","569","2807551","0.0-15.0-0.29","a","20","Sounds/cat_label.wav","null","2","","","","","","",""
"null","","html-keyboard-response","570","2808546","0.0-15.0-1.29","a","20","<p style=""font-size: 48px;"">+</p>","null","2","","","","","","",""
"344.8249999783002","","image-keyboard-response","571","2808892","0.0-15.0-2.29","a","20","Images/cat_orig.png","65","2","1582145726168","match","cat","cat","label","test","true"
"null","","audio-keyboard-response","572","2810903","0.0-15.0-3.29","a","20","Sounds/correct.wav","null","2","","","","","","",""
"null","","audio-keyboard-response","573","2811611","0.0-15.0-0.30","a","20","Sounds/whistle_label.wav","null","2","","","","","","",""
"null","","html-keyboard-response","574","2812613","0.0-15.0-1.30","a","20","<p style=""font-size: 48px;"">+</p>","null","2","","","","","","",""
"1454.1650000028312","","image-keyboard-response","575","2814068","0.0-15.0-2.30","a","20","Images/cow_orig.png","76","2","1582145730235","non-match","cow","whistle","label","test","true"
"null","","audio-keyboard-response","576","2816079","0.0-15.0-3.30","a","20","Sounds/correct.wav","null","2","","","","","","",""
"null","","audio-keyboard-response","577","2816791","0.0-15.0-0.31","a","20","Sounds/dog_sound.wav","null","2","","","","","","",""
"null","","html-keyboard-response","578","2817780","0.0-15.0-1.31","a","20","<p style=""font-size: 48px;"">+</p>","null","2","","","","","","",""
"399.40500000398606","","image-keyboard-response","579","2818180","0.0-15.0-2.31","a","20","Images/dog_cartoon.png","65","2","1582145735402","match","dog","dog","sound","test","true"
"null","","audio-keyboard-response","580","2820185","0.0-15.0-3.31","a","20","Sounds/correct.wav","null","2","","","","","","",""
"null","","audio-keyboard-response","581","2820991","0.0-15.0-0.32","a","20","Sounds/cat_label.wav","null","2","","","","","","",""
"null","","html-keyboard-response","582","2821980","0.0-15.0-1.32","a","20","<p style=""font-size: 48px;"">+</p>","null","2","","","","","","",""
"463.7149999910034","","image-keyboard-response","583","2822444","0.0-15.0-2.32","a","20","Images/motorcycle_1.png","76","2","1582145739602","non-match","motorcycle","cat","label","test","true"
"null","","audio-keyboard-response","584","2824452","0.0-15.0-3.32","a","20","Sounds/correct.wav","null","2","","","","","","",""
"null","","audio-keyboard-response","585","2825751","0.0-15.0-0.33","a","20","Sounds/train_sound.wav","null","2","","","","","","",""
"null","","html-keyboard-response","586","2826746","0.0-15.0-1.33","a","20","<p style=""font-size: 48px;"">+</p>","null","2","","","","","","",""
"632.7049999963492","","image-keyboard-response","587","2827380","0.0-15.0-2.33","a","20","Images/rooster_1.png","76","2","1582145744368","non-match","rooster","train","sound","test","true"
"null","","audio-keyboard-response","588","2829385","0.0-15.0-3.33","a","20","Sounds/correct.wav","null","2","","","","","","",""
"null","","audio-keyboard-response","589","2830411","0.0-15.0-0.34","a","20","Sounds/cow_sound.wav","null","2","","","","","","",""
"null","","html-keyboard-response","590","2831413","0.0-15.0-1.34","a","20","<p style=""font-size: 48px;"">+</p>","null","2","","","","","","",""
"485.90999998897314","","image-keyboard-response","591","2831900","0.0-15.0-2.34","a","20","Images/train_3.png","76","2","1582145749035","non-match","train","cow","sound","test","true"
"null","","audio-keyboard-response","592","2833917","0.0-15.0-3.34","a","20","Sounds/correct.wav","null","2","","","","","","",""
"null","","audio-keyboard-response","593","2835031","0.0-15.0-0.35","a","20","Sounds/motorcycle_sound.wav","null","2","","","","","","",""
"null","","html-keyboard-response","594","2836030","0.0-15.0-1.35","a","20","<p style=""font-size: 48px;"">+</p>","null","2","","","","","","",""
"781.554999994114","","image-keyboard-response","595","2836812","0.0-15.0-2.35","a","20","Images/motorcycle_orig.png","65","2","1582145753652","match","motorcycle","motorcycle","sound","test","true"
"null","","audio-keyboard-response","596","2838821","0.0-15.0-3.35","a","20","Sounds/correct.wav","null","2","","","","","","",""
"null","","audio-keyboard-response","597","2839951","0.0-15.0-0.36","a","20","Sounds/motorcycle_label.wav","null","2","","","","","","",""
"null","","html-keyboard-response","598","2840946","0.0-15.0-1.36","a","20","<p style=""font-size: 48px;"">+</p>","null","2","","","","","","",""
"424.9650000128895","","image-keyboard-response","599","2841372","0.0-15.0-2.36","a","20","Images/motorcycle_2.png","65","2","1582145758569","match","motorcycle","motorcycle","label","test","true"
"null","","audio-keyboard-response","600","2843383","0.0-15.0-3.36","a","20","Sounds/correct.wav","null","2","","","","","","",""
"null","","audio-keyboard-response","601","2844091","0.0-15.0-0.37","a","20","Sounds/rooster_label.wav","null","2","","","","","","",""
"null","","html-keyboard-response","602","2845080","0.0-15.0-1.37","a","20","<p style=""font-size: 48px;"">+</p>","null","2","","","","","","",""
"707.2500000065193","","image-keyboard-response","603","2845788","0.0-15.0-2.37","a","20","Images/motorcycle_orig.png","76","2","1582145762702","non-match","motorcycle","rooster","label","test","true"
"null","","audio-keyboard-response","604","2847800","0.0-15.0-3.37","a","20","Sounds/correct.wav","null","2","","","","","","",""
"null","","audio-keyboard-response","605","2848811","0.0-15.0-0.38","a","20","Sounds/cow_label.wav","null","2","","","","","","",""
"null","","html-keyboard-response","606","2849813","0.0-15.0-1.38","a","20","<p style=""font-size: 48px;"">+</p>","null","2","","","","","","",""
"974.0250000031665","","image-keyboard-response","607","2850788","0.0-15.0-2.38","a","20","Images/rooster_3.png","76","2","1582145767435","non-match","rooster","cow","label","test","true"
"null","","audio-keyboard-response","608","2852798","0.0-15.0-3.38","a","20","Sounds/correct.wav","null","2","","","","","","",""
"null","","audio-keyboard-response","609","2853911","0.0-15.0-0.39","a","20","Sounds/motorcycle_sound.wav","null","2","","","","","","",""
"null","","html-keyboard-response","610","2854913","0.0-15.0-1.39","a","20","<p style=""font-size: 48px;"">+</p>","null","2","","","","","","",""
"633.849999983795","","image-keyboard-response","611","2855548","0.0-15.0-2.39","a","20","Images/motorcycle_1.png","65","2","1582145772535","match","motorcycle","motorcycle","sound","test","true"
"null","","audio-keyboard-response","612","2857552","0.0-15.0-3.39","a","20","Sounds/correct.wav","null","2","","","","","","",""
"null","","audio-keyboard-response","613","2858451","0.0-15.0-0.40","a","20","Sounds/frog_sound.wav","null","2","","","","","","",""
"null","","html-keyboard-response","614","2859447","0.0-15.0-1.40","a","20","<p style=""font-size: 48px;"">+</p>","null","2","","","","","","",""
"411.3150000050664","","image-keyboard-response","615","2859860","0.0-15.0-2.40","a","20","Images/frog_orig.png","65","2","1582145777069","match","frog","frog","sound","test","true"
"null","","audio-keyboard-response","616","2861870","0.0-15.0-3.40","a","20","Sounds/correct.wav","null","2","","","","","","",""
"null","","audio-keyboard-response","617","2862891","0.0-15.0-0.41","a","20","Sounds/cow_sound.wav","null","2","","","","","","",""
"null","","html-keyboard-response","618","2863897","0.0-15.0-1.41","a","20","<p style=""font-size: 48px;"">+</p>","null","2","","","","","","",""
"865.6799999885261","","image-keyboard-response","619","2864764","0.0-15.0-2.41","a","20","Images/cow_2.png","65","2","1582145781519","match","cow","cow","sound","test","true"
"null","","audio-keyboard-response","620","2866769","0.0-15.0-3.41","a","20","Sounds/correct.wav","null","2","","","","","","",""
"null","","audio-keyboard-response","621","2867751","0.0-15.0-0.42","a","20","Sounds/cow_sound.wav","null","2","","","","","","",""
"null","","html-keyboard-response","622","2868747","0.0-15.0-1.42","a","20","<p style=""font-size: 48px;"">+</p>","null","2","","","","","","",""
"536.2050000112504","","image-keyboard-response","623","2869284","0.0-15.0-2.42","a","20","Images/frog_1.png","76","2","1582145786369","non-match","frog","cow","sound","test","true"
"null","","audio-keyboard-response","624","2871301","0.0-15.0-3.42","a","20","Sounds/correct.wav","null","2","","","","","","",""
"null","","audio-keyboard-response","625","2872151","0.0-15.0-0.43","a","20","Sounds/cat_label.wav","null","2","","","","","","",""
"null","","html-keyboard-response","626","2873147","0.0-15.0-1.43","a","20","<p style=""font-size: 48px;"">+</p>","null","2","","","","","","",""
"512.0750000057742","","image-keyboard-response","627","2873660","0.0-15.0-2.43","a","20","Images/cat_cartoon.png","65","2","1582145790769","match","cat","cat","label","test","true"
"null","","audio-keyboard-response","628","2875668","0.0-15.0-3.43","a","20","Sounds/correct.wav","null","2","","","","","","",""
"null","","audio-keyboard-response","629","2876371","0.0-15.0-0.44","a","20","Sounds/whistle_sound.wav","null","2","","","","","","",""
"null","","html-keyboard-response","630","2877363","0.0-15.0-1.44","a","20","<p style=""font-size: 48px;"">+</p>","null","2","","","","","","",""
"639.5849999971688","","image-keyboard-response","631","2878004","0.0-15.0-2.44","a","20","Images/train_orig.png","76","2","1582145794985","non-match","train","whistle","sound","test","true"
"null","","audio-keyboard-response","632","2880008","0.0-15.0-3.44","a","20","Sounds/correct.wav","null","2","","","","","","",""
"null","","audio-keyboard-response","633","2880711","0.0-15.0-0.45","a","20","Sounds/dog_sound.wav","null","2","","","","","","",""
"null","","html-keyboard-response","634","2881713","0.0-15.0-1.45","a","20","<p style=""font-size: 48px;"">+</p>","null","2","","","","","","",""
"553.4250000198372","","image-keyboard-response","635","2882268","0.0-15.0-2.45","a","20","Images/car_3.png","76","2","1582145799335","non-match","car","dog","sound","test","true"
"null","","audio-keyboard-response","636","2884284","0.0-15.0-3.45","a","20","Sounds/correct.wav","null","2","","","","","","",""
"null","","audio-keyboard-response","637","2885191","0.0-15.0-0.46","a","20","Sounds/frog_label.wav","null","2","","","","","","",""
"null","","html-keyboard-response","638","2886197","0.0-15.0-1.46","a","20","<p style=""font-size: 48px;"">+</p>","null","2","","","","","","",""
"693.945000005886","","image-keyboard-response","639","2886892","0.0-15.0-2.46","a","20","Images/dog_orig.png","76","2","1582145803819","non-match","dog","frog","label","test","true"
"null","","audio-keyboard-response","640","2888902","0.0-15.0-3.46","a","20","Sounds/correct.wav","null","2","","","","","","",""
"null","","audio-keyboard-response","641","2889611","0.0-15.0-0.47","a","20","Sounds/rooster_label.wav","null","2","","","","","","",""
"null","","html-keyboard-response","642","2890613","0.0-15.0-1.47","a","20","<p style=""font-size: 48px;"">+</p>","null","2","","","","","","",""
"1461.7149999830872","","image-keyboard-response","643","2892076","0.0-15.0-2.47","a","20","Images/whistle_3.png","76","2","1582145808236","non-match","whistle","rooster","label","test","true"
"null","","audio-keyboard-response","644","2894087","0.0-15.0-3.47","a","20","Sounds/correct.wav","null","2","","","","","","",""
"null","","audio-keyboard-response","645","2894791","0.0-15.0-0.48","a","20","Sounds/whistle_label.wav","null","2","","","","","","",""
"null","","html-keyboard-response","646","2895780","0.0-15.0-1.48","a","20","<p style=""font-size: 48px;"">+</p>","null","2","","","","","","",""
"542.36000002129","","image-keyboard-response","647","2896324","0.0-15.0-2.48","a","20","Images/whistle_3.png","65","2","1582145813402","match","whistle","whistle","label","test","true"
"null","","audio-keyboard-response","648","2898335","0.0-15.0-3.48","a","20","Sounds/correct.wav","null","2","","","","","","",""
"null","","audio-keyboard-response","649","2899051","0.0-15.0-0.49","a","20","Sounds/dog_sound.wav","null","2","","","","","","",""
"null","","html-keyboard-response","650","2900047","0.0-15.0-1.49","a","20","<p style=""font-size: 48px;"">+</p>","null","2","","","","","","",""
"795.140000001993","","image-keyboard-response","651","2900844","0.0-15.0-2.49","a","20","Images/dog_1.png","65","2","1582145817669","match","dog","dog","sound","test","true"
"null","","audio-keyboard-response","652","2902854","0.0-15.0-3.49","a","20","Sounds/correct.wav","null","2","","","","","","",""
"null","","audio-keyboard-response","653","2903871","0.0-15.0-0.50","a","20","Sounds/cow_sound.wav","null","2","","","","","","",""
"null","","html-keyboard-response","654","2904864","0.0-15.0-1.50","a","20","<p style=""font-size: 48px;"">+</p>","null","2","","","","","","",""
"443.3349999887869","","image-keyboard-response","655","2905308","0.0-15.0-2.50","a","20","Images/cow_3.png","65","2","1582145822486","match","cow","cow","sound","test","true"
"null","","audio-keyboard-response","656","2907317","0.0-15.0-3.50","a","20","Sounds/correct.wav","null","2","","","","","","",""
"null","","audio-keyboard-response","657","2907971","0.0-15.0-0.51","a","20","Sounds/dog_label.wav","null","2","","","","","","",""
