[{"rt":15077.99,"responses":"{\"Q0\":\"16\"}","trial_type":"survey-text","trial_index":0,"time_elapsed":15109,"internal_node_id":"0.0-0.0","match_key":"a","participant_id":"16"},{"rt":87477.0249999999,"stimulus":"<p>Use KEYBOARD 2 (match LEFT)</p><p>Press MATCH to continue.</p>","key_press":65,"trial_type":"html-keyboard-response","trial_index":1,"time_elapsed":102598,"internal_node_id":"0.0-1.0","match_key":"a","participant_id":"16"},{"rt":3349449.615,"stimulus":"<p>Welcome to the experiment.</p>","key_press":40,"trial_type":"html-keyboard-response","trial_index":2,"time_elapsed":3453221,"internal_node_id":"0.0-2.0","match_key":"a","participant_id":"16"},{"rt":11321.64000000013,"stimulus":"<p>Thank you for agreeing to participate in this study.</p><p>If during any part of the procedure you must stop for any reason, please inform the researcher that you do not wish to continue.</p>","key_press":32,"trial_type":"html-keyboard-response","trial_index":3,"time_elapsed":3464548,"internal_node_id":"0.0-3.0","match_key":"a","participant_id":"16"},{"rt":18229.84499999974,"stimulus":"<p>In this experiment, you will hear various words or sounds and see pictures of various animals and objects.</p><p>Most of the images will be of common everyday objects, such as cars, cats, cows, firearms, frogs, chickens, whistles, trains, motorcycles, and dogs.</p><p>Some of the images will be real-life stills, while others will be cartoons.</p>","key_press":39,"trial_type":"html-keyboard-response","trial_index":4,"time_elapsed":3482779,"internal_node_id":"0.0-4.0","match_key":"a","participant_id":"16"},{"rt":13310.70500000054,"stimulus":"<p>Sometimes, the word/sound will match the picture, for example you'll hear a meowing sound and see a cat.</p><p>Other times, the picture will not match the sound or word.</p><p>Your task is to decide as quickly as possible if the word/sound matches the picture or not. </p>","key_press":32,"trial_type":"html-keyboard-response","trial_index":5,"time_elapsed":3496091,"internal_node_id":"0.0-5.0","match_key":"a","participant_id":"16"},{"rt":7630.589999999851,"stimulus":"<p>For example, if you hear the word \"cat\" or hear a meowing sound, and then see a picture of a cat, you should press the MATCH key.</p><p> If the sound and image do not match, press the NOT-MATCH key to indicate that there is not a match.</p>","key_press":65,"trial_type":"html-keyboard-response","trial_index":6,"time_elapsed":3503724,"internal_node_id":"0.0-6.0","match_key":"a","participant_id":"16"},{"rt":20839.259999999776,"stimulus":"<p>If you make a mistake, you will hear a buzzing sound instead of a more pleasant sound.</p><p> Try to respond as quickly as possible, while making as few errors as possible. If you are making mistakes, you are probably rushing.</p>","key_press":76,"trial_type":"html-keyboard-response","trial_index":7,"time_elapsed":3524564,"internal_node_id":"0.0-7.0","match_key":"a","participant_id":"16"},{"rt":11230.915000000037,"stimulus":"<p>Please try to not move or blink your eyes during the presentation of the images. You can move and blink between images.</p><p>During the experiment there will be some breaks during which you can rest your eyes.</p>","key_press":32,"trial_type":"html-keyboard-response","trial_index":8,"time_elapsed":3535797,"internal_node_id":"0.0-8.0","match_key":"a","participant_id":"16"},{"rt":9430.294999999925,"stimulus":"<p>We will begin with 10 practice trials. Please let the experimenter know if you have any questions.</p>","key_press":32,"trial_type":"html-keyboard-response","trial_index":9,"time_elapsed":3545228,"internal_node_id":"0.0-9.0","match_key":"a","participant_id":"16"},{"rt":null,"stimulus":"Sounds/motorcycle_label.wav","key_press":null,"block":0,"trial_type":"audio-keyboard-response","trial_index":10,"time_elapsed":3546435,"internal_node_id":"0.0-10.0-0.0","match_key":"a","participant_id":"16"},{"rt":null,"stimulus":"<p style=\"font-size: 48px;\">+</p>","key_press":null,"block":0,"trial_type":"html-keyboard-response","trial_index":11,"time_elapsed":3547428,"internal_node_id":"0.0-10.0-1.0","match_key":"a","participant_id":"16"},{"rt":846.5649999999441,"stimulus":"Images/motorcycle_orig.png","key_press":65,"stim_onset":1581883106385,"block":0,"match_type":"match","image_category":"motorcycle","sound_category":"motorcycle","audio_type":"label","phase":"practice","trial_type":"image-keyboard-response","trial_index":12,"time_elapsed":3548276,"internal_node_id":"0.0-10.0-2.0","match_key":"a","participant_id":"16","correct":true},{"rt":null,"stimulus":"Sounds/correct.wav","key_press":null,"block":0,"trial_type":"audio-keyboard-response","trial_index":13,"time_elapsed":3550281,"internal_node_id":"0.0-10.0-3.0","match_key":"a","participant_id":"16"},{"rt":null,"stimulus":"Sounds/motorcycle_label.wav","key_press":null,"block":0,"trial_type":"audio-keyboard-response","trial_index":14,"time_elapsed":3551395,"internal_node_id":"0.0-10.0-0.1","match_key":"a","participant_id":"16"},{"rt":null,"stimulus":"<p style=\"font-size: 48px;\">+</p>","key_press":null,"block":0,"trial_type":"html-keyboard-response","trial_index":15,"time_elapsed":3552394,"internal_node_id":"0.0-10.0-1.1","match_key":"a","participant_id":"16"},{"rt":640.7000000011176,"stimulus":"Images/dog_2.png","key_press":76,"stim_onset":1581883111351,"block":0,"match_type":"non-match","image_category":"dog","sound_category":"motorcycle","audio_type":"label","phase":"practice","trial_type":"image-keyboard-response","trial_index":16,"time_elapsed":3553036,"internal_node_id":"0.0-10.0-2.1","match_key":"a","participant_id":"16","correct":true},{"rt":null,"stimulus":"Sounds/correct.wav","key_press":null,"block":0,"trial_type":"audio-keyboard-response","trial_index":17,"time_elapsed":3555044,"internal_node_id":"0.0-10.0-3.1","match_key":"a","participant_id":"16"},{"rt":null,"stimulus":"Sounds/car_label.wav","key_press":null,"block":0,"trial_type":"audio-keyboard-response","trial_index":18,"time_elapsed":3556115,"internal_node_id":"0.0-10.0-0.2","match_key":"a","participant_id":"16"},{"rt":null,"stimulus":"<p style=\"font-size: 48px;\">+</p>","key_press":null,"block":0,"trial_type":"html-keyboard-response","trial_index":19,"time_elapsed":3557111,"internal_node_id":"0.0-10.0-1.2","match_key":"a","participant_id":"16"},{"rt":619.8650000002235,"stimulus":"Images/car_3.png","key_press":65,"stim_onset":1581883116068,"block":0,"match_type":"match","image_category":"car","sound_category":"car","audio_type":"label","phase":"practice","trial_type":"image-keyboard-response","trial_index":20,"time_elapsed":3557732,"internal_node_id":"0.0-10.0-2.2","match_key":"a","participant_id":"16","correct":true},{"rt":null,"stimulus":"Sounds/correct.wav","key_press":null,"block":0,"trial_type":"audio-keyboard-response","trial_index":21,"time_elapsed":3559747,"internal_node_id":"0.0-10.0-3.2","match_key":"a","participant_id":"16"},{"rt":null,"stimulus":"Sounds/gun_label.wav","key_press":null,"block":0,"trial_type":"audio-keyboard-response","trial_index":22,"time_elapsed":3560335,"internal_node_id":"0.0-10.0-0.3","match_key":"a","participant_id":"16"},{"rt":null,"stimulus":"<p style=\"font-size: 48px;\">+</p>","key_press":null,"block":0,"trial_type":"html-keyboard-response","trial_index":23,"time_elapsed":3561328,"internal_node_id":"0.0-10.0-1.3","match_key":"a","participant_id":"16"},{"rt":803.25,"stimulus":"Images/whistle_1.png","key_press":76,"stim_onset":1581883120285,"block":0,"match_type":"non-match","image_category":"whistle","sound_category":"gun","audio_type":"label","phase":"practice","trial_type":"image-keyboard-response","trial_index":24,"time_elapsed":3562132,"internal_node_id":"0.0-10.0-2.3","match_key":"a","participant_id":"16","correct":true},{"rt":null,"stimulus":"Sounds/correct.wav","key_press":null,"block":0,"trial_type":"audio-keyboard-response","trial_index":25,"time_elapsed":3564151,"internal_node_id":"0.0-10.0-3.3","match_key":"a","participant_id":"16"},{"rt":null,"stimulus":"Sounds/gun_sound.wav","key_press":null,"block":0,"trial_type":"audio-keyboard-response","trial_index":26,"time_elapsed":3564736,"internal_node_id":"0.0-10.0-0.4","match_key":"a","participant_id":"16"},{"rt":null,"stimulus":"<p style=\"font-size: 48px;\">+</p>","key_press":null,"block":0,"trial_type":"html-keyboard-response","trial_index":27,"time_elapsed":3565729,"internal_node_id":"0.0-10.0-1.4","match_key":"a","participant_id":"16"},{"rt":634.9350000000559,"stimulus":"Images/gun_cartoon.png","key_press":65,"stim_onset":1581883124686,"block":0,"match_type":"match","image_category":"gun","sound_category":"gun","audio_type":"sound","phase":"practice","trial_type":"image-keyboard-response","trial_index":28,"time_elapsed":3566365,"internal_node_id":"0.0-10.0-2.4","match_key":"a","participant_id":"16","correct":true},{"rt":null,"stimulus":"Sounds/correct.wav","key_press":null,"block":0,"trial_type":"audio-keyboard-response","trial_index":29,"time_elapsed":3568368,"internal_node_id":"0.0-10.0-3.4","match_key":"a","participant_id":"16"},{"rt":null,"stimulus":"Sounds/cow_sound.wav","key_press":null,"block":0,"trial_type":"audio-keyboard-response","trial_index":30,"time_elapsed":3569396,"internal_node_id":"0.0-10.0-0.5","match_key":"a","participant_id":"16"},{"rt":null,"stimulus":"<p style=\"font-size: 48px;\">+</p>","key_press":null,"block":0,"trial_type":"html-keyboard-response","trial_index":31,"time_elapsed":3570396,"internal_node_id":"0.0-10.0-1.5","match_key":"a","participant_id":"16"},{"rt":848.4550000005402,"stimulus":"Images/cat_2.png","key_press":76,"stim_onset":1581883129353,"block":0,"match_type":"non-match","image_category":"cat","sound_category":"cow","audio_type":"sound","phase":"practice","trial_type":"image-keyboard-response","trial_index":32,"time_elapsed":3571245,"internal_node_id":"0.0-10.0-2.5","match_key":"a","participant_id":"16","correct":true},{"rt":null,"stimulus":"Sounds/correct.wav","key_press":null,"block":0,"trial_type":"audio-keyboard-response","trial_index":33,"time_elapsed":3573263,"internal_node_id":"0.0-10.0-3.5","match_key":"a","participant_id":"16"},{"rt":null,"stimulus":"Sounds/rooster_sound.wav","key_press":null,"block":0,"trial_type":"audio-keyboard-response","trial_index":34,"time_elapsed":3573956,"internal_node_id":"0.0-10.0-0.6","match_key":"a","participant_id":"16"},{"rt":null,"stimulus":"<p style=\"font-size: 48px;\">+</p>","key_press":null,"block":0,"trial_type":"html-keyboard-response","trial_index":35,"time_elapsed":3574946,"internal_node_id":"0.0-10.0-1.6","match_key":"a","participant_id":"16"},{"rt":962.47999999905,"stimulus":"Images/rooster_2.png","key_press":65,"stim_onset":1581883133903,"block":0,"match_type":"match","image_category":"rooster","sound_category":"rooster","audio_type":"sound","phase":"practice","trial_type":"image-keyboard-response","trial_index":36,"time_elapsed":3575910,"internal_node_id":"0.0-10.0-2.6","match_key":"a","participant_id":"16","correct":true},{"rt":null,"stimulus":"Sounds/correct.wav","key_press":null,"block":0,"trial_type":"audio-keyboard-response","trial_index":37,"time_elapsed":3577922,"internal_node_id":"0.0-10.0-3.6","match_key":"a","participant_id":"16"},{"rt":null,"stimulus":"Sounds/whistle_sound.wav","key_press":null,"block":0,"trial_type":"audio-keyboard-response","trial_index":38,"time_elapsed":3578616,"internal_node_id":"0.0-10.0-0.7","match_key":"a","participant_id":"16"},{"rt":null,"stimulus":"<p style=\"font-size: 48px;\">+</p>","key_press":null,"block":0,"trial_type":"html-keyboard-response","trial_index":39,"time_elapsed":3579613,"internal_node_id":"0.0-10.0-1.7","match_key":"a","participant_id":"16"},{"rt":663.4949999996461,"stimulus":"Images/car_cartoon.png","key_press":76,"stim_onset":1581883138570,"block":0,"match_type":"non-match","image_category":"car","sound_category":"whistle","audio_type":"sound","phase":"practice","trial_type":"image-keyboard-response","trial_index":40,"time_elapsed":3580277,"internal_node_id":"0.0-10.0-2.7","match_key":"a","participant_id":"16","correct":true},{"rt":null,"stimulus":"Sounds/correct.wav","key_press":null,"block":0,"trial_type":"audio-keyboard-response","trial_index":41,"time_elapsed":3582294,"internal_node_id":"0.0-10.0-3.7","match_key":"a","participant_id":"16"},{"rt":null,"stimulus":"Sounds/dog_label.wav","key_press":null,"block":0,"trial_type":"audio-keyboard-response","trial_index":42,"time_elapsed":3582956,"internal_node_id":"0.0-10.0-0.8","match_key":"a","participant_id":"16"},{"rt":null,"stimulus":"<p style=\"font-size: 48px;\">+</p>","key_press":null,"block":0,"trial_type":"html-keyboard-response","trial_index":43,"time_elapsed":3583946,"internal_node_id":"0.0-10.0-1.8","match_key":"a","participant_id":"16"},{"rt":578.3300000005402,"stimulus":"Images/dog_1.png","key_press":65,"stim_onset":1581883142903,"block":0,"match_type":"match","image_category":"dog","sound_category":"dog","audio_type":"label","phase":"practice","trial_type":"image-keyboard-response","trial_index":44,"time_elapsed":3584525,"internal_node_id":"0.0-10.0-2.8","match_key":"a","participant_id":"16","correct":true},{"rt":null,"stimulus":"Sounds/correct.wav","key_press":null,"block":0,"trial_type":"audio-keyboard-response","trial_index":45,"time_elapsed":3586535,"internal_node_id":"0.0-10.0-3.8","match_key":"a","participant_id":"16"},{"rt":null,"stimulus":"Sounds/train_sound.wav","key_press":null,"block":0,"trial_type":"audio-keyboard-response","trial_index":46,"time_elapsed":3587836,"internal_node_id":"0.0-10.0-0.9","match_key":"a","participant_id":"16"},{"rt":null,"stimulus":"<p style=\"font-size: 48px;\">+</p>","key_press":null,"block":0,"trial_type":"html-keyboard-response","trial_index":47,"time_elapsed":3588830,"internal_node_id":"0.0-10.0-1.9","match_key":"a","participant_id":"16"},{"rt":1246.9100000006147,"stimulus":"Images/train_1.png","key_press":65,"stim_onset":1581883147787,"block":0,"match_type":"match","image_category":"train","sound_category":"train","audio_type":"sound","phase":"practice","trial_type":"image-keyboard-response","trial_index":48,"time_elapsed":3590078,"internal_node_id":"0.0-10.0-2.9","match_key":"a","participant_id":"16","correct":true},{"rt":null,"stimulus":"Sounds/correct.wav","key_press":null,"block":0,"trial_type":"audio-keyboard-response","trial_index":49,"time_elapsed":3592089,"internal_node_id":"0.0-10.0-3.9","match_key":"a","participant_id":"16"},{"rt":20284.620000000577,"stimulus":"<p>The rest of the experiment is divided into five blocks with 100 trials in each block. It will take about 45 minutes to complete.</p><p>The experimenter will be in the outer room and you can communicate with them through the monitor if you have any questions or wish to stop the experiment.</p>","key_press":32,"trial_type":"html-keyboard-response","trial_index":50,"time_elapsed":3612374,"internal_node_id":"0.0-11.0","match_key":"a","participant_id":"16"},{"rt":26726.985000000335,"stimulus":"<p>Remember, please try not to move or blink your eyes during the presentation of the images. </p><p>At the end of the experiment, we will show you your scores on the task so you can see how you did.</p><p>The experiment will start on the next screen.</p>","key_press":32,"trial_type":"html-keyboard-response","trial_index":51,"time_elapsed":3639097,"internal_node_id":"0.0-12.0","match_key":"a","participant_id":"16"},{"rt":null,"stimulus":"Sounds/dog_label.wav","key_press":null,"block":1,"trial_type":"audio-keyboard-response","trial_index":52,"time_elapsed":3641788,"internal_node_id":"0.0-13.0-0.0","match_key":"a","participant_id":"16"},{"rt":null,"stimulus":"<p style=\"font-size: 48px;\">+</p>","key_press":null,"block":1,"trial_type":"html-keyboard-response","trial_index":53,"time_elapsed":3642791,"internal_node_id":"0.0-13.0-1.0","match_key":"a","participant_id":"16"},{"rt":399.34999999962747,"stimulus":"Images/dog_2.png","key_press":65,"stim_onset":1581883201749,"block":1,"match_type":"match","image_category":"dog","sound_category":"dog","audio_type":"label","phase":"test","trial_type":"image-keyboard-response","trial_index":54,"time_elapsed":3643193,"internal_node_id":"0.0-13.0-2.0","match_key":"a","participant_id":"16","correct":true},{"rt":null,"stimulus":"Sounds/correct.wav","key_press":null,"block":1,"trial_type":"audio-keyboard-response","trial_index":55,"time_elapsed":3645208,"internal_node_id":"0.0-13.0-3.0","match_key":"a","participant_id":"16"},{"rt":null,"stimulus":"Sounds/rooster_label.wav","key_press":null,"block":1,"trial_type":"audio-keyboard-response","trial_index":56,"time_elapsed":3645908,"internal_node_id":"0.0-13.0-0.1","match_key":"a","participant_id":"16"},{"rt":null,"stimulus":"<p style=\"font-size: 48px;\">+</p>","key_press":null,"block":1,"trial_type":"html-keyboard-response","trial_index":57,"time_elapsed":3646908,"internal_node_id":"0.0-13.0-1.1","match_key":"a","participant_id":"16"},{"rt":610.9950000001118,"stimulus":"Images/motorcycle_orig.png","key_press":76,"stim_onset":1581883205865,"block":1,"match_type":"non-match","image_category":"motorcycle","sound_category":"rooster","audio_type":"label","phase":"test","trial_type":"image-keyboard-response","trial_index":58,"time_elapsed":3647520,"internal_node_id":"0.0-13.0-2.1","match_key":"a","participant_id":"16","correct":true},{"rt":null,"stimulus":"Sounds/correct.wav","key_press":null,"block":1,"trial_type":"audio-keyboard-response","trial_index":59,"time_elapsed":3649528,"internal_node_id":"0.0-13.0-3.1","match_key":"a","participant_id":"16"},{"rt":null,"stimulus":"Sounds/frog_label.wav","key_press":null,"block":1,"trial_type":"audio-keyboard-response","trial_index":60,"time_elapsed":3650428,"internal_node_id":"0.0-13.0-0.2","match_key":"a","participant_id":"16"},{"rt":null,"stimulus":"<p style=\"font-size: 48px;\">+</p>","key_press":null,"block":1,"trial_type":"html-keyboard-response","trial_index":61,"time_elapsed":3651425,"internal_node_id":"0.0-13.0-1.2","match_key":"a","participant_id":"16"},{"rt":806.3149999999441,"stimulus":"Images/rooster_1.png","key_press":76,"stim_onset":1581883210382,"block":1,"match_type":"non-match","image_category":"rooster","sound_category":"frog","audio_type":"label","phase":"test","trial_type":"image-keyboard-response","trial_index":62,"time_elapsed":3652232,"internal_node_id":"0.0-13.0-2.2","match_key":"a","participant_id":"16","correct":true},{"rt":null,"stimulus":"Sounds/correct.wav","key_press":null,"block":1,"trial_type":"audio-keyboard-response","trial_index":63,"time_elapsed":3654247,"internal_node_id":"0.0-13.0-3.2","match_key":"a","participant_id":"16"},{"rt":null,"stimulus":"Sounds/frog_sound.wav","key_press":null,"block":1,"trial_type":"audio-keyboard-response","trial_index":64,"time_elapsed":3655148,"internal_node_id":"0.0-13.0-0.3","match_key":"a","participant_id":"16"},{"rt":null,"stimulus":"<p style=\"font-size: 48px;\">+</p>","key_press":null,"block":1,"trial_type":"html-keyboard-response","trial_index":65,"time_elapsed":3656142,"internal_node_id":"0.0-13.0-1.3","match_key":"a","participant_id":"16"},{"rt":633.4599999999627,"stimulus":"Images/motorcycle_cartoon.png","key_press":76,"stim_onset":1581883215099,"block":1,"match_type":"non-match","image_category":"motorcycle","sound_category":"frog","audio_type":"sound","phase":"test","trial_type":"image-keyboard-response","trial_index":66,"time_elapsed":3656776,"internal_node_id":"0.0-13.0-2.3","match_key":"a","participant_id":"16","correct":true},{"rt":null,"stimulus":"Sounds/correct.wav","key_press":null,"block":1,"trial_type":"audio-keyboard-response","trial_index":67,"time_elapsed":3658793,"internal_node_id":"0.0-13.0-3.3","match_key":"a","participant_id":"16"},{"rt":null,"stimulus":"Sounds/train_label.wav","key_press":null,"block":1,"trial_type":"audio-keyboard-response","trial_index":68,"time_elapsed":3660068,"internal_node_id":"0.0-13.0-0.4","match_key":"a","participant_id":"16"},{"rt":null,"stimulus":"<p style=\"font-size: 48px;\">+</p>","key_press":null,"block":1,"trial_type":"html-keyboard-response","trial_index":69,"time_elapsed":3661075,"internal_node_id":"0.0-13.0-1.4","match_key":"a","participant_id":"16"},{"rt":596.2250000000931,"stimulus":"Images/whistle_3.png","key_press":76,"stim_onset":1581883220032,"block":1,"match_type":"non-match","image_category":"whistle","sound_category":"train","audio_type":"label","phase":"test","trial_type":"image-keyboard-response","trial_index":70,"time_elapsed":3661672,"internal_node_id":"0.0-13.0-2.4","match_key":"a","participant_id":"16","correct":true},{"rt":null,"stimulus":"Sounds/correct.wav","key_press":null,"block":1,"trial_type":"audio-keyboard-response","trial_index":71,"time_elapsed":3663681,"internal_node_id":"0.0-13.0-3.4","match_key":"a","participant_id":"16"},{"rt":null,"stimulus":"Sounds/rooster_sound.wav","key_press":null,"block":1,"trial_type":"audio-keyboard-response","trial_index":72,"time_elapsed":3664368,"internal_node_id":"0.0-13.0-0.5","match_key":"a","participant_id":"16"},{"rt":null,"stimulus":"<p style=\"font-size: 48px;\">+</p>","key_press":null,"block":1,"trial_type":"html-keyboard-response","trial_index":73,"time_elapsed":3665358,"internal_node_id":"0.0-13.0-1.5","match_key":"a","participant_id":"16"},{"rt":390.7450000005774,"stimulus":"Images/rooster_orig.png","key_press":65,"stim_onset":1581883224315,"block":1,"match_type":"match","image_category":"rooster","sound_category":"rooster","audio_type":"sound","phase":"test","trial_type":"image-keyboard-response","trial_index":74,"time_elapsed":3665752,"internal_node_id":"0.0-13.0-2.5","match_key":"a","participant_id":"16","correct":true},{"rt":null,"stimulus":"Sounds/correct.wav","key_press":null,"block":1,"trial_type":"audio-keyboard-response","trial_index":75,"time_elapsed":3667763,"internal_node_id":"0.0-13.0-3.5","match_key":"a","participant_id":"16"},{"rt":null,"stimulus":"Sounds/motorcycle_label.wav","key_press":null,"block":1,"trial_type":"audio-keyboard-response","trial_index":76,"time_elapsed":3668908,"internal_node_id":"0.0-13.0-0.6","match_key":"a","participant_id":"16"},{"rt":null,"stimulus":"<p style=\"font-size: 48px;\">+</p>","key_press":null,"block":1,"trial_type":"html-keyboard-response","trial_index":77,"time_elapsed":3669908,"internal_node_id":"0.0-13.0-1.6","match_key":"a","participant_id":"16"},{"rt":482.74499999918044,"stimulus":"Images/gun_3.png","key_press":76,"stim_onset":1581883228866,"block":1,"match_type":"non-match","image_category":"gun","sound_category":"motorcycle","audio_type":"label","phase":"test","trial_type":"image-keyboard-response","trial_index":78,"time_elapsed":3670392,"internal_node_id":"0.0-13.0-2.6","match_key":"a","participant_id":"16","correct":true},{"rt":null,"stimulus":"Sounds/correct.wav","key_press":null,"block":1,"trial_type":"audio-keyboard-response","trial_index":79,"time_elapsed":3672403,"internal_node_id":"0.0-13.0-3.6","match_key":"a","participant_id":"16"},{"rt":null,"stimulus":"Sounds/car_sound.wav","key_press":null,"block":1,"trial_type":"audio-keyboard-response","trial_index":80,"time_elapsed":3673488,"internal_node_id":"0.0-13.0-0.7","match_key":"a","participant_id":"16"},{"rt":null,"stimulus":"<p style=\"font-size: 48px;\">+</p>","key_press":null,"block":1,"trial_type":"html-keyboard-response","trial_index":81,"time_elapsed":3674492,"internal_node_id":"0.0-13.0-1.7","match_key":"a","participant_id":"16"},{"rt":835.390000000596,"stimulus":"Images/car_orig.png","key_press":65,"stim_onset":1581883233449,"block":1,"match_type":"match","image_category":"car","sound_category":"car","audio_type":"sound","phase":"test","trial_type":"image-keyboard-response","trial_index":82,"time_elapsed":3675328,"internal_node_id":"0.0-13.0-2.7","match_key":"a","participant_id":"16","correct":true},{"rt":null,"stimulus":"Sounds/correct.wav","key_press":null,"block":1,"trial_type":"audio-keyboard-response","trial_index":83,"time_elapsed":3677331,"internal_node_id":"0.0-13.0-3.7","match_key":"a","participant_id":"16"},{"rt":null,"stimulus":"Sounds/train_label.wav","key_press":null,"block":1,"trial_type":"audio-keyboard-response","trial_index":84,"time_elapsed":3678608,"internal_node_id":"0.0-13.0-0.8","match_key":"a","participant_id":"16"},{"rt":null,"stimulus":"<p style=\"font-size: 48px;\">+</p>","key_press":null,"block":1,"trial_type":"html-keyboard-response","trial_index":85,"time_elapsed":3679625,"internal_node_id":"0.0-13.0-1.8","match_key":"a","participant_id":"16"},{"rt":462.12000000011176,"stimulus":"Images/train_2.png","key_press":65,"stim_onset":1581883238582,"block":1,"match_type":"match","image_category":"train","sound_category":"train","audio_type":"label","phase":"test","trial_type":"image-keyboard-response","trial_index":86,"time_elapsed":3680088,"internal_node_id":"0.0-13.0-2.8","match_key":"a","participant_id":"16","correct":true},{"rt":null,"stimulus":"Sounds/correct.wav","key_press":null,"block":1,"trial_type":"audio-keyboard-response","trial_index":87,"time_elapsed":3682103,"internal_node_id":"0.0-13.0-3.8","match_key":"a","participant_id":"16"},{"rt":null,"stimulus":"Sounds/frog_sound.wav","key_press":null,"block":1,"trial_type":"audio-keyboard-response","trial_index":88,"time_elapsed":3683008,"internal_node_id":"0.0-13.0-0.9","match_key":"a","participant_id":"16"},{"rt":null,"stimulus":"<p style=\"font-size: 48px;\">+</p>","key_press":null,"block":1,"trial_type":"html-keyboard-response","trial_index":89,"time_elapsed":3684025,"internal_node_id":"0.0-13.0-1.9","match_key":"a","participant_id":"16"},{"rt":853.9750000000931,"stimulus":"Images/frog_cartoon.png","key_press":65,"stim_onset":1581883242982,"block":1,"match_type":"match","image_category":"frog","sound_category":"frog","audio_type":"sound","phase":"test","trial_type":"image-keyboard-response","trial_index":90,"time_elapsed":3684880,"internal_node_id":"0.0-13.0-2.9","match_key":"a","participant_id":"16","correct":true},{"rt":null,"stimulus":"Sounds/correct.wav","key_press":null,"block":1,"trial_type":"audio-keyboard-response","trial_index":91,"time_elapsed":3686891,"internal_node_id":"0.0-13.0-3.9","match_key":"a","participant_id":"16"},{"rt":null,"stimulus":"Sounds/car_label.wav","key_press":null,"block":1,"trial_type":"audio-keyboard-response","trial_index":92,"time_elapsed":3687968,"internal_node_id":"0.0-13.0-0.10","match_key":"a","participant_id":"16"},{"rt":null,"stimulus":"<p style=\"font-size: 48px;\">+</p>","key_press":null,"block":1,"trial_type":"html-keyboard-response","trial_index":93,"time_elapsed":3688959,"internal_node_id":"0.0-13.0-1.10","match_key":"a","participant_id":"16"},{"rt":752.4949999996461,"stimulus":"Images/whistle_2.png","key_press":76,"stim_onset":1581883247916,"block":1,"match_type":"non-match","image_category":"whistle","sound_category":"car","audio_type":"label","phase":"test","trial_type":"image-keyboard-response","trial_index":94,"time_elapsed":3689712,"internal_node_id":"0.0-13.0-2.10","match_key":"a","participant_id":"16","correct":true},{"rt":null,"stimulus":"Sounds/correct.wav","key_press":null,"block":1,"trial_type":"audio-keyboard-response","trial_index":95,"time_elapsed":3691717,"internal_node_id":"0.0-13.0-3.10","match_key":"a","participant_id":"16"},{"rt":null,"stimulus":"Sounds/rooster_label.wav","key_press":null,"block":1,"trial_type":"audio-keyboard-response","trial_index":96,"time_elapsed":3692408,"internal_node_id":"0.0-13.0-0.11","match_key":"a","participant_id":"16"},{"rt":null,"stimulus":"<p style=\"font-size: 48px;\">+</p>","key_press":null,"block":1,"trial_type":"html-keyboard-response","trial_index":97,"time_elapsed":3693425,"internal_node_id":"0.0-13.0-1.11","match_key":"a","participant_id":"16"},{"rt":638.0849999994971,"stimulus":"Images/rooster_3.png","key_press":65,"stim_onset":1581883252382,"block":1,"match_type":"match","image_category":"rooster","sound_category":"rooster","audio_type":"label","phase":"test","trial_type":"image-keyboard-response","trial_index":98,"time_elapsed":3694064,"internal_node_id":"0.0-13.0-2.11","match_key":"a","participant_id":"16","correct":true},{"rt":null,"stimulus":"Sounds/correct.wav","key_press":null,"block":1,"trial_type":"audio-keyboard-response","trial_index":99,"time_elapsed":3696076,"internal_node_id":"0.0-13.0-3.11","match_key":"a","participant_id":"16"},{"rt":null,"stimulus":"Sounds/train_sound.wav","key_press":null,"block":1,"trial_type":"audio-keyboard-response","trial_index":100,"time_elapsed":3697368,"internal_node_id":"0.0-13.0-0.12","match_key":"a","participant_id":"16"},{"rt":null,"stimulus":"<p style=\"font-size: 48px;\">+</p>","key_press":null,"block":1,"trial_type":"html-keyboard-response","trial_index":101,"time_elapsed":3698359,"internal_node_id":"0.0-13.0-1.12","match_key":"a","participant_id":"16"},{"rt":656.5250000003725,"stimulus":"Images/train_cartoon.png","key_press":65,"stim_onset":1581883257316,"block":1,"match_type":"match","image_category":"train","sound_category":"train","audio_type":"sound","phase":"test","trial_type":"image-keyboard-response","trial_index":102,"time_elapsed":3699016,"internal_node_id":"0.0-13.0-2.12","match_key":"a","participant_id":"16","correct":true},{"rt":null,"stimulus":"Sounds/correct.wav","key_press":null,"block":1,"trial_type":"audio-keyboard-response","trial_index":103,"time_elapsed":3701033,"internal_node_id":"0.0-13.0-3.12","match_key":"a","participant_id":"16"},{"rt":null,"stimulus":"Sounds/cow_label.wav","key_press":null,"block":1,"trial_type":"audio-keyboard-response","trial_index":104,"time_elapsed":3702055,"internal_node_id":"0.0-13.0-0.13","match_key":"a","participant_id":"16"},{"rt":null,"stimulus":"<p style=\"font-size: 48px;\">+</p>","key_press":null,"block":1,"trial_type":"html-keyboard-response","trial_index":105,"time_elapsed":3703049,"internal_node_id":"0.0-13.0-1.13","match_key":"a","participant_id":"16"},{"rt":597.1850000005215,"stimulus":"Images/rooster_3.png","key_press":65,"stim_onset":1581883262006,"block":1,"match_type":"non-match","image_category":"rooster","sound_category":"cow","audio_type":"label","phase":"test","trial_type":"image-keyboard-response","trial_index":106,"time_elapsed":3703647,"internal_node_id":"0.0-13.0-2.13","match_key":"a","participant_id":"16","correct":false},{"rt":null,"stimulus":"Sounds/incorrect.wav","key_press":null,"block":1,"trial_type":"audio-keyboard-response","trial_index":107,"time_elapsed":3705654,"internal_node_id":"0.0-13.0-3.13","match_key":"a","participant_id":"16"},{"rt":null,"stimulus":"Sounds/train_sound.wav","key_press":null,"block":1,"trial_type":"audio-keyboard-response","trial_index":108,"time_elapsed":3706935,"internal_node_id":"0.0-13.0-0.14","match_key":"a","participant_id":"16"},{"rt":null,"stimulus":"<p style=\"font-size: 48px;\">+</p>","key_press":null,"block":1,"trial_type":"html-keyboard-response","trial_index":109,"time_elapsed":3707933,"internal_node_id":"0.0-13.0-1.14","match_key":"a","participant_id":"16"},{"rt":801.5200000000186,"stimulus":"Images/train_3.png","key_press":65,"stim_onset":1581883266890,"block":1,"match_type":"match","image_category":"train","sound_category":"train","audio_type":"sound","phase":"test","trial_type":"image-keyboard-response","trial_index":110,"time_elapsed":3708735,"internal_node_id":"0.0-13.0-2.14","match_key":"a","participant_id":"16","correct":true},{"rt":null,"stimulus":"Sounds/correct.wav","key_press":null,"block":1,"trial_type":"audio-keyboard-response","trial_index":111,"time_elapsed":3710739,"internal_node_id":"0.0-13.0-3.14","match_key":"a","participant_id":"16"},{"rt":null,"stimulus":"Sounds/gun_label.wav","key_press":null,"block":1,"trial_type":"audio-keyboard-response","trial_index":112,"time_elapsed":3711315,"internal_node_id":"0.0-13.0-0.15","match_key":"a","participant_id":"16"},{"rt":null,"stimulus":"<p style=\"font-size: 48px;\">+</p>","key_press":null,"block":1,"trial_type":"html-keyboard-response","trial_index":113,"time_elapsed":3712333,"internal_node_id":"0.0-13.0-1.15","match_key":"a","participant_id":"16"},{"rt":569.5600000000559,"stimulus":"Images/frog_cartoon.png","key_press":76,"stim_onset":1581883271290,"block":1,"match_type":"non-match","image_category":"frog","sound_category":"gun","audio_type":"label","phase":"test","trial_type":"image-keyboard-response","trial_index":114,"time_elapsed":3712903,"internal_node_id":"0.0-13.0-2.15","match_key":"a","participant_id":"16","correct":true},{"rt":null,"stimulus":"Sounds/correct.wav","key_press":null,"block":1,"trial_type":"audio-keyboard-response","trial_index":115,"time_elapsed":3714920,"internal_node_id":"0.0-13.0-3.15","match_key":"a","participant_id":"16"},{"rt":null,"stimulus":"Sounds/rooster_label.wav","key_press":null,"block":1,"trial_type":"audio-keyboard-response","trial_index":116,"time_elapsed":3715615,"internal_node_id":"0.0-13.0-0.16","match_key":"a","participant_id":"16"},{"rt":null,"stimulus":"<p style=\"font-size: 48px;\">+</p>","key_press":null,"block":1,"trial_type":"html-keyboard-response","trial_index":117,"time_elapsed":3716649,"internal_node_id":"0.0-13.0-1.16","match_key":"a","participant_id":"16"},{"rt":612.8999999999069,"stimulus":"Images/rooster_2.png","key_press":65,"stim_onset":1581883275606,"block":1,"match_type":"match","image_category":"rooster","sound_category":"rooster","audio_type":"label","phase":"test","trial_type":"image-keyboard-response","trial_index":118,"time_elapsed":3717263,"internal_node_id":"0.0-13.0-2.16","match_key":"a","participant_id":"16","correct":true},{"rt":null,"stimulus":"Sounds/correct.wav","key_press":null,"block":1,"trial_type":"audio-keyboard-response","trial_index":119,"time_elapsed":3719266,"internal_node_id":"0.0-13.0-3.16","match_key":"a","participant_id":"16"},{"rt":null,"stimulus":"Sounds/frog_label.wav","key_press":null,"block":1,"trial_type":"audio-keyboard-response","trial_index":120,"time_elapsed":3720155,"internal_node_id":"0.0-13.0-0.17","match_key":"a","participant_id":"16"},{"rt":null,"stimulus":"<p style=\"font-size: 48px;\">+</p>","key_press":null,"block":1,"trial_type":"html-keyboard-response","trial_index":121,"time_elapsed":3721149,"internal_node_id":"0.0-13.0-1.17","match_key":"a","participant_id":"16"},{"rt":961.0400000000373,"stimulus":"Images/cow_orig.png","key_press":76,"stim_onset":1581883280106,"block":1,"match_type":"non-match","image_category":"cow","sound_category":"frog","audio_type":"label","phase":"test","trial_type":"image-keyboard-response","trial_index":122,"time_elapsed":3722111,"internal_node_id":"0.0-13.0-2.17","match_key":"a","participant_id":"16","correct":true},{"rt":null,"stimulus":"Sounds/correct.wav","key_press":null,"block":1,"trial_type":"audio-keyboard-response","trial_index":123,"time_elapsed":3724126,"internal_node_id":"0.0-13.0-3.17","match_key":"a","participant_id":"16"},{"rt":null,"stimulus":"Sounds/whistle_sound.wav","key_press":null,"block":1,"trial_type":"audio-keyboard-response","trial_index":124,"time_elapsed":3724815,"internal_node_id":"0.0-13.0-0.18","match_key":"a","participant_id":"16"},{"rt":null,"stimulus":"<p style=\"font-size: 48px;\">+</p>","key_press":null,"block":1,"trial_type":"html-keyboard-response","trial_index":125,"time_elapsed":3725833,"internal_node_id":"0.0-13.0-1.18","match_key":"a","participant_id":"16"},{"rt":453.3300000000745,"stimulus":"Images/dog_orig.png","key_press":76,"stim_onset":1581883284790,"block":1,"match_type":"non-match","image_category":"dog","sound_category":"whistle","audio_type":"sound","phase":"test","trial_type":"image-keyboard-response","trial_index":126,"time_elapsed":3726287,"internal_node_id":"0.0-13.0-2.18","match_key":"a","participant_id":"16","correct":true},{"rt":null,"stimulus":"Sounds/correct.wav","key_press":null,"block":1,"trial_type":"audio-keyboard-response","trial_index":127,"time_elapsed":3728304,"internal_node_id":"0.0-13.0-3.18","match_key":"a","participant_id":"16"},{"rt":null,"stimulus":"Sounds/rooster_sound.wav","key_press":null,"block":1,"trial_type":"audio-keyboard-response","trial_index":128,"time_elapsed":3728995,"internal_node_id":"0.0-13.0-0.19","match_key":"a","participant_id":"16"},{"rt":null,"stimulus":"<p style=\"font-size: 48px;\">+</p>","key_press":null,"block":1,"trial_type":"html-keyboard-response","trial_index":129,"time_elapsed":3730000,"internal_node_id":"0.0-13.0-1.19","match_key":"a","participant_id":"16"},{"rt":798.2050000000745,"stimulus":"Images/whistle_orig.png","key_press":65,"stim_onset":1581883288957,"block":1,"match_type":"non-match","image_category":"whistle","sound_category":"rooster","audio_type":"sound","phase":"test","trial_type":"image-keyboard-response","trial_index":130,"time_elapsed":3730801,"internal_node_id":"0.0-13.0-2.19","match_key":"a","participant_id":"16","correct":false},{"rt":null,"stimulus":"Sounds/incorrect.wav","key_press":null,"block":1,"trial_type":"audio-keyboard-response","trial_index":131,"time_elapsed":3732805,"internal_node_id":"0.0-13.0-3.19","match_key":"a","participant_id":"16"},{"rt":null,"stimulus":"Sounds/whistle_label.wav","key_press":null,"block":1,"trial_type":"audio-keyboard-response","trial_index":132,"time_elapsed":3733495,"internal_node_id":"0.0-13.0-0.20","match_key":"a","participant_id":"16"},{"rt":null,"stimulus":"<p style=\"font-size: 48px;\">+</p>","key_press":null,"block":1,"trial_type":"html-keyboard-response","trial_index":133,"time_elapsed":3734500,"internal_node_id":"0.0-13.0-1.20","match_key":"a","participant_id":"16"},{"rt":738.6800000001676,"stimulus":"Images/whistle_2.png","key_press":76,"stim_onset":1581883293457,"block":1,"match_type":"match","image_category":"whistle","sound_category":"whistle","audio_type":"label","phase":"test","trial_type":"image-keyboard-response","trial_index":134,"time_elapsed":3735240,"internal_node_id":"0.0-13.0-2.20","match_key":"a","participant_id":"16","correct":false},{"rt":null,"stimulus":"Sounds/incorrect.wav","key_press":null,"block":1,"trial_type":"audio-keyboard-response","trial_index":135,"time_elapsed":3737257,"internal_node_id":"0.0-13.0-3.20","match_key":"a","participant_id":"16"},{"rt":null,"stimulus":"Sounds/car_sound.wav","key_press":null,"block":1,"trial_type":"audio-keyboard-response","trial_index":136,"time_elapsed":3738335,"internal_node_id":"0.0-13.0-0.21","match_key":"a","participant_id":"16"},{"rt":null,"stimulus":"<p style=\"font-size: 48px;\">+</p>","key_press":null,"block":1,"trial_type":"html-keyboard-response","trial_index":137,"time_elapsed":3739333,"internal_node_id":"0.0-13.0-1.21","match_key":"a","participant_id":"16"},{"rt":2001.1899999999441,"stimulus":"Images/car_cartoon.png","key_press":65,"stim_onset":1581883298290,"block":1,"match_type":"match","image_category":"car","sound_category":"car","audio_type":"sound","phase":"test","trial_type":"image-keyboard-response","trial_index":138,"time_elapsed":3741335,"internal_node_id":"0.0-13.0-2.21","match_key":"a","participant_id":"16","correct":true},{"rt":null,"stimulus":"Sounds/correct.wav","key_press":null,"block":1,"trial_type":"audio-keyboard-response","trial_index":139,"time_elapsed":3743342,"internal_node_id":"0.0-13.0-3.21","match_key":"a","participant_id":"16"},{"rt":null,"stimulus":"Sounds/frog_label.wav","key_press":null,"block":1,"trial_type":"audio-keyboard-response","trial_index":140,"time_elapsed":3744235,"internal_node_id":"0.0-13.0-0.22","match_key":"a","participant_id":"16"},{"rt":null,"stimulus":"<p style=\"font-size: 48px;\">+</p>","key_press":null,"block":1,"trial_type":"html-keyboard-response","trial_index":141,"time_elapsed":3745233,"internal_node_id":"0.0-13.0-1.22","match_key":"a","participant_id":"16"},{"rt":845.4799999999814,"stimulus":"Images/frog_orig.png","key_press":65,"stim_onset":1581883304190,"block":1,"match_type":"match","image_category":"frog","sound_category":"frog","audio_type":"label","phase":"test","trial_type":"image-keyboard-response","trial_index":142,"time_elapsed":3746080,"internal_node_id":"0.0-13.0-2.22","match_key":"a","participant_id":"16","correct":true},{"rt":null,"stimulus":"Sounds/correct.wav","key_press":null,"block":1,"trial_type":"audio-keyboard-response","trial_index":143,"time_elapsed":3748088,"internal_node_id":"0.0-13.0-3.22","match_key":"a","participant_id":"16"},{"rt":null,"stimulus":"Sounds/dog_label.wav","key_press":null,"block":1,"trial_type":"audio-keyboard-response","trial_index":144,"time_elapsed":3748735,"internal_node_id":"0.0-13.0-0.23","match_key":"a","participant_id":"16"},{"rt":null,"stimulus":"<p style=\"font-size: 48px;\">+</p>","key_press":null,"block":1,"trial_type":"html-keyboard-response","trial_index":145,"time_elapsed":3749733,"internal_node_id":"0.0-13.0-1.23","match_key":"a","participant_id":"16"},{"rt":713.3100000000559,"stimulus":"Images/car_1.png","key_press":76,"stim_onset":1581883308690,"block":1,"match_type":"non-match","image_category":"car","sound_category":"dog","audio_type":"label","phase":"test","trial_type":"image-keyboard-response","trial_index":146,"time_elapsed":3750447,"internal_node_id":"0.0-13.0-2.23","match_key":"a","participant_id":"16","correct":true},{"rt":null,"stimulus":"Sounds/correct.wav","key_press":null,"block":1,"trial_type":"audio-keyboard-response","trial_index":147,"time_elapsed":3752455,"internal_node_id":"0.0-13.0-3.23","match_key":"a","participant_id":"16"},{"rt":null,"stimulus":"Sounds/train_sound.wav","key_press":null,"block":1,"trial_type":"audio-keyboard-response","trial_index":148,"time_elapsed":3753755,"internal_node_id":"0.0-13.0-0.24","match_key":"a","participant_id":"16"},{"rt":null,"stimulus":"<p style=\"font-size: 48px;\">+</p>","key_press":null,"block":1,"trial_type":"html-keyboard-response","trial_index":149,"time_elapsed":3754750,"internal_node_id":"0.0-13.0-1.24","match_key":"a","participant_id":"16"},{"rt":1008.4450000007637,"stimulus":"Images/dog_3.png","key_press":76,"stim_onset":1581883313707,"block":1,"match_type":"non-match","image_category":"dog","sound_category":"train","audio_type":"sound","phase":"test","trial_type":"image-keyboard-response","trial_index":150,"time_elapsed":3755759,"internal_node_id":"0.0-13.0-2.24","match_key":"a","participant_id":"16","correct":true},{"rt":null,"stimulus":"Sounds/correct.wav","key_press":null,"block":1,"trial_type":"audio-keyboard-response","trial_index":151,"time_elapsed":3757770,"internal_node_id":"0.0-13.0-3.24","match_key":"a","participant_id":"16"},{"rt":null,"stimulus":"Sounds/motorcycle_sound.wav","key_press":null,"block":1,"trial_type":"audio-keyboard-response","trial_index":152,"time_elapsed":3758895,"internal_node_id":"0.0-13.0-0.25","match_key":"a","participant_id":"16"},{"rt":null,"stimulus":"<p style=\"font-size: 48px;\">+</p>","key_press":null,"block":1,"trial_type":"html-keyboard-response","trial_index":153,"time_elapsed":3759900,"internal_node_id":"0.0-13.0-1.25","match_key":"a","participant_id":"16"},{"rt":530.5750000001863,"stimulus":"Images/dog_1.png","key_press":76,"stim_onset":1581883318857,"block":1,"match_type":"non-match","image_category":"dog","sound_category":"motorcycle","audio_type":"sound","phase":"test","trial_type":"image-keyboard-response","trial_index":154,"time_elapsed":3760432,"internal_node_id":"0.0-13.0-2.25","match_key":"a","participant_id":"16","correct":true},{"rt":null,"stimulus":"Sounds/correct.wav","key_press":null,"block":1,"trial_type":"audio-keyboard-response","trial_index":155,"time_elapsed":3762441,"internal_node_id":"0.0-13.0-3.25","match_key":"a","participant_id":"16"},{"rt":null,"stimulus":"Sounds/cat_sound.wav","key_press":null,"block":1,"trial_type":"audio-keyboard-response","trial_index":156,"time_elapsed":3763276,"internal_node_id":"0.0-13.0-0.26","match_key":"a","participant_id":"16"},{"rt":null,"stimulus":"<p style=\"font-size: 48px;\">+</p>","key_press":null,"block":1,"trial_type":"html-keyboard-response","trial_index":157,"time_elapsed":3764267,"internal_node_id":"0.0-13.0-1.26","match_key":"a","participant_id":"16"},{"rt":475.625,"stimulus":"Images/cat_3.png","key_press":65,"stim_onset":1581883323224,"block":1,"match_type":"match","image_category":"cat","sound_category":"cat","audio_type":"sound","phase":"test","trial_type":"image-keyboard-response","trial_index":158,"time_elapsed":3764744,"internal_node_id":"0.0-13.0-2.26","match_key":"a","participant_id":"16","correct":true},{"rt":null,"stimulus":"Sounds/correct.wav","key_press":null,"block":1,"trial_type":"audio-keyboard-response","trial_index":159,"time_elapsed":3766754,"internal_node_id":"0.0-13.0-3.26","match_key":"a","participant_id":"16"},{"rt":null,"stimulus":"Sounds/dog_label.wav","key_press":null,"block":1,"trial_type":"audio-keyboard-response","trial_index":160,"time_elapsed":3767396,"internal_node_id":"0.0-13.0-0.27","match_key":"a","participant_id":"16"},{"rt":null,"stimulus":"<p style=\"font-size: 48px;\">+</p>","key_press":null,"block":1,"trial_type":"html-keyboard-response","trial_index":161,"time_elapsed":3768384,"internal_node_id":"0.0-13.0-1.27","match_key":"a","participant_id":"16"},{"rt":494.9000000008382,"stimulus":"Images/rooster_cartoon.png","key_press":76,"stim_onset":1581883327341,"block":1,"match_type":"non-match","image_category":"rooster","sound_category":"dog","audio_type":"label","phase":"test","trial_type":"image-keyboard-response","trial_index":162,"time_elapsed":3768880,"internal_node_id":"0.0-13.0-2.27","match_key":"a","participant_id":"16","correct":true},{"rt":null,"stimulus":"Sounds/correct.wav","key_press":null,"block":1,"trial_type":"audio-keyboard-response","trial_index":163,"time_elapsed":3770891,"internal_node_id":"0.0-13.0-3.27","match_key":"a","participant_id":"16"},{"rt":null,"stimulus":"Sounds/rooster_sound.wav","key_press":null,"block":1,"trial_type":"audio-keyboard-response","trial_index":164,"time_elapsed":3771596,"internal_node_id":"0.0-13.0-0.28","match_key":"a","participant_id":"16"},{"rt":null,"stimulus":"<p style=\"font-size: 48px;\">+</p>","key_press":null,"block":1,"trial_type":"html-keyboard-response","trial_index":165,"time_elapsed":3772584,"internal_node_id":"0.0-13.0-1.28","match_key":"a","participant_id":"16"},{"rt":775.1650000000373,"stimulus":"Images/rooster_cartoon.png","key_press":65,"stim_onset":1581883331542,"block":1,"match_type":"match","image_category":"rooster","sound_category":"rooster","audio_type":"sound","phase":"test","trial_type":"image-keyboard-response","trial_index":166,"time_elapsed":3773360,"internal_node_id":"0.0-13.0-2.28","match_key":"a","participant_id":"16","correct":true},{"rt":null,"stimulus":"Sounds/correct.wav","key_press":null,"block":1,"trial_type":"audio-keyboard-response","trial_index":167,"time_elapsed":3775371,"internal_node_id":"0.0-13.0-3.28","match_key":"a","participant_id":"16"},{"rt":null,"stimulus":"Sounds/cat_label.wav","key_press":null,"block":1,"trial_type":"audio-keyboard-response","trial_index":168,"time_elapsed":3776216,"internal_node_id":"0.0-13.0-0.29","match_key":"a","participant_id":"16"},{"rt":null,"stimulus":"<p style=\"font-size: 48px;\">+</p>","key_press":null,"block":1,"trial_type":"html-keyboard-response","trial_index":169,"time_elapsed":3777234,"internal_node_id":"0.0-13.0-1.29","match_key":"a","participant_id":"16"},{"rt":940.6350000002421,"stimulus":"Images/cow_1.png","key_press":76,"stim_onset":1581883336191,"block":1,"match_type":"non-match","image_category":"cow","sound_category":"cat","audio_type":"label","phase":"test","trial_type":"image-keyboard-response","trial_index":170,"time_elapsed":3778176,"internal_node_id":"0.0-13.0-2.29","match_key":"a","participant_id":"16","correct":true},{"rt":null,"stimulus":"Sounds/correct.wav","key_press":null,"block":1,"trial_type":"audio-keyboard-response","trial_index":171,"time_elapsed":3780188,"internal_node_id":"0.0-13.0-3.29","match_key":"a","participant_id":"16"},{"rt":null,"stimulus":"Sounds/gun_sound.wav","key_press":null,"block":1,"trial_type":"audio-keyboard-response","trial_index":172,"time_elapsed":3780776,"internal_node_id":"0.0-13.0-0.30","match_key":"a","participant_id":"16"},{"rt":null,"stimulus":"<p style=\"font-size: 48px;\">+</p>","key_press":null,"block":1,"trial_type":"html-keyboard-response","trial_index":173,"time_elapsed":3781768,"internal_node_id":"0.0-13.0-1.30","match_key":"a","participant_id":"16"},{"rt":1055.6049999995157,"stimulus":"Images/gun_2.png","key_press":65,"stim_onset":1581883340725,"block":1,"match_type":"match","image_category":"gun","sound_category":"gun","audio_type":"sound","phase":"test","trial_type":"image-keyboard-response","trial_index":174,"time_elapsed":3782824,"internal_node_id":"0.0-13.0-2.30","match_key":"a","participant_id":"16","correct":true},{"rt":null,"stimulus":"Sounds/correct.wav","key_press":null,"block":1,"trial_type":"audio-keyboard-response","trial_index":175,"time_elapsed":3784838,"internal_node_id":"0.0-13.0-3.30","match_key":"a","participant_id":"16"},{"rt":null,"stimulus":"Sounds/gun_sound.wav","key_press":null,"block":1,"trial_type":"audio-keyboard-response","trial_index":176,"time_elapsed":3785396,"internal_node_id":"0.0-13.0-0.31","match_key":"a","participant_id":"16"},{"rt":null,"stimulus":"<p style=\"font-size: 48px;\">+</p>","key_press":null,"block":1,"trial_type":"html-keyboard-response","trial_index":177,"time_elapsed":3786384,"internal_node_id":"0.0-13.0-1.31","match_key":"a","participant_id":"16"},{"rt":598.8750000004657,"stimulus":"Images/gun_orig.png","key_press":65,"stim_onset":1581883345342,"block":1,"match_type":"match","image_category":"gun","sound_category":"gun","audio_type":"sound","phase":"test","trial_type":"image-keyboard-response","trial_index":178,"time_elapsed":3786984,"internal_node_id":"0.0-13.0-2.31","match_key":"a","participant_id":"16","correct":true},{"rt":null,"stimulus":"Sounds/correct.wav","key_press":null,"block":1,"trial_type":"audio-keyboard-response","trial_index":179,"time_elapsed":3788991,"internal_node_id":"0.0-13.0-3.31","match_key":"a","participant_id":"16"},{"rt":null,"stimulus":"Sounds/cow_sound.wav","key_press":null,"block":1,"trial_type":"audio-keyboard-response","trial_index":180,"time_elapsed":3790017,"internal_node_id":"0.0-13.0-0.32","match_key":"a","participant_id":"16"},{"rt":null,"stimulus":"<p style=\"font-size: 48px;\">+</p>","key_press":null,"block":1,"trial_type":"html-keyboard-response","trial_index":181,"time_elapsed":3791018,"internal_node_id":"0.0-13.0-1.32","match_key":"a","participant_id":"16"},{"rt":677.3500000000931,"stimulus":"Images/motorcycle_3.png","key_press":76,"stim_onset":1581883349975,"block":1,"match_type":"non-match","image_category":"motorcycle","sound_category":"cow","audio_type":"sound","phase":"test","trial_type":"image-keyboard-response","trial_index":182,"time_elapsed":3791696,"internal_node_id":"0.0-13.0-2.32","match_key":"a","participant_id":"16","correct":true},{"rt":null,"stimulus":"Sounds/correct.wav","key_press":null,"block":1,"trial_type":"audio-keyboard-response","trial_index":183,"time_elapsed":3793706,"internal_node_id":"0.0-13.0-3.32","match_key":"a","participant_id":"16"},{"rt":null,"stimulus":"Sounds/motorcycle_label.wav","key_press":null,"block":1,"trial_type":"audio-keyboard-response","trial_index":184,"time_elapsed":3794836,"internal_node_id":"0.0-13.0-0.33","match_key":"a","participant_id":"16"},{"rt":null,"stimulus":"<p style=\"font-size: 48px;\">+</p>","key_press":null,"block":1,"trial_type":"html-keyboard-response","trial_index":185,"time_elapsed":3795834,"internal_node_id":"0.0-13.0-1.33","match_key":"a","participant_id":"16"},{"rt":476.70000000018626,"stimulus":"Images/motorcycle_orig.png","key_press":65,"stim_onset":1581883354792,"block":1,"match_type":"match","image_category":"motorcycle","sound_category":"motorcycle","audio_type":"label","phase":"test","trial_type":"image-keyboard-response","trial_index":186,"time_elapsed":3796312,"internal_node_id":"0.0-13.0-2.33","match_key":"a","participant_id":"16","correct":true},{"rt":null,"stimulus":"Sounds/correct.wav","key_press":null,"block":1,"trial_type":"audio-keyboard-response","trial_index":187,"time_elapsed":3798321,"internal_node_id":"0.0-13.0-3.33","match_key":"a","participant_id":"16"},{"rt":null,"stimulus":"Sounds/rooster_label.wav","key_press":null,"block":1,"trial_type":"audio-keyboard-response","trial_index":188,"time_elapsed":3799016,"internal_node_id":"0.0-13.0-0.34","match_key":"a","participant_id":"16"},{"rt":null,"stimulus":"<p style=\"font-size: 48px;\">+</p>","key_press":null,"block":1,"trial_type":"html-keyboard-response","trial_index":189,"time_elapsed":3800018,"internal_node_id":"0.0-13.0-1.34","match_key":"a","participant_id":"16"},{"rt":573.6599999996834,"stimulus":"Images/frog_orig.png","key_press":76,"stim_onset":1581883358975,"block":1,"match_type":"non-match","image_category":"frog","sound_category":"rooster","audio_type":"label","phase":"test","trial_type":"image-keyboard-response","trial_index":190,"time_elapsed":3800592,"internal_node_id":"0.0-13.0-2.34","match_key":"a","participant_id":"16","correct":true},{"rt":null,"stimulus":"Sounds/correct.wav","key_press":null,"block":1,"trial_type":"audio-keyboard-response","trial_index":191,"time_elapsed":3802608,"internal_node_id":"0.0-13.0-3.34","match_key":"a","participant_id":"16"},{"rt":null,"stimulus":"Sounds/motorcycle_label.wav","key_press":null,"block":1,"trial_type":"audio-keyboard-response","trial_index":192,"time_elapsed":3803716,"internal_node_id":"0.0-13.0-0.35","match_key":"a","participant_id":"16"},{"rt":null,"stimulus":"<p style=\"font-size: 48px;\">+</p>","key_press":null,"block":1,"trial_type":"html-keyboard-response","trial_index":193,"time_elapsed":3804718,"internal_node_id":"0.0-13.0-1.35","match_key":"a","participant_id":"16"},{"rt":841.3649999992922,"stimulus":"Images/motorcycle_2.png","key_press":65,"stim_onset":1581883363675,"block":1,"match_type":"match","image_category":"motorcycle","sound_category":"motorcycle","audio_type":"label","phase":"test","trial_type":"image-keyboard-response","trial_index":194,"time_elapsed":3805560,"internal_node_id":"0.0-13.0-2.35","match_key":"a","participant_id":"16","correct":true},{"rt":null,"stimulus":"Sounds/correct.wav","key_press":null,"block":1,"trial_type":"audio-keyboard-response","trial_index":195,"time_elapsed":3807572,"internal_node_id":"0.0-13.0-3.35","match_key":"a","participant_id":"16"},{"rt":null,"stimulus":"Sounds/motorcycle_sound.wav","key_press":null,"block":1,"trial_type":"audio-keyboard-response","trial_index":196,"time_elapsed":3808696,"internal_node_id":"0.0-13.0-0.36","match_key":"a","participant_id":"16"},{"rt":null,"stimulus":"<p style=\"font-size: 48px;\">+</p>","key_press":null,"block":1,"trial_type":"html-keyboard-response","trial_index":197,"time_elapsed":3809701,"internal_node_id":"0.0-13.0-1.36","match_key":"a","participant_id":"16"},{"rt":697.6150000002235,"stimulus":"Images/motorcycle_cartoon.png","key_press":65,"stim_onset":1581883368658,"block":1,"match_type":"match","image_category":"motorcycle","sound_category":"motorcycle","audio_type":"sound","phase":"test","trial_type":"image-keyboard-response","trial_index":198,"time_elapsed":3810400,"internal_node_id":"0.0-13.0-2.36","match_key":"a","participant_id":"16","correct":true},{"rt":null,"stimulus":"Sounds/correct.wav","key_press":null,"block":1,"trial_type":"audio-keyboard-response","trial_index":199,"time_elapsed":3812407,"internal_node_id":"0.0-13.0-3.36","match_key":"a","participant_id":"16"},{"rt":null,"stimulus":"Sounds/car_sound.wav","key_press":null,"block":1,"trial_type":"audio-keyboard-response","trial_index":200,"time_elapsed":3813476,"internal_node_id":"0.0-13.0-0.37","match_key":"a","participant_id":"16"},{"rt":null,"stimulus":"<p style=\"font-size: 48px;\">+</p>","key_press":null,"block":1,"trial_type":"html-keyboard-response","trial_index":201,"time_elapsed":3814468,"internal_node_id":"0.0-13.0-1.37","match_key":"a","participant_id":"16"},{"rt":507.31999999983236,"stimulus":"Images/car_2.png","key_press":65,"stim_onset":1581883373425,"block":1,"match_type":"match","image_category":"car","sound_category":"car","audio_type":"sound","phase":"test","trial_type":"image-keyboard-response","trial_index":202,"time_elapsed":3814976,"internal_node_id":"0.0-13.0-2.37","match_key":"a","participant_id":"16","correct":true},{"rt":null,"stimulus":"Sounds/correct.wav","key_press":null,"block":1,"trial_type":"audio-keyboard-response","trial_index":203,"time_elapsed":3816988,"internal_node_id":"0.0-13.0-3.37","match_key":"a","participant_id":"16"},{"rt":null,"stimulus":"Sounds/whistle_sound.wav","key_press":null,"block":1,"trial_type":"audio-keyboard-response","trial_index":204,"time_elapsed":3817696,"internal_node_id":"0.0-13.0-0.38","match_key":"a","participant_id":"16"},{"rt":null,"stimulus":"<p style=\"font-size: 48px;\">+</p>","key_press":null,"block":1,"trial_type":"html-keyboard-response","trial_index":205,"time_elapsed":3818702,"internal_node_id":"0.0-13.0-1.38","match_key":"a","participant_id":"16"},{"rt":753.6049999999814,"stimulus":"Images/car_3.png","key_press":76,"stim_onset":1581883377658,"block":1,"match_type":"non-match","image_category":"car","sound_category":"whistle","audio_type":"sound","phase":"test","trial_type":"image-keyboard-response","trial_index":206,"time_elapsed":3819456,"internal_node_id":"0.0-13.0-2.38","match_key":"a","participant_id":"16","correct":true},{"rt":null,"stimulus":"Sounds/correct.wav","key_press":null,"block":1,"trial_type":"audio-keyboard-response","trial_index":207,"time_elapsed":3821472,"internal_node_id":"0.0-13.0-3.38","match_key":"a","participant_id":"16"},{"rt":null,"stimulus":"Sounds/frog_label.wav","key_press":null,"block":1,"trial_type":"audio-keyboard-response","trial_index":208,"time_elapsed":3822376,"internal_node_id":"0.0-13.0-0.39","match_key":"a","participant_id":"16"},{"rt":null,"stimulus":"<p style=\"font-size: 48px;\">+</p>","key_press":null,"block":1,"trial_type":"html-keyboard-response","trial_index":209,"time_elapsed":3823369,"internal_node_id":"0.0-13.0-1.39","match_key":"a","participant_id":"16"},{"rt":751.0500000002794,"stimulus":"Images/frog_1.png","key_press":65,"stim_onset":1581883382326,"block":1,"match_type":"match","image_category":"frog","sound_category":"frog","audio_type":"label","phase":"test","trial_type":"image-keyboard-response","trial_index":210,"time_elapsed":3824121,"internal_node_id":"0.0-13.0-2.39","match_key":"a","participant_id":"16","correct":true},{"rt":null,"stimulus":"Sounds/correct.wav","key_press":null,"block":1,"trial_type":"audio-keyboard-response","trial_index":211,"time_elapsed":3826124,"internal_node_id":"0.0-13.0-3.39","match_key":"a","participant_id":"16"},{"rt":null,"stimulus":"Sounds/car_sound.wav","key_press":null,"block":1,"trial_type":"audio-keyboard-response","trial_index":212,"time_elapsed":3827177,"internal_node_id":"0.0-13.0-0.40","match_key":"a","participant_id":"16"},{"rt":null,"stimulus":"<p style=\"font-size: 48px;\">+</p>","key_press":null,"block":1,"trial_type":"html-keyboard-response","trial_index":213,"time_elapsed":3828169,"internal_node_id":"0.0-13.0-1.40","match_key":"a","participant_id":"16"},{"rt":543.3799999998882,"stimulus":"Images/frog_3.png","key_press":76,"stim_onset":1581883387126,"block":1,"match_type":"non-match","image_category":"frog","sound_category":"car","audio_type":"sound","phase":"test","trial_type":"image-keyboard-response","trial_index":214,"time_elapsed":3828713,"internal_node_id":"0.0-13.0-2.40","match_key":"a","participant_id":"16","correct":true},{"rt":null,"stimulus":"Sounds/correct.wav","key_press":null,"block":1,"trial_type":"audio-keyboard-response","trial_index":215,"time_elapsed":3830722,"internal_node_id":"0.0-13.0-3.40","match_key":"a","participant_id":"16"},{"rt":null,"stimulus":"Sounds/whistle_sound.wav","key_press":null,"block":1,"trial_type":"audio-keyboard-response","trial_index":216,"time_elapsed":3831397,"internal_node_id":"0.0-13.0-0.41","match_key":"a","participant_id":"16"},{"rt":null,"stimulus":"<p style=\"font-size: 48px;\">+</p>","key_press":null,"block":1,"trial_type":"html-keyboard-response","trial_index":217,"time_elapsed":3832386,"internal_node_id":"0.0-13.0-1.41","match_key":"a","participant_id":"16"},{"rt":838.3199999998324,"stimulus":"Images/whistle_cartoon.png","key_press":65,"stim_onset":1581883391343,"block":1,"match_type":"match","image_category":"whistle","sound_category":"whistle","audio_type":"sound","phase":"test","trial_type":"image-keyboard-response","trial_index":218,"time_elapsed":3833225,"internal_node_id":"0.0-13.0-2.41","match_key":"a","participant_id":"16","correct":true},{"rt":null,"stimulus":"Sounds/correct.wav","key_press":null,"block":1,"trial_type":"audio-keyboard-response","trial_index":219,"time_elapsed":3835240,"internal_node_id":"0.0-13.0-3.41","match_key":"a","participant_id":"16"},{"rt":null,"stimulus":"Sounds/gun_label.wav","key_press":null,"block":1,"trial_type":"audio-keyboard-response","trial_index":220,"time_elapsed":3835817,"internal_node_id":"0.0-13.0-0.42","match_key":"a","participant_id":"16"},{"rt":null,"stimulus":"<p style=\"font-size: 48px;\">+</p>","key_press":null,"block":1,"trial_type":"html-keyboard-response","trial_index":221,"time_elapsed":3836819,"internal_node_id":"0.0-13.0-1.42","match_key":"a","participant_id":"16"},{"rt":948.9149999995716,"stimulus":"Images/gun_1.png","key_press":65,"stim_onset":1581883395776,"block":1,"match_type":"match","image_category":"gun","sound_category":"gun","audio_type":"label","phase":"test","trial_type":"image-keyboard-response","trial_index":222,"time_elapsed":3837769,"internal_node_id":"0.0-13.0-2.42","match_key":"a","participant_id":"16","correct":true},{"rt":null,"stimulus":"Sounds/correct.wav","key_press":null,"block":1,"trial_type":"audio-keyboard-response","trial_index":223,"time_elapsed":3839775,"internal_node_id":"0.0-13.0-3.42","match_key":"a","participant_id":"16"},{"rt":null,"stimulus":"Sounds/frog_sound.wav","key_press":null,"block":1,"trial_type":"audio-keyboard-response","trial_index":224,"time_elapsed":3840677,"internal_node_id":"0.0-13.0-0.43","match_key":"a","participant_id":"16"},{"rt":null,"stimulus":"<p style=\"font-size: 48px;\">+</p>","key_press":null,"block":1,"trial_type":"html-keyboard-response","trial_index":225,"time_elapsed":3841669,"internal_node_id":"0.0-13.0-1.43","match_key":"a","participant_id":"16"},{"rt":915.0749999997206,"stimulus":"Images/car_cartoon.png","key_press":76,"stim_onset":1581883400627,"block":1,"match_type":"non-match","image_category":"car","sound_category":"frog","audio_type":"sound","phase":"test","trial_type":"image-keyboard-response","trial_index":226,"time_elapsed":3842585,"internal_node_id":"0.0-13.0-2.43","match_key":"a","participant_id":"16","correct":true},{"rt":null,"stimulus":"Sounds/correct.wav","key_press":null,"block":1,"trial_type":"audio-keyboard-response","trial_index":227,"time_elapsed":3844591,"internal_node_id":"0.0-13.0-3.43","match_key":"a","participant_id":"16"},{"rt":null,"stimulus":"Sounds/frog_label.wav","key_press":null,"block":1,"trial_type":"audio-keyboard-response","trial_index":228,"time_elapsed":3845477,"internal_node_id":"0.0-13.0-0.44","match_key":"a","participant_id":"16"},{"rt":null,"stimulus":"<p style=\"font-size: 48px;\">+</p>","key_press":null,"block":1,"trial_type":"html-keyboard-response","trial_index":229,"time_elapsed":3846469,"internal_node_id":"0.0-13.0-1.44","match_key":"a","participant_id":"16"},{"rt":666.8949999990873,"stimulus":"Images/frog_2.png","key_press":65,"stim_onset":1581883405426,"block":1,"match_type":"match","image_category":"frog","sound_category":"frog","audio_type":"label","phase":"test","trial_type":"image-keyboard-response","trial_index":230,"time_elapsed":3847137,"internal_node_id":"0.0-13.0-2.44","match_key":"a","participant_id":"16","correct":true},{"rt":null,"stimulus":"Sounds/correct.wav","key_press":null,"block":1,"trial_type":"audio-keyboard-response","trial_index":231,"time_elapsed":3849142,"internal_node_id":"0.0-13.0-3.44","match_key":"a","participant_id":"16"},{"rt":null,"stimulus":"Sounds/rooster_label.wav","key_press":null,"block":1,"trial_type":"audio-keyboard-response","trial_index":232,"time_elapsed":3849837,"internal_node_id":"0.0-13.0-0.45","match_key":"a","participant_id":"16"},{"rt":null,"stimulus":"<p style=\"font-size: 48px;\">+</p>","key_press":null,"block":1,"trial_type":"html-keyboard-response","trial_index":233,"time_elapsed":3850836,"internal_node_id":"0.0-13.0-1.45","match_key":"a","participant_id":"16"},{"rt":580.1549999997951,"stimulus":"Images/dog_cartoon.png","key_press":76,"stim_onset":1581883409793,"block":1,"match_type":"non-match","image_category":"dog","sound_category":"rooster","audio_type":"label","phase":"test","trial_type":"image-keyboard-response","trial_index":234,"time_elapsed":3851417,"internal_node_id":"0.0-13.0-2.45","match_key":"a","participant_id":"16","correct":true},{"rt":null,"stimulus":"Sounds/correct.wav","key_press":null,"block":1,"trial_type":"audio-keyboard-response","trial_index":235,"time_elapsed":3853424,"internal_node_id":"0.0-13.0-3.45","match_key":"a","participant_id":"16"},{"rt":null,"stimulus":"Sounds/car_label.wav","key_press":null,"block":1,"trial_type":"audio-keyboard-response","trial_index":236,"time_elapsed":3854497,"internal_node_id":"0.0-13.0-0.46","match_key":"a","participant_id":"16"},{"rt":null,"stimulus":"<p style=\"font-size: 48px;\">+</p>","key_press":null,"block":1,"trial_type":"html-keyboard-response","trial_index":237,"time_elapsed":3855504,"internal_node_id":"0.0-13.0-1.46","match_key":"a","participant_id":"16"},{"rt":504.05000000074506,"stimulus":"Images/car_1.png","key_press":65,"stim_onset":1581883414460,"block":1,"match_type":"match","image_category":"car","sound_category":"car","audio_type":"label","phase":"test","trial_type":"image-keyboard-response","trial_index":238,"time_elapsed":3856009,"internal_node_id":"0.0-13.0-2.46","match_key":"a","participant_id":"16","correct":true},{"rt":null,"stimulus":"Sounds/correct.wav","key_press":null,"block":1,"trial_type":"audio-keyboard-response","trial_index":239,"time_elapsed":3858024,"internal_node_id":"0.0-13.0-3.46","match_key":"a","participant_id":"16"},{"rt":null,"stimulus":"Sounds/gun_label.wav","key_press":null,"block":1,"trial_type":"audio-keyboard-response","trial_index":240,"time_elapsed":3858597,"internal_node_id":"0.0-13.0-0.47","match_key":"a","participant_id":"16"},{"rt":null,"stimulus":"<p style=\"font-size: 48px;\">+</p>","key_press":null,"block":1,"trial_type":"html-keyboard-response","trial_index":241,"time_elapsed":3859586,"internal_node_id":"0.0-13.0-1.47","match_key":"a","participant_id":"16"},{"rt":622.0250000003725,"stimulus":"Images/gun_3.png","key_press":65,"stim_onset":1581883418543,"block":1,"match_type":"match","image_category":"gun","sound_category":"gun","audio_type":"label","phase":"test","trial_type":"image-keyboard-response","trial_index":242,"time_elapsed":3860209,"internal_node_id":"0.0-13.0-2.47","match_key":"a","participant_id":"16","correct":true},{"rt":null,"stimulus":"Sounds/correct.wav","key_press":null,"block":1,"trial_type":"audio-keyboard-response","trial_index":243,"time_elapsed":3862224,"internal_node_id":"0.0-13.0-3.47","match_key":"a","participant_id":"16"},{"rt":null,"stimulus":"Sounds/motorcycle_sound.wav","key_press":null,"block":1,"trial_type":"audio-keyboard-response","trial_index":244,"time_elapsed":3863337,"internal_node_id":"0.0-13.0-0.48","match_key":"a","participant_id":"16"},{"rt":null,"stimulus":"<p style=\"font-size: 48px;\">+</p>","key_press":null,"block":1,"trial_type":"html-keyboard-response","trial_index":245,"time_elapsed":3864336,"internal_node_id":"0.0-13.0-1.48","match_key":"a","participant_id":"16"},{"rt":855.8500000000931,"stimulus":"Images/train_3.png","key_press":76,"stim_onset":1581883423293,"block":1,"match_type":"non-match","image_category":"train","sound_category":"motorcycle","audio_type":"sound","phase":"test","trial_type":"image-keyboard-response","trial_index":246,"time_elapsed":3865193,"internal_node_id":"0.0-13.0-2.48","match_key":"a","participant_id":"16","correct":true},{"rt":null,"stimulus":"Sounds/correct.wav","key_press":null,"block":1,"trial_type":"audio-keyboard-response","trial_index":247,"time_elapsed":3867207,"internal_node_id":"0.0-13.0-3.48","match_key":"a","participant_id":"16"},{"rt":null,"stimulus":"Sounds/whistle_label.wav","key_press":null,"block":1,"trial_type":"audio-keyboard-response","trial_index":248,"time_elapsed":3867897,"internal_node_id":"0.0-13.0-0.49","match_key":"a","participant_id":"16"},{"rt":null,"stimulus":"<p style=\"font-size: 48px;\">+</p>","key_press":null,"block":1,"trial_type":"html-keyboard-response","trial_index":249,"time_elapsed":3868886,"internal_node_id":"0.0-13.0-1.49","match_key":"a","participant_id":"16"},{"rt":425.9600000004284,"stimulus":"Images/whistle_1.png","key_press":65,"stim_onset":1581883427843,"block":1,"match_type":"match","image_category":"whistle","sound_category":"whistle","audio_type":"label","phase":"test","trial_type":"image-keyboard-response","trial_index":250,"time_elapsed":3869313,"internal_node_id":"0.0-13.0-2.49","match_key":"a","participant_id":"16","correct":true},{"rt":null,"stimulus":"Sounds/correct.wav","key_press":null,"block":1,"trial_type":"audio-keyboard-response","trial_index":251,"time_elapsed":3871322,"internal_node_id":"0.0-13.0-3.49","match_key":"a","participant_id":"16"},{"rt":null,"stimulus":"Sounds/cat_sound.wav","key_press":null,"block":1,"trial_type":"audio-keyboard-response","trial_index":252,"time_elapsed":3872157,"internal_node_id":"0.0-13.0-0.50","match_key":"a","participant_id":"16"},{"rt":null,"stimulus":"<p style=\"font-size: 48px;\">+</p>","key_press":null,"block":1,"trial_type":"html-keyboard-response","trial_index":253,"time_elapsed":3873153,"internal_node_id":"0.0-13.0-1.50","match_key":"a","participant_id":"16"},{"rt":583.1550000002608,"stimulus":"Images/cat_2.png","key_press":65,"stim_onset":1581883432110,"block":1,"match_type":"match","image_category":"cat","sound_category":"cat","audio_type":"sound","phase":"test","trial_type":"image-keyboard-response","trial_index":254,"time_elapsed":3873737,"internal_node_id":"0.0-13.0-2.50","match_key":"a","participant_id":"16","correct":true},{"rt":null,"stimulus":"Sounds/correct.wav","key_press":null,"block":1,"trial_type":"audio-keyboard-response","trial_index":255,"time_elapsed":3875744,"internal_node_id":"0.0-13.0-3.50","match_key":"a","participant_id":"16"},{"rt":null,"stimulus":"Sounds/gun_label.wav","key_press":null,"block":1,"trial_type":"audio-keyboard-response","trial_index":256,"time_elapsed":3876317,"internal_node_id":"0.0-13.0-0.51","match_key":"a","participant_id":"16"},{"rt":null,"stimulus":"<p style=\"font-size: 48px;\">+</p>","key_press":null,"block":1,"trial_type":"html-keyboard-response","trial_index":257,"time_elapsed":3877320,"internal_node_id":"0.0-13.0-1.51","match_key":"a","participant_id":"16"},{"rt":808.6199999996461,"stimulus":"Images/cat_2.png","key_press":76,"stim_onset":1581883436277,"block":1,"match_type":"non-match","image_category":"cat","sound_category":"gun","audio_type":"label","phase":"test","trial_type":"image-keyboard-response","trial_index":258,"time_elapsed":3878129,"internal_node_id":"0.0-13.0-2.51","match_key":"a","participant_id":"16","correct":true},{"rt":null,"stimulus":"Sounds/correct.wav","key_press":null,"block":1,"trial_type":"audio-keyboard-response","trial_index":259,"time_elapsed":3880139,"internal_node_id":"0.0-13.0-3.51","match_key":"a","participant_id":"16"},{"rt":null,"stimulus":"Sounds/car_sound.wav","key_press":null,"block":1,"trial_type":"audio-keyboard-response","trial_index":260,"time_elapsed":3881217,"internal_node_id":"0.0-13.0-0.52","match_key":"a","participant_id":"16"},{"rt":null,"stimulus":"<p style=\"font-size: 48px;\">+</p>","key_press":null,"block":1,"trial_type":"html-keyboard-response","trial_index":261,"time_elapsed":3882220,"internal_node_id":"0.0-13.0-1.52","match_key":"a","participant_id":"16"},{"rt":572.3649999997579,"stimulus":"Images/cow_cartoon.png","key_press":76,"stim_onset":1581883441177,"block":1,"match_type":"non-match","image_category":"cow","sound_category":"car","audio_type":"sound","phase":"test","trial_type":"image-keyboard-response","trial_index":262,"time_elapsed":3882793,"internal_node_id":"0.0-13.0-2.52","match_key":"a","participant_id":"16","correct":true},{"rt":null,"stimulus":"Sounds/correct.wav","key_press":null,"block":1,"trial_type":"audio-keyboard-response","trial_index":263,"time_elapsed":3884807,"internal_node_id":"0.0-13.0-3.52","match_key":"a","participant_id":"16"},{"rt":null,"stimulus":"Sounds/whistle_label.wav","key_press":null,"block":1,"trial_type":"audio-keyboard-response","trial_index":264,"time_elapsed":3885498,"internal_node_id":"0.0-13.0-0.53","match_key":"a","participant_id":"16"},{"rt":null,"stimulus":"<p style=\"font-size: 48px;\">+</p>","key_press":null,"block":1,"trial_type":"html-keyboard-response","trial_index":265,"time_elapsed":3886504,"internal_node_id":"0.0-13.0-1.53","match_key":"a","participant_id":"16"},{"rt":448.9399999999441,"stimulus":"Images/whistle_orig.png","key_press":65,"stim_onset":1581883445461,"block":1,"match_type":"match","image_category":"whistle","sound_category":"whistle","audio_type":"label","phase":"test","trial_type":"image-keyboard-response","trial_index":266,"time_elapsed":3886954,"internal_node_id":"0.0-13.0-2.53","match_key":"a","participant_id":"16","correct":true},{"rt":null,"stimulus":"Sounds/correct.wav","key_press":null,"block":1,"trial_type":"audio-keyboard-response","trial_index":267,"time_elapsed":3888959,"internal_node_id":"0.0-13.0-3.53","match_key":"a","participant_id":"16"},{"rt":null,"stimulus":"Sounds/train_sound.wav","key_press":null,"block":1,"trial_type":"audio-keyboard-response","trial_index":268,"time_elapsed":3890258,"internal_node_id":"0.0-13.0-0.54","match_key":"a","participant_id":"16"},{"rt":null,"stimulus":"<p style=\"font-size: 48px;\">+</p>","key_press":null,"block":1,"trial_type":"html-keyboard-response","trial_index":269,"time_elapsed":3891254,"internal_node_id":"0.0-13.0-1.54","match_key":"a","participant_id":"16"},{"rt":859.0599999995902,"stimulus":"Images/train_orig.png","key_press":65,"stim_onset":1581883450211,"block":1,"match_type":"match","image_category":"train","sound_category":"train","audio_type":"sound","phase":"test","trial_type":"image-keyboard-response","trial_index":270,"time_elapsed":3892114,"internal_node_id":"0.0-13.0-2.54","match_key":"a","participant_id":"16","correct":true},{"rt":null,"stimulus":"Sounds/correct.wav","key_press":null,"block":1,"trial_type":"audio-keyboard-response","trial_index":271,"time_elapsed":3894127,"internal_node_id":"0.0-13.0-3.54","match_key":"a","participant_id":"16"},{"rt":null,"stimulus":"Sounds/whistle_label.wav","key_press":null,"block":1,"trial_type":"audio-keyboard-response","trial_index":272,"time_elapsed":3894798,"internal_node_id":"0.0-13.0-0.55","match_key":"a","participant_id":"16"},{"rt":null,"stimulus":"<p style=\"font-size: 48px;\">+</p>","key_press":null,"block":1,"trial_type":"html-keyboard-response","trial_index":273,"time_elapsed":3895787,"internal_node_id":"0.0-13.0-1.55","match_key":"a","participant_id":"16"},{"rt":541.7999999998137,"stimulus":"Images/motorcycle_1.png","key_press":76,"stim_onset":1581883454744,"block":1,"match_type":"non-match","image_category":"motorcycle","sound_category":"whistle","audio_type":"label","phase":"test","trial_type":"image-keyboard-response","trial_index":274,"time_elapsed":3896330,"internal_node_id":"0.0-13.0-2.55","match_key":"a","participant_id":"16","correct":true},{"rt":null,"stimulus":"Sounds/correct.wav","key_press":null,"block":1,"trial_type":"audio-keyboard-response","trial_index":275,"time_elapsed":3898341,"internal_node_id":"0.0-13.0-3.55","match_key":"a","participant_id":"16"},{"rt":null,"stimulus":"Sounds/cat_sound.wav","key_press":null,"block":1,"trial_type":"audio-keyboard-response","trial_index":276,"time_elapsed":3899178,"internal_node_id":"0.0-13.0-0.56","match_key":"a","participant_id":"16"},{"rt":null,"stimulus":"<p style=\"font-size: 48px;\">+</p>","key_press":null,"block":1,"trial_type":"html-keyboard-response","trial_index":277,"time_elapsed":3900171,"internal_node_id":"0.0-13.0-1.56","match_key":"a","participant_id":"16"},{"rt":662.4150000000373,"stimulus":"Images/motorcycle_2.png","key_press":76,"stim_onset":1581883459128,"block":1,"match_type":"non-match","image_category":"motorcycle","sound_category":"cat","audio_type":"sound","phase":"test","trial_type":"image-keyboard-response","trial_index":278,"time_elapsed":3900834,"internal_node_id":"0.0-13.0-2.56","match_key":"a","participant_id":"16","correct":true},{"rt":null,"stimulus":"Sounds/correct.wav","key_press":null,"block":1,"trial_type":"audio-keyboard-response","trial_index":279,"time_elapsed":3902842,"internal_node_id":"0.0-13.0-3.56","match_key":"a","participant_id":"16"},{"rt":null,"stimulus":"Sounds/cow_sound.wav","key_press":null,"block":1,"trial_type":"audio-keyboard-response","trial_index":280,"time_elapsed":3903858,"internal_node_id":"0.0-13.0-0.57","match_key":"a","participant_id":"16"},{"rt":null,"stimulus":"<p style=\"font-size: 48px;\">+</p>","key_press":null,"block":1,"trial_type":"html-keyboard-response","trial_index":281,"time_elapsed":3904854,"internal_node_id":"0.0-13.0-1.57","match_key":"a","participant_id":"16"},{"rt":851.0750000006519,"stimulus":"Images/cow_2.png","key_press":65,"stim_onset":1581883463811,"block":1,"match_type":"match","image_category":"cow","sound_category":"cow","audio_type":"sound","phase":"test","trial_type":"image-keyboard-response","trial_index":282,"time_elapsed":3905706,"internal_node_id":"0.0-13.0-2.57","match_key":"a","participant_id":"16","correct":true},{"rt":null,"stimulus":"Sounds/correct.wav","key_press":null,"block":1,"trial_type":"audio-keyboard-response","trial_index":283,"time_elapsed":3907709,"internal_node_id":"0.0-13.0-3.57","match_key":"a","participant_id":"16"},{"rt":null,"stimulus":"Sounds/cow_sound.wav","key_press":null,"block":1,"trial_type":"audio-keyboard-response","trial_index":284,"time_elapsed":3908698,"internal_node_id":"0.0-13.0-0.58","match_key":"a","participant_id":"16"},{"rt":null,"stimulus":"<p style=\"font-size: 48px;\">+</p>","key_press":null,"block":1,"trial_type":"html-keyboard-response","trial_index":285,"time_elapsed":3909687,"internal_node_id":"0.0-13.0-1.58","match_key":"a","participant_id":"16"},{"rt":449.7349999998696,"stimulus":"Images/car_2.png","key_press":76,"stim_onset":1581883468644,"block":1,"match_type":"non-match","image_category":"car","sound_category":"cow","audio_type":"sound","phase":"test","trial_type":"image-keyboard-response","trial_index":286,"time_elapsed":3910138,"internal_node_id":"0.0-13.0-2.58","match_key":"a","participant_id":"16","correct":true},{"rt":null,"stimulus":"Sounds/correct.wav","key_press":null,"block":1,"trial_type":"audio-keyboard-response","trial_index":287,"time_elapsed":3912144,"internal_node_id":"0.0-13.0-3.58","match_key":"a","participant_id":"16"},{"rt":null,"stimulus":"Sounds/train_label.wav","key_press":null,"block":1,"trial_type":"audio-keyboard-response","trial_index":288,"time_elapsed":3913418,"internal_node_id":"0.0-13.0-0.59","match_key":"a","participant_id":"16"},{"rt":null,"stimulus":"<p style=\"font-size: 48px;\">+</p>","key_press":null,"block":1,"trial_type":"html-keyboard-response","trial_index":289,"time_elapsed":3914421,"internal_node_id":"0.0-13.0-1.59","match_key":"a","participant_id":"16"},{"rt":524.2200000002049,"stimulus":"Images/cat_cartoon.png","key_press":76,"stim_onset":1581883473378,"block":1,"match_type":"non-match","image_category":"cat","sound_category":"train","audio_type":"label","phase":"test","trial_type":"image-keyboard-response","trial_index":290,"time_elapsed":3914946,"internal_node_id":"0.0-13.0-2.59","match_key":"a","participant_id":"16","correct":true},{"rt":null,"stimulus":"Sounds/correct.wav","key_press":null,"block":1,"trial_type":"audio-keyboard-response","trial_index":291,"time_elapsed":3916958,"internal_node_id":"0.0-13.0-3.59","match_key":"a","participant_id":"16"},{"rt":null,"stimulus":"Sounds/gun_sound.wav","key_press":null,"block":1,"trial_type":"audio-keyboard-response","trial_index":292,"time_elapsed":3917538,"internal_node_id":"0.0-13.0-0.60","match_key":"a","participant_id":"16"},{"rt":null,"stimulus":"<p style=\"font-size: 48px;\">+</p>","key_press":null,"block":1,"trial_type":"html-keyboard-response","trial_index":293,"time_elapsed":3918537,"internal_node_id":"0.0-13.0-1.60","match_key":"a","participant_id":"16"},{"rt":535.3400000003166,"stimulus":"Images/whistle_1.png","key_press":76,"stim_onset":1581883477495,"block":1,"match_type":"non-match","image_category":"whistle","sound_category":"gun","audio_type":"sound","phase":"test","trial_type":"image-keyboard-response","trial_index":294,"time_elapsed":3919074,"internal_node_id":"0.0-13.0-2.60","match_key":"a","participant_id":"16","correct":true},{"rt":null,"stimulus":"Sounds/correct.wav","key_press":null,"block":1,"trial_type":"audio-keyboard-response","trial_index":295,"time_elapsed":3921078,"internal_node_id":"0.0-13.0-3.60","match_key":"a","participant_id":"16"},{"rt":null,"stimulus":"Sounds/car_sound.wav","key_press":null,"block":1,"trial_type":"audio-keyboard-response","trial_index":296,"time_elapsed":3922158,"internal_node_id":"0.0-13.0-0.61","match_key":"a","participant_id":"16"},{"rt":null,"stimulus":"<p style=\"font-size: 48px;\">+</p>","key_press":null,"block":1,"trial_type":"html-keyboard-response","trial_index":297,"time_elapsed":3923154,"internal_node_id":"0.0-13.0-1.61","match_key":"a","participant_id":"16"},{"rt":550.6450000004843,"stimulus":"Images/car_3.png","key_press":65,"stim_onset":1581883482111,"block":1,"match_type":"match","image_category":"car","sound_category":"car","audio_type":"sound","phase":"test","trial_type":"image-keyboard-response","trial_index":298,"time_elapsed":3923706,"internal_node_id":"0.0-13.0-2.61","match_key":"a","participant_id":"16","correct":true},{"rt":null,"stimulus":"Sounds/correct.wav","key_press":null,"block":1,"trial_type":"audio-keyboard-response","trial_index":299,"time_elapsed":3925709,"internal_node_id":"0.0-13.0-3.61","match_key":"a","participant_id":"16"},{"rt":null,"stimulus":"Sounds/cat_sound.wav","key_press":null,"block":1,"trial_type":"audio-keyboard-response","trial_index":300,"time_elapsed":3926558,"internal_node_id":"0.0-13.0-0.62","match_key":"a","participant_id":"16"},{"rt":null,"stimulus":"<p style=\"font-size: 48px;\">+</p>","key_press":null,"block":1,"trial_type":"html-keyboard-response","trial_index":301,"time_elapsed":3927554,"internal_node_id":"0.0-13.0-1.62","match_key":"a","participant_id":"16"},{"rt":630.6350000007078,"stimulus":"Images/dog_2.png","key_press":76,"stim_onset":1581883486511,"block":1,"match_type":"non-match","image_category":"dog","sound_category":"cat","audio_type":"sound","phase":"test","trial_type":"image-keyboard-response","trial_index":302,"time_elapsed":3928186,"internal_node_id":"0.0-13.0-2.62","match_key":"a","participant_id":"16","correct":true},{"rt":null,"stimulus":"Sounds/correct.wav","key_press":null,"block":1,"trial_type":"audio-keyboard-response","trial_index":303,"time_elapsed":3930195,"internal_node_id":"0.0-13.0-3.62","match_key":"a","participant_id":"16"},{"rt":null,"stimulus":"Sounds/dog_label.wav","key_press":null,"block":1,"trial_type":"audio-keyboard-response","trial_index":304,"time_elapsed":3930858,"internal_node_id":"0.0-13.0-0.63","match_key":"a","participant_id":"16"},{"rt":null,"stimulus":"<p style=\"font-size: 48px;\">+</p>","key_press":null,"block":1,"trial_type":"html-keyboard-response","trial_index":305,"time_elapsed":3931854,"internal_node_id":"0.0-13.0-1.63","match_key":"a","participant_id":"16"},{"rt":1138.570000000298,"stimulus":"Images/dog_cartoon.png","key_press":65,"stim_onset":1581883490811,"block":1,"match_type":"match","image_category":"dog","sound_category":"dog","audio_type":"label","phase":"test","trial_type":"image-keyboard-response","trial_index":306,"time_elapsed":3932994,"internal_node_id":"0.0-13.0-2.63","match_key":"a","participant_id":"16","correct":true},{"rt":null,"stimulus":"Sounds/correct.wav","key_press":null,"block":1,"trial_type":"audio-keyboard-response","trial_index":307,"time_elapsed":3935009,"internal_node_id":"0.0-13.0-3.63","match_key":"a","participant_id":"16"},{"rt":null,"stimulus":"Sounds/whistle_label.wav","key_press":null,"block":1,"trial_type":"audio-keyboard-response","trial_index":308,"time_elapsed":3935698,"internal_node_id":"0.0-13.0-0.64","match_key":"a","participant_id":"16"},{"rt":null,"stimulus":"<p style=\"font-size: 48px;\">+</p>","key_press":null,"block":1,"trial_type":"html-keyboard-response","trial_index":309,"time_elapsed":3936688,"internal_node_id":"0.0-13.0-1.64","match_key":"a","participant_id":"16"},{"rt":569.3549999995157,"stimulus":"Images/frog_2.png","key_press":76,"stim_onset":1581883495645,"block":1,"match_type":"non-match","image_category":"frog","sound_category":"whistle","audio_type":"label","phase":"test","trial_type":"image-keyboard-response","trial_index":310,"time_elapsed":3937258,"internal_node_id":"0.0-13.0-2.64","match_key":"a","participant_id":"16","correct":true},{"rt":null,"stimulus":"Sounds/correct.wav","key_press":null,"block":1,"trial_type":"audio-keyboard-response","trial_index":311,"time_elapsed":3939261,"internal_node_id":"0.0-13.0-3.64","match_key":"a","participant_id":"16"},{"rt":null,"stimulus":"Sounds/cow_sound.wav","key_press":null,"block":1,"trial_type":"audio-keyboard-response","trial_index":312,"time_elapsed":3940278,"internal_node_id":"0.0-13.0-0.65","match_key":"a","participant_id":"16"},{"rt":null,"stimulus":"<p style=\"font-size: 48px;\">+</p>","key_press":null,"block":1,"trial_type":"html-keyboard-response","trial_index":313,"time_elapsed":3941271,"internal_node_id":"0.0-13.0-1.65","match_key":"a","participant_id":"16"},{"rt":913.75,"stimulus":"Images/cow_3.png","key_press":65,"stim_onset":1581883500228,"block":1,"match_type":"match","image_category":"cow","sound_category":"cow","audio_type":"sound","phase":"test","trial_type":"image-keyboard-response","trial_index":314,"time_elapsed":3942186,"internal_node_id":"0.0-13.0-2.65","match_key":"a","participant_id":"16","correct":true},{"rt":null,"stimulus":"Sounds/correct.wav","key_press":null,"block":1,"trial_type":"audio-keyboard-response","trial_index":315,"time_elapsed":3944195,"internal_node_id":"0.0-13.0-3.65","match_key":"a","participant_id":"16"},{"rt":null,"stimulus":"Sounds/cat_label.wav","key_press":null,"block":1,"trial_type":"audio-keyboard-response","trial_index":316,"time_elapsed":3945038,"internal_node_id":"0.0-13.0-0.66","match_key":"a","participant_id":"16"},{"rt":null,"stimulus":"<p style=\"font-size: 48px;\">+</p>","key_press":null,"block":1,"trial_type":"html-keyboard-response","trial_index":317,"time_elapsed":3946038,"internal_node_id":"0.0-13.0-1.66","match_key":"a","participant_id":"16"},{"rt":603.1499999999069,"stimulus":"Images/cat_1.png","key_press":65,"stim_onset":1581883504995,"block":1,"match_type":"match","image_category":"cat","sound_category":"cat","audio_type":"label","phase":"test","trial_type":"image-keyboard-response","trial_index":318,"time_elapsed":3946643,"internal_node_id":"0.0-13.0-2.66","match_key":"a","participant_id":"16","correct":true},{"rt":null,"stimulus":"Sounds/correct.wav","key_press":null,"block":1,"trial_type":"audio-keyboard-response","trial_index":319,"time_elapsed":3948645,"internal_node_id":"0.0-13.0-3.66","match_key":"a","participant_id":"16"},{"rt":null,"stimulus":"Sounds/motorcycle_sound.wav","key_press":null,"block":1,"trial_type":"audio-keyboard-response","trial_index":320,"time_elapsed":3949758,"internal_node_id":"0.0-13.0-0.67","match_key":"a","participant_id":"16"},{"rt":null,"stimulus":"<p style=\"font-size: 48px;\">+</p>","key_press":null,"block":1,"trial_type":"html-keyboard-response","trial_index":321,"time_elapsed":3950755,"internal_node_id":"0.0-13.0-1.67","match_key":"a","participant_id":"16"},{"rt":878.75,"stimulus":"Images/motorcycle_3.png","key_press":65,"stim_onset":1581883509712,"block":1,"match_type":"match","image_category":"motorcycle","sound_category":"motorcycle","audio_type":"sound","phase":"test","trial_type":"image-keyboard-response","trial_index":322,"time_elapsed":3951635,"internal_node_id":"0.0-13.0-2.67","match_key":"a","participant_id":"16","correct":true},{"rt":null,"stimulus":"Sounds/correct.wav","key_press":null,"block":1,"trial_type":"audio-keyboard-response","trial_index":323,"time_elapsed":3953645,"internal_node_id":"0.0-13.0-3.67","match_key":"a","participant_id":"16"},{"rt":null,"stimulus":"Sounds/dog_sound.wav","key_press":null,"block":1,"trial_type":"audio-keyboard-response","trial_index":324,"time_elapsed":3954358,"internal_node_id":"0.0-13.0-0.68","match_key":"a","participant_id":"16"},{"rt":null,"stimulus":"<p style=\"font-size: 48px;\">+</p>","key_press":null,"block":1,"trial_type":"html-keyboard-response","trial_index":325,"time_elapsed":3955355,"internal_node_id":"0.0-13.0-1.68","match_key":"a","participant_id":"16"},{"rt":502.26999999955297,"stimulus":"Images/frog_1.png","key_press":76,"stim_onset":1581883514312,"block":1,"match_type":"non-match","image_category":"frog","sound_category":"dog","audio_type":"sound","phase":"test","trial_type":"image-keyboard-response","trial_index":326,"time_elapsed":3955859,"internal_node_id":"0.0-13.0-2.68","match_key":"a","participant_id":"16","correct":true},{"rt":null,"stimulus":"Sounds/correct.wav","key_press":null,"block":1,"trial_type":"audio-keyboard-response","trial_index":327,"time_elapsed":3957862,"internal_node_id":"0.0-13.0-3.68","match_key":"a","participant_id":"16"},{"rt":null,"stimulus":"Sounds/car_label.wav","key_press":null,"block":1,"trial_type":"audio-keyboard-response","trial_index":328,"time_elapsed":3958938,"internal_node_id":"0.0-13.0-0.69","match_key":"a","participant_id":"16"},{"rt":null,"stimulus":"<p style=\"font-size: 48px;\">+</p>","key_press":null,"block":1,"trial_type":"html-keyboard-response","trial_index":329,"time_elapsed":3959939,"internal_node_id":"0.0-13.0-1.69","match_key":"a","participant_id":"16"},{"rt":623.0049999994226,"stimulus":"Images/train_2.png","key_press":76,"stim_onset":1581883518896,"block":1,"match_type":"non-match","image_category":"train","sound_category":"car","audio_type":"label","phase":"test","trial_type":"image-keyboard-response","trial_index":330,"time_elapsed":3960563,"internal_node_id":"0.0-13.0-2.69","match_key":"a","participant_id":"16","correct":true},{"rt":null,"stimulus":"Sounds/correct.wav","key_press":null,"block":1,"trial_type":"audio-keyboard-response","trial_index":331,"time_elapsed":3962576,"internal_node_id":"0.0-13.0-3.69","match_key":"a","participant_id":"16"},{"rt":null,"stimulus":"Sounds/rooster_label.wav","key_press":null,"block":1,"trial_type":"audio-keyboard-response","trial_index":332,"time_elapsed":3963278,"internal_node_id":"0.0-13.0-0.70","match_key":"a","participant_id":"16"},{"rt":null,"stimulus":"<p style=\"font-size: 48px;\">+</p>","key_press":null,"block":1,"trial_type":"html-keyboard-response","trial_index":333,"time_elapsed":3964272,"internal_node_id":"0.0-13.0-1.70","match_key":"a","participant_id":"16"},{"rt":713.9049999993294,"stimulus":"Images/car_orig.png","key_press":76,"stim_onset":1581883523229,"block":1,"match_type":"non-match","image_category":"car","sound_category":"rooster","audio_type":"label","phase":"test","trial_type":"image-keyboard-response","trial_index":334,"time_elapsed":3964987,"internal_node_id":"0.0-13.0-2.70","match_key":"a","participant_id":"16","correct":true},{"rt":null,"stimulus":"Sounds/correct.wav","key_press":null,"block":1,"trial_type":"audio-keyboard-response","trial_index":335,"time_elapsed":3966994,"internal_node_id":"0.0-13.0-3.70","match_key":"a","participant_id":"16"},{"rt":null,"stimulus":"Sounds/train_sound.wav","key_press":null,"block":1,"trial_type":"audio-keyboard-response","trial_index":336,"time_elapsed":3968298,"internal_node_id":"0.0-13.0-0.71","match_key":"a","participant_id":"16"},{"rt":null,"stimulus":"<p style=\"font-size: 48px;\">+</p>","key_press":null,"block":1,"trial_type":"html-keyboard-response","trial_index":337,"time_elapsed":3969289,"internal_node_id":"0.0-13.0-1.71","match_key":"a","participant_id":"16"},{"rt":864.8850000011735,"stimulus":"Images/rooster_2.png","key_press":76,"stim_onset":1581883528246,"block":1,"match_type":"non-match","image_category":"rooster","sound_category":"train","audio_type":"sound","phase":"test","trial_type":"image-keyboard-response","trial_index":338,"time_elapsed":3970155,"internal_node_id":"0.0-13.0-2.71","match_key":"a","participant_id":"16","correct":true},{"rt":null,"stimulus":"Sounds/correct.wav","key_press":null,"block":1,"trial_type":"audio-keyboard-response","trial_index":339,"time_elapsed":3972161,"internal_node_id":"0.0-13.0-3.71","match_key":"a","participant_id":"16"},{"rt":null,"stimulus":"Sounds/motorcycle_label.wav","key_press":null,"block":1,"trial_type":"audio-keyboard-response","trial_index":340,"time_elapsed":3973298,"internal_node_id":"0.0-13.0-0.72","match_key":"a","participant_id":"16"},{"rt":null,"stimulus":"<p style=\"font-size: 48px;\">+</p>","key_press":null,"block":1,"trial_type":"html-keyboard-response","trial_index":341,"time_elapsed":3974289,"internal_node_id":"0.0-13.0-1.72","match_key":"a","participant_id":"16"},{"rt":649.0200000000186,"stimulus":"Images/cat_orig.png","key_press":76,"stim_onset":1581883533246,"block":1,"match_type":"non-match","image_category":"cat","sound_category":"motorcycle","audio_type":"label","phase":"test","trial_type":"image-keyboard-response","trial_index":342,"time_elapsed":3974939,"internal_node_id":"0.0-13.0-2.72","match_key":"a","participant_id":"16","correct":true},{"rt":null,"stimulus":"Sounds/correct.wav","key_press":null,"block":1,"trial_type":"audio-keyboard-response","trial_index":343,"time_elapsed":3976944,"internal_node_id":"0.0-13.0-3.72","match_key":"a","participant_id":"16"},{"rt":null,"stimulus":"Sounds/rooster_label.wav","key_press":null,"block":1,"trial_type":"audio-keyboard-response","trial_index":344,"time_elapsed":3977618,"internal_node_id":"0.0-13.0-0.73","match_key":"a","participant_id":"16"},{"rt":null,"stimulus":"<p style=\"font-size: 48px;\">+</p>","key_press":null,"block":1,"trial_type":"html-keyboard-response","trial_index":345,"time_elapsed":3978622,"internal_node_id":"0.0-13.0-1.73","match_key":"a","participant_id":"16"},{"rt":547.4049999993294,"stimulus":"Images/rooster_1.png","key_press":65,"stim_onset":1581883537579,"block":1,"match_type":"match","image_category":"rooster","sound_category":"rooster","audio_type":"label","phase":"test","trial_type":"image-keyboard-response","trial_index":346,"time_elapsed":3979171,"internal_node_id":"0.0-13.0-2.73","match_key":"a","participant_id":"16","correct":true},{"rt":null,"stimulus":"Sounds/correct.wav","key_press":null,"block":1,"trial_type":"audio-keyboard-response","trial_index":347,"time_elapsed":3981181,"internal_node_id":"0.0-13.0-3.73","match_key":"a","participant_id":"16"},{"rt":null,"stimulus":"Sounds/cow_sound.wav","key_press":null,"block":1,"trial_type":"audio-keyboard-response","trial_index":348,"time_elapsed":3982198,"internal_node_id":"0.0-13.0-0.74","match_key":"a","participant_id":"16"},{"rt":null,"stimulus":"<p style=\"font-size: 48px;\">+</p>","key_press":null,"block":1,"trial_type":"html-keyboard-response","trial_index":349,"time_elapsed":3983189,"internal_node_id":"0.0-13.0-1.74","match_key":"a","participant_id":"16"},{"rt":916.6450000004843,"stimulus":"Images/cow_orig.png","key_press":65,"stim_onset":1581883542146,"block":1,"match_type":"match","image_category":"cow","sound_category":"cow","audio_type":"sound","phase":"test","trial_type":"image-keyboard-response","trial_index":350,"time_elapsed":3984106,"internal_node_id":"0.0-13.0-2.74","match_key":"a","participant_id":"16","correct":true},{"rt":null,"stimulus":"Sounds/correct.wav","key_press":null,"block":1,"trial_type":"audio-keyboard-response","trial_index":351,"time_elapsed":3986111,"internal_node_id":"0.0-13.0-3.74","match_key":"a","participant_id":"16"},{"rt":null,"stimulus":"Sounds/cow_label.wav","key_press":null,"block":1,"trial_type":"audio-keyboard-response","trial_index":352,"time_elapsed":3987138,"internal_node_id":"0.0-13.0-0.75","match_key":"a","participant_id":"16"},{"rt":null,"stimulus":"<p style=\"font-size: 48px;\">+</p>","key_press":null,"block":1,"trial_type":"html-keyboard-response","trial_index":353,"time_elapsed":3988139,"internal_node_id":"0.0-13.0-1.75","match_key":"a","participant_id":"16"},{"rt":533.6800000006333,"stimulus":"Images/cow_cartoon.png","key_press":65,"stim_onset":1581883547096,"block":1,"match_type":"match","image_category":"cow","sound_category":"cow","audio_type":"label","phase":"test","trial_type":"image-keyboard-response","trial_index":354,"time_elapsed":3988675,"internal_node_id":"0.0-13.0-2.75","match_key":"a","participant_id":"16","correct":true},{"rt":null,"stimulus":"Sounds/correct.wav","key_press":null,"block":1,"trial_type":"audio-keyboard-response","trial_index":355,"time_elapsed":3990678,"internal_node_id":"0.0-13.0-3.75","match_key":"a","participant_id":"16"},{"rt":null,"stimulus":"Sounds/dog_label.wav","key_press":null,"block":1,"trial_type":"audio-keyboard-response","trial_index":356,"time_elapsed":3991338,"internal_node_id":"0.0-13.0-0.76","match_key":"a","participant_id":"16"},{"rt":null,"stimulus":"<p style=\"font-size: 48px;\">+</p>","key_press":null,"block":1,"trial_type":"html-keyboard-response","trial_index":357,"time_elapsed":3992339,"internal_node_id":"0.0-13.0-1.76","match_key":"a","participant_id":"16"},{"rt":718.8800000003539,"stimulus":"Images/cow_3.png","key_press":65,"stim_onset":1581883551296,"block":1,"match_type":"non-match","image_category":"cow","sound_category":"dog","audio_type":"label","phase":"test","trial_type":"image-keyboard-response","trial_index":358,"time_elapsed":3993059,"internal_node_id":"0.0-13.0-2.76","match_key":"a","participant_id":"16","correct":false},{"rt":null,"stimulus":"Sounds/incorrect.wav","key_press":null,"block":1,"trial_type":"audio-keyboard-response","trial_index":359,"time_elapsed":3995063,"internal_node_id":"0.0-13.0-3.76","match_key":"a","participant_id":"16"},{"rt":null,"stimulus":"Sounds/cow_sound.wav","key_press":null,"block":1,"trial_type":"audio-keyboard-response","trial_index":360,"time_elapsed":3996058,"internal_node_id":"0.0-13.0-0.77","match_key":"a","participant_id":"16"},{"rt":null,"stimulus":"<p style=\"font-size: 48px;\">+</p>","key_press":null,"block":1,"trial_type":"html-keyboard-response","trial_index":361,"time_elapsed":3997056,"internal_node_id":"0.0-13.0-1.77","match_key":"a","participant_id":"16"},{"rt":786.0149999996647,"stimulus":"Images/gun_2.png","key_press":76,"stim_onset":1581883556013,"block":1,"match_type":"non-match","image_category":"gun","sound_category":"cow","audio_type":"sound","phase":"test","trial_type":"image-keyboard-response","trial_index":362,"time_elapsed":3997843,"internal_node_id":"0.0-13.0-2.77","match_key":"a","participant_id":"16","correct":true},{"rt":null,"stimulus":"Sounds/correct.wav","key_press":null,"block":1,"trial_type":"audio-keyboard-response","trial_index":363,"time_elapsed":3999860,"internal_node_id":"0.0-13.0-3.77","match_key":"a","participant_id":"16"},{"rt":null,"stimulus":"Sounds/cat_label.wav","key_press":null,"block":1,"trial_type":"audio-keyboard-response","trial_index":364,"time_elapsed":4000698,"internal_node_id":"0.0-13.0-0.78","match_key":"a","participant_id":"16"},{"rt":null,"stimulus":"<p style=\"font-size: 48px;\">+</p>","key_press":null,"block":1,"trial_type":"html-keyboard-response","trial_index":365,"time_elapsed":4001689,"internal_node_id":"0.0-13.0-1.78","match_key":"a","participant_id":"16"},{"rt":704.4850000003353,"stimulus":"Images/cat_cartoon.png","key_