"rt","responses","trial_type","trial_index","time_elapsed","internal_node_id","match_key","participant_id","stimulus","key_press","block","stim_onset","match_type","image_category","sound_category","audio_type","phase","correct"
"7907.985000056215","{""Q0"":""COGS219_2020_34""}","survey-text","0","7935","0.0-0.0","a","COGS219_2020_34","","","","","","","","","",""
"69613.47999994177","","html-keyboard-response","1","77547","0.0-1.0","a","COGS219_2020_34","<p>Use KEYBOARD 2 (match LEFT)</p><p>Press MATCH to continue.</p>","65","","","","","","","",""
"1391908.6349999998","","html-keyboard-response","2","1469476","0.0-2.0","a","COGS219_2020_34","<p>Welcome to the experiment.</p>","32","","","","","","","",""
"52513.14499997534","","html-keyboard-response","3","1521996","0.0-3.0","a","COGS219_2020_34","<p>Thank you for agreeing to participate in this study.</p><p>If during any part of the procedure you must stop for any reason, please inform the researcher that you do not wish to continue.</p>","32","","","","","","","",""
"18638.2750000339","","html-keyboard-response","4","1540636","0.0-4.0","a","COGS219_2020_34","<p>In this experiment, you will hear various words or sounds and see pictures of various animals and objects.</p><p>Most of the images will be of common everyday objects, such as cars, cats, cows, firearms, frogs, chickens, whistles, trains, motorcycles, and dogs.</p><p>Some of the images will be real-life stills, while others will be cartoons.</p>","32","","","","","","","",""
"14183.059999952093","","html-keyboard-response","5","1554820","0.0-5.0","a","COGS219_2020_34","<p>Sometimes, the word/sound will match the picture, for example you'll hear a meowing sound and see a cat.</p><p>Other times, the picture will not match the sound or word.</p><p>Your task is to decide as quickly as possible if the word/sound matches the picture or not. </p>","32","","","","","","","",""
"12366.674999939278","","html-keyboard-response","6","1567188","0.0-6.0","a","COGS219_2020_34","<p>For example, if you hear the word ""cat"" or hear a meowing sound, and then see a picture of a cat, you should press the MATCH key.</p><p> If the sound and image do not match, press the NOT-MATCH key to indicate that there is not a match.</p>","32","","","","","","","",""
"11230.835000053048","","html-keyboard-response","7","1578419","0.0-7.0","a","COGS219_2020_34","<p>If you make a mistake, you will hear a buzzing sound instead of a more pleasant sound.</p><p> Try to respond as quickly as possible, while making as few errors as possible. If you are making mistakes, you are probably rushing.</p>","32","","","","","","","",""
"10734.515000018291","","html-keyboard-response","8","1589155","0.0-8.0","a","COGS219_2020_34","<p>Please try to not move or blink your eyes during the presentation of the images. You can move and blink between images.</p><p>During the experiment there will be some breaks during which you can rest your eyes.</p>","32","","","","","","","",""
"6734.6599999582395","","html-keyboard-response","9","1595891","0.0-9.0","a","COGS219_2020_34","<p>We will begin with 10 practice trials. Please let the experimenter know if you have any questions.</p>","32","","","","","","","",""
"null","","audio-keyboard-response","10","1596551","0.0-10.0-0.0","a","COGS219_2020_34","Sounds/gun_sound.wav","null","0","","","","","","",""
"null","","html-keyboard-response","11","1597544","0.0-10.0-1.0","a","COGS219_2020_34","<p style=""font-size: 48px;"">+</p>","null","0","","","","","","",""
"1360.0300000980496","","image-keyboard-response","12","1598907","0.0-10.0-2.0","a","COGS219_2020_34","Images/gun_3.png","65","0","1583009317138","match","gun","gun","sound","practice","true"
"null","","audio-keyboard-response","13","1600921","0.0-10.0-3.0","a","COGS219_2020_34","Sounds/correct.wav","null","0","","","","","","",""
"null","","audio-keyboard-response","14","1602010","0.0-10.0-0.1","a","COGS219_2020_34","Sounds/car_label.wav","null","0","","","","","","",""
"null","","html-keyboard-response","15","1603027","0.0-10.0-1.1","a","COGS219_2020_34","<p style=""font-size: 48px;"">+</p>","null","0","","","","","","",""
"1637.8299999050796","","image-keyboard-response","16","1604667","0.0-10.0-2.1","a","COGS219_2020_34","Images/motorcycle_2.png","76","0","1583009322621","non-match","motorcycle","car","label","practice","true"
"null","","audio-keyboard-response","17","1606684","0.0-10.0-3.1","a","COGS219_2020_34","Sounds/correct.wav","null","0","","","","","","",""
"null","","audio-keyboard-response","18","1607270","0.0-10.0-0.2","a","COGS219_2020_34","Sounds/gun_label.wav","null","0","","","","","","",""
"null","","html-keyboard-response","19","1608261","0.0-10.0-1.2","a","COGS219_2020_34","<p style=""font-size: 48px;"">+</p>","null","0","","","","","","",""
"883.9000000152737","","image-keyboard-response","20","1609146","0.0-10.0-2.2","a","COGS219_2020_34","Images/motorcycle_1.png","76","0","1583009327854","non-match","motorcycle","gun","label","practice","true"
"null","","audio-keyboard-response","21","1611149","0.0-10.0-3.2","a","COGS219_2020_34","Sounds/correct.wav","null","0","","","","","","",""
"null","","audio-keyboard-response","22","1612210","0.0-10.0-0.3","a","COGS219_2020_34","Sounds/car_label.wav","null","0","","","","","","",""
"null","","html-keyboard-response","23","1613228","0.0-10.0-1.3","a","COGS219_2020_34","<p style=""font-size: 48px;"">+</p>","null","0","","","","","","",""
"2597.509999992326","","image-keyboard-response","24","1615827","0.0-10.0-2.3","a","COGS219_2020_34","Images/car_cartoon.png","76","0","1583009332821","match","car","car","label","practice","false"
"null","","audio-keyboard-response","25","1617838","0.0-10.0-3.3","a","COGS219_2020_34","Sounds/incorrect.wav","null","0","","","","","","",""
"null","","audio-keyboard-response","26","1618510","0.0-10.0-0.4","a","COGS219_2020_34","Sounds/dog_label.wav","null","0","","","","","","",""
"null","","html-keyboard-response","27","1619528","0.0-10.0-1.4","a","COGS219_2020_34","<p style=""font-size: 48px;"">+</p>","null","0","","","","","","",""
"1185.3750000009313","","image-keyboard-response","28","1620714","0.0-10.0-2.4","a","COGS219_2020_34","Images/motorcycle_3.png","76","0","1583009339124","non-match","motorcycle","dog","label","practice","true"
"null","","audio-keyboard-response","29","1622718","0.0-10.0-3.4","a","COGS219_2020_34","Sounds/correct.wav","null","0","","","","","","",""
"null","","audio-keyboard-response","30","1623731","0.0-10.0-0.5","a","COGS219_2020_34","Sounds/cow_label.wav","null","0","","","","","","",""
"null","","html-keyboard-response","31","1624728","0.0-10.0-1.5","a","COGS219_2020_34","<p style=""font-size: 48px;"">+</p>","null","0","","","","","","",""
"1313.3149999193847","","image-keyboard-response","32","1626042","0.0-10.0-2.5","a","COGS219_2020_34","Images/cow_1.png","65","0","1583009344321","match","cow","cow","label","practice","true"
"null","","audio-keyboard-response","33","1628052","0.0-10.0-3.5","a","COGS219_2020_34","Sounds/correct.wav","null","0","","","","","","",""
"null","","audio-keyboard-response","34","1628750","0.0-10.0-0.6","a","COGS219_2020_34","Sounds/whistle_sound.wav","null","0","","","","","","",""
"null","","html-keyboard-response","35","1629745","0.0-10.0-1.6","a","COGS219_2020_34","<p style=""font-size: 48px;"">+</p>","null","0","","","","","","",""
"1160.440000006929","","image-keyboard-response","36","1630906","0.0-10.0-2.6","a","COGS219_2020_34","Images/gun_3.png","76","0","1583009349338","non-match","gun","whistle","sound","practice","true"
"null","","audio-keyboard-response","37","1632916","0.0-10.0-3.6","a","COGS219_2020_34","Sounds/correct.wav","null","0","","","","","","",""
"null","","audio-keyboard-response","38","1634191","0.0-10.0-0.7","a","COGS219_2020_34","Sounds/train_label.wav","null","0","","","","","","",""
"null","","html-keyboard-response","39","1635195","0.0-10.0-1.7","a","COGS219_2020_34","<p style=""font-size: 48px;"">+</p>","null","0","","","","","","",""
"1214.710000087507","","image-keyboard-response","40","1636411","0.0-10.0-2.7","a","COGS219_2020_34","Images/frog_1.png","76","0","1583009354788","non-match","frog","train","label","practice","true"
"null","","audio-keyboard-response","41","1638423","0.0-10.0-3.7","a","COGS219_2020_34","Sounds/correct.wav","null","0","","","","","","",""
"null","","audio-keyboard-response","42","1639331","0.0-10.0-0.8","a","COGS219_2020_34","Sounds/frog_sound.wav","null","0","","","","","","",""
"null","","html-keyboard-response","43","1640329","0.0-10.0-1.8","a","COGS219_2020_34","<p style=""font-size: 48px;"">+</p>","null","0","","","","","","",""
"897.1000000601634","","image-keyboard-response","44","1641227","0.0-10.0-2.8","a","COGS219_2020_34","Images/motorcycle_orig.png","76","0","1583009359922","non-match","motorcycle","frog","sound","practice","true"
"null","","audio-keyboard-response","45","1643234","0.0-10.0-3.8","a","COGS219_2020_34","Sounds/correct.wav","null","0","","","","","","",""
"null","","audio-keyboard-response","46","1644252","0.0-10.0-0.9","a","COGS219_2020_34","Sounds/cow_sound.wav","null","0","","","","","","",""
"null","","html-keyboard-response","47","1645246","0.0-10.0-1.9","a","COGS219_2020_34","<p style=""font-size: 48px;"">+</p>","null","0","","","","","","",""
"1284.5050001051277","","image-keyboard-response","48","1646531","0.0-10.0-2.9","a","COGS219_2020_34","Images/cow_2.png","65","0","1583009364839","match","cow","cow","sound","practice","true"
"null","","audio-keyboard-response","49","1648535","0.0-10.0-3.9","a","COGS219_2020_34","Sounds/correct.wav","null","0","","","","","","",""
"20187.604999984615","","html-keyboard-response","50","1668724","0.0-11.0","a","COGS219_2020_34","<p>The rest of the experiment is divided into five blocks with 100 trials in each block. It will take about 45 minutes to complete.</p><p>The experimenter will be in the outer room and you can communicate with them through the monitor if you have any questions or wish to stop the experiment.</p>","32","","","","","","","",""
"18038.599999970756","","html-keyboard-response","51","1686764","0.0-12.0","a","COGS219_2020_34","<p>Remember, please try not to move or blink your eyes during the presentation of the images. </p><p>At the end of the experiment, we will show you your scores on the task so you can see how you did.</p><p>The experiment will start on the next screen.</p>","32","","","","","","","",""
"null","","audio-keyboard-response","52","1689806","0.0-13.0-0.0","a","COGS219_2020_34","Sounds/cow_sound.wav","null","1","","","","","","",""
"null","","html-keyboard-response","53","1690796","0.0-13.0-1.0","a","COGS219_2020_34","<p style=""font-size: 48px;"">+</p>","null","1","","","","","","",""
"1021.9349999679253","","image-keyboard-response","54","1691819","0.0-13.0-2.0","a","COGS219_2020_34","Images/dog_3.png","76","1","1583009410389","non-match","dog","cow","sound","test","true"
"null","","audio-keyboard-response","55","1693834","0.0-13.0-3.0","a","COGS219_2020_34","Sounds/correct.wav","null","1","","","","","","",""
"null","","audio-keyboard-response","56","1694747","0.0-13.0-0.1","a","COGS219_2020_34","Sounds/frog_sound.wav","null","1","","","","","","",""
"null","","html-keyboard-response","57","1695746","0.0-13.0-1.1","a","COGS219_2020_34","<p style=""font-size: 48px;"">+</p>","null","1","","","","","","",""
"1376.0199999669567","","image-keyboard-response","58","1697123","0.0-13.0-2.1","a","COGS219_2020_34","Images/gun_2.png","76","1","1583009415339","non-match","gun","frog","sound","test","true"
"null","","audio-keyboard-response","59","1699135","0.0-13.0-3.1","a","COGS219_2020_34","Sounds/correct.wav","null","1","","","","","","",""
"null","","audio-keyboard-response","60","1700026","0.0-13.0-0.2","a","COGS219_2020_34","Sounds/frog_sound.wav","null","1","","","","","","",""
"null","","html-keyboard-response","61","1701030","0.0-13.0-1.2","a","COGS219_2020_34","<p style=""font-size: 48px;"">+</p>","null","1","","","","","","",""
"1036.1399999819696","","image-keyboard-response","62","1702068","0.0-13.0-2.2","a","COGS219_2020_34","Images/rooster_3.png","76","1","1583009420623","non-match","rooster","frog","sound","test","true"
"null","","audio-keyboard-response","63","1704078","0.0-13.0-3.2","a","COGS219_2020_34","Sounds/correct.wav","null","1","","","","","","",""
"null","","audio-keyboard-response","64","1704786","0.0-13.0-0.3","a","COGS219_2020_34","Sounds/rooster_label.wav","null","1","","","","","","",""
"null","","html-keyboard-response","65","1705780","0.0-13.0-1.3","a","COGS219_2020_34","<p style=""font-size: 48px;"">+</p>","null","1","","","","","","",""
"766.4299999596551","","image-keyboard-response","66","1706548","0.0-13.0-2.3","a","COGS219_2020_34","Images/gun_1.png","76","1","1583009425373","non-match","gun","rooster","label","test","true"
"null","","audio-keyboard-response","67","1708555","0.0-13.0-3.3","a","COGS219_2020_34","Sounds/correct.wav","null","1","","","","","","",""
"null","","audio-keyboard-response","68","1709126","0.0-13.0-0.4","a","COGS219_2020_34","Sounds/gun_sound.wav","null","1","","","","","","",""
"null","","html-keyboard-response","69","1710130","0.0-13.0-1.4","a","COGS219_2020_34","<p style=""font-size: 48px;"">+</p>","null","1","","","","","","",""
"656.5900000277907","","image-keyboard-response","70","1710788","0.0-13.0-2.4","a","COGS219_2020_34","Images/frog_cartoon.png","76","1","1583009429723","non-match","frog","gun","sound","test","true"
"null","","audio-keyboard-response","71","1712800","0.0-13.0-3.4","a","COGS219_2020_34","Sounds/correct.wav","null","1","","","","","","",""
"null","","audio-keyboard-response","72","1713826","0.0-13.0-0.5","a","COGS219_2020_34","Sounds/cow_sound.wav","null","1","","","","","","",""
"null","","html-keyboard-response","73","1714830","0.0-13.0-1.5","a","COGS219_2020_34","<p style=""font-size: 48px;"">+</p>","null","1","","","","","","",""
"1004.4350000098348","","image-keyboard-response","74","1715835","0.0-13.0-2.5","a","COGS219_2020_34","Images/cow_orig.png","65","1","1583009434423","match","cow","cow","sound","test","true"
"null","","audio-keyboard-response","75","1717851","0.0-13.0-3.5","a","COGS219_2020_34","Sounds/correct.wav","null","1","","","","","","",""
"null","","audio-keyboard-response","76","1718566","0.0-13.0-0.6","a","COGS219_2020_34","Sounds/dog_sound.wav","null","1","","","","","","",""
"null","","html-keyboard-response","77","1719563","0.0-13.0-1.6","a","COGS219_2020_34","<p style=""font-size: 48px;"">+</p>","null","1","","","","","","",""
"935.230000060983","","image-keyboard-response","78","1720500","0.0-13.0-2.6","a","COGS219_2020_34","Images/whistle_1.png","76","1","1583009439157","non-match","whistle","dog","sound","test","true"
"null","","audio-keyboard-response","79","1722517","0.0-13.0-3.6","a","COGS219_2020_34","Sounds/correct.wav","null","1","","","","","","",""
"null","","audio-keyboard-response","80","1723606","0.0-13.0-0.7","a","COGS219_2020_34","Sounds/car_label.wav","null","1","","","","","","",""
"null","","html-keyboard-response","81","1724597","0.0-13.0-1.7","a","COGS219_2020_34","<p style=""font-size: 48px;"">+</p>","null","1","","","","","","",""
"1261.6949999937788","","image-keyboard-response","82","1725860","0.0-13.0-2.7","a","COGS219_2020_34","Images/car_3.png","65","1","1583009444190","match","car","car","label","test","true"
"null","","audio-keyboard-response","83","1727870","0.0-13.0-3.7","a","COGS219_2020_34","Sounds/correct.wav","null","1","","","","","","",""
"null","","audio-keyboard-response","84","1729146","0.0-13.0-0.8","a","COGS219_2020_34","Sounds/train_label.wav","null","1","","","","","","",""
"null","","html-keyboard-response","85","1730163","0.0-13.0-1.8","a","COGS219_2020_34","<p style=""font-size: 48px;"">+</p>","null","1","","","","","","",""
"926.8099999753758","","image-keyboard-response","86","1731091","0.0-13.0-2.8","a","COGS219_2020_34","Images/rooster_1.png","76","1","1583009449757","non-match","rooster","train","label","test","true"
"null","","audio-keyboard-response","87","1733103","0.0-13.0-3.8","a","COGS219_2020_34","Sounds/correct.wav","null","1","","","","","","",""
"null","","audio-keyboard-response","88","1734006","0.0-13.0-0.9","a","COGS219_2020_34","Sounds/frog_label.wav","null","1","","","","","","",""
"null","","html-keyboard-response","89","1734997","0.0-13.0-1.9","a","COGS219_2020_34","<p style=""font-size: 48px;"">+</p>","null","1","","","","","","",""
"1309.6549999900162","","image-keyboard-response","90","1736308","0.0-13.0-2.9","a","COGS219_2020_34","Images/dog_1.png","76","1","1583009454590","non-match","dog","frog","label","test","true"
"null","","audio-keyboard-response","91","1738322","0.0-13.0-3.9","a","COGS219_2020_34","Sounds/correct.wav","null","1","","","","","","",""
"null","","audio-keyboard-response","92","1739226","0.0-13.0-0.10","a","COGS219_2020_34","Sounds/frog_sound.wav","null","1","","","","","","",""
"null","","html-keyboard-response","93","1740230","0.0-13.0-1.10","a","COGS219_2020_34","<p style=""font-size: 48px;"">+</p>","null","1","","","","","","",""
"1283.8100000517443","","image-keyboard-response","94","1741515","0.0-13.0-2.10","a","COGS219_2020_34","Images/frog_orig.png","65","1","1583009459823","match","frog","frog","sound","test","true"
"null","","audio-keyboard-response","95","1743531","0.0-13.0-3.10","a","COGS219_2020_34","Sounds/correct.wav","null","1","","","","","","",""
"null","","audio-keyboard-response","96","1744246","0.0-13.0-0.11","a","COGS219_2020_34","Sounds/dog_sound.wav","null","1","","","","","","",""
"null","","html-keyboard-response","97","1745263","0.0-13.0-1.11","a","COGS219_2020_34","<p style=""font-size: 48px;"">+</p>","null","1","","","","","","",""
"1875.3550000255927","","image-keyboard-response","98","1747140","0.0-13.0-2.11","a","COGS219_2020_34","Images/dog_1.png","65","1","1583009464857","match","dog","dog","sound","test","true"
"null","","audio-keyboard-response","99","1749154","0.0-13.0-3.11","a","COGS219_2020_34","Sounds/correct.wav","null","1","","","","","","",""
"null","","audio-keyboard-response","100","1749846","0.0-13.0-0.12","a","COGS219_2020_34","Sounds/dog_sound.wav","null","1","","","","","","",""
"null","","html-keyboard-response","101","1750864","0.0-13.0-1.12","a","COGS219_2020_34","<p style=""font-size: 48px;"">+</p>","null","1","","","","","","",""
"946.6249999823049","","image-keyboard-response","102","1751811","0.0-13.0-2.12","a","COGS219_2020_34","Images/dog_3.png","65","1","1583009470457","match","dog","dog","sound","test","true"
"null","","audio-keyboard-response","103","1753819","0.0-13.0-3.12","a","COGS219_2020_34","Sounds/correct.wav","null","1","","","","","","",""
"null","","audio-keyboard-response","104","1754666","0.0-13.0-0.13","a","COGS219_2020_34","Sounds/cat_label.wav","null","1","","","","","","",""
"null","","html-keyboard-response","105","1755664","0.0-13.0-1.13","a","COGS219_2020_34","<p style=""font-size: 48px;"">+</p>","null","1","","","","","","",""
"1010.7549999374896","","image-keyboard-response","106","1756676","0.0-13.0-2.13","a","COGS219_2020_34","Images/whistle_orig.png","76","1","1583009475257","non-match","whistle","cat","label","test","true"
"null","","audio-keyboard-response","107","1758686","0.0-13.0-3.13","a","COGS219_2020_34","Sounds/correct.wav","null","1","","","","","","",""
"null","","audio-keyboard-response","108","1759986","0.0-13.0-0.14","a","COGS219_2020_34","Sounds/train_label.wav","null","1","","","","","","",""
"null","","html-keyboard-response","109","1760980","0.0-13.0-1.14","a","COGS219_2020_34","<p style=""font-size: 48px;"">+</p>","null","1","","","","","","",""
"1126.1950000189245","","image-keyboard-response","110","1762108","0.0-13.0-2.14","a","COGS219_2020_34","Images/train_orig.png","65","1","1583009480574","match","train","train","label","test","true"
"null","","audio-keyboard-response","111","1764117","0.0-13.0-3.14","a","COGS219_2020_34","Sounds/correct.wav","null","1","","","","","","",""
"null","","audio-keyboard-response","112","1764806","0.0-13.0-0.15","a","COGS219_2020_34","Sounds/dog_sound.wav","null","1","","","","","","",""
"null","","html-keyboard-response","113","1765797","0.0-13.0-1.15","a","COGS219_2020_34","<p style=""font-size: 48px;"">+</p>","null","1","","","","","","",""
"1021.4550000382587","","image-keyboard-response","114","1766820","0.0-13.0-2.15","a","COGS219_2020_34","Images/train_orig.png","76","1","1583009485390","non-match","train","dog","sound","test","true"
"null","","audio-keyboard-response","115","1768835","0.0-13.0-3.15","a","COGS219_2020_34","Sounds/correct.wav","null","1","","","","","","",""
"null","","audio-keyboard-response","116","1769966","0.0-13.0-0.16","a","COGS219_2020_34","Sounds/motorcycle_sound.wav","null","1","","","","","","",""
"null","","html-keyboard-response","117","1770964","0.0-13.0-1.16","a","COGS219_2020_34","<p style=""font-size: 48px;"">+</p>","null","1","","","","","","",""
"1987.5400000019","","image-keyboard-response","118","1772955","0.0-13.0-2.16","a","COGS219_2020_34","Images/dog_cartoon.png","76","1","1583009490557","non-match","dog","motorcycle","sound","test","true"
"null","","audio-keyboard-response","119","1774971","0.0-13.0-3.16","a","COGS219_2020_34","Sounds/correct.wav","null","1","","","","","","",""
"null","","audio-keyboard-response","120","1775626","0.0-13.0-0.17","a","COGS219_2020_34","Sounds/dog_label.wav","null","1","","","","","","",""
"null","","html-keyboard-response","121","1776631","0.0-13.0-1.17","a","COGS219_2020_34","<p style=""font-size: 48px;"">+</p>","null","1","","","","","","",""
"1411.750000086613","","image-keyboard-response","122","1778044","0.0-13.0-2.17","a","COGS219_2020_34","Images/dog_2.png","65","1","1583009496224","match","dog","dog","label","test","true"
"null","","audio-keyboard-response","123","1780054","0.0-13.0-3.17","a","COGS219_2020_34","Sounds/correct.wav","null","1","","","","","","",""
"null","","audio-keyboard-response","124","1780966","0.0-13.0-0.18","a","COGS219_2020_34","Sounds/frog_label.wav","null","1","","","","","","",""
"null","","html-keyboard-response","125","1781964","0.0-13.0-1.18","a","COGS219_2020_34","<p style=""font-size: 48px;"">+</p>","null","1","","","","","","",""
"1830.6300000986084","","image-keyboard-response","126","1783796","0.0-13.0-2.18","a","COGS219_2020_34","Images/frog_1.png","65","1","1583009501557","match","frog","frog","label","test","true"
"null","","audio-keyboard-response","127","1785806","0.0-13.0-3.18","a","COGS219_2020_34","Sounds/correct.wav","null","1","","","","","","",""
"null","","audio-keyboard-response","128","1786506","0.0-13.0-0.19","a","COGS219_2020_34","Sounds/rooster_sound.wav","null","1","","","","","","",""
"null","","html-keyboard-response","129","1787497","0.0-13.0-1.19","a","COGS219_2020_34","<p style=""font-size: 48px;"">+</p>","null","1","","","","","","",""
"1265.0600000051782","","image-keyboard-response","130","1788763","0.0-13.0-2.19","a","COGS219_2020_34","Images/rooster_orig.png","65","1","1583009507090","match","rooster","rooster","sound","test","true"
"null","","audio-keyboard-response","131","1790771","0.0-13.0-3.19","a","COGS219_2020_34","Sounds/correct.wav","null","1","","","","","","",""
"null","","audio-keyboard-response","132","1791906","0.0-13.0-0.20","a","COGS219_2020_34","Sounds/motorcycle_label.wav","null","1","","","","","","",""
"null","","html-keyboard-response","133","1792897","0.0-13.0-1.20","a","COGS219_2020_34","<p style=""font-size: 48px;"">+</p>","null","1","","","","","","",""
"1057.0450000232086","","image-keyboard-response","134","1793956","0.0-13.0-2.20","a","COGS219_2020_34","Images/motorcycle_3.png","65","1","1583009512491","match","motorcycle","motorcycle","label","test","true"
"null","","audio-keyboard-response","135","1795968","0.0-13.0-3.20","a","COGS219_2020_34","Sounds/correct.wav","null","1","","","","","","",""
"null","","audio-keyboard-response","136","1797046","0.0-13.0-0.21","a","COGS219_2020_34","Sounds/car_sound.wav","null","1","","","","","","",""
"null","","html-keyboard-response","137","1798064","0.0-13.0-1.21","a","COGS219_2020_34","<p style=""font-size: 48px;"">+</p>","null","1","","","","","","",""
"1034.3000000575557","","image-keyboard-response","138","1799100","0.0-13.0-2.21","a","COGS219_2020_34","Images/cat_2.png","76","1","1583009517657","non-match","cat","car","sound","test","true"
"null","","audio-keyboard-response","139","1801103","0.0-13.0-3.21","a","COGS219_2020_34","Sounds/correct.wav","null","1","","","","","","",""
"null","","audio-keyboard-response","140","1802126","0.0-13.0-0.22","a","COGS219_2020_34","Sounds/cow_sound.wav","null","1","","","","","","",""
"null","","html-keyboard-response","141","1803131","0.0-13.0-1.22","a","COGS219_2020_34","<p style=""font-size: 48px;"">+</p>","null","1","","","","","","",""
"1015.6549999956042","","image-keyboard-response","142","1804147","0.0-13.0-2.22","a","COGS219_2020_34","Images/cow_3.png","65","1","1583009522724","match","cow","cow","sound","test","true"
"null","","audio-keyboard-response","143","1806153","0.0-13.0-3.22","a","COGS219_2020_34","Sounds/correct.wav","null","1","","","","","","",""
"null","","audio-keyboard-response","144","1806986","0.0-13.0-0.23","a","COGS219_2020_34","Sounds/cat_sound.wav","null","1","","","","","","",""
"null","","html-keyboard-response","145","1807981","0.0-13.0-1.23","a","COGS219_2020_34","<p style=""font-size: 48px;"">+</p>","null","1","","","","","","",""
"1301.4599999878556","","image-keyboard-response","146","1809283","0.0-13.0-2.23","a","COGS219_2020_34","Images/dog_orig.png","76","1","1583009527574","non-match","dog","cat","sound","test","true"
"null","","audio-keyboard-response","147","1811288","0.0-13.0-3.23","a","COGS219_2020_34","Sounds/correct.wav","null","1","","","","","","",""
"null","","audio-keyboard-response","148","1812286","0.0-13.0-0.24","a","COGS219_2020_34","Sounds/cow_sound.wav","null","1","","","","","","",""
"null","","html-keyboard-response","149","1813281","0.0-13.0-1.24","a","COGS219_2020_34","<p style=""font-size: 48px;"">+</p>","null","1","","","","","","",""
"889.7700000088662","","image-keyboard-response","150","1814172","0.0-13.0-2.24","a","COGS219_2020_34","Images/rooster_cartoon.png","76","1","1583009532874","non-match","rooster","cow","sound","test","true"
"null","","audio-keyboard-response","151","1816188","0.0-13.0-3.24","a","COGS219_2020_34","Sounds/correct.wav","null","1","","","","","","",""
"null","","audio-keyboard-response","152","1817266","0.0-13.0-0.25","a","COGS219_2020_34","Sounds/car_label.wav","null","1","","","","","","",""
"null","","html-keyboard-response","153","1818264","0.0-13.0-1.25","a","COGS219_2020_34","<p style=""font-size: 48px;"">+</p>","null","1","","","","","","",""
"1081.6699999850243","","image-keyboard-response","154","1819347","0.0-13.0-2.25","a","COGS219_2020_34","Images/dog_2.png","76","1","1583009537858","non-match","dog","car","label","test","true"
"null","","audio-keyboard-response","155","1821354","0.0-13.0-3.25","a","COGS219_2020_34","Sounds/correct.wav","null","1","","","","","","",""
"null","","audio-keyboard-response","156","1821926","0.0-13.0-0.26","a","COGS219_2020_34","Sounds/gun_label.wav","null","1","","","","","","",""
"null","","html-keyboard-response","157","1822932","0.0-13.0-1.26","a","COGS219_2020_34","<p style=""font-size: 48px;"">+</p>","null","1","","","","","","",""
"1063.084999914281","","image-keyboard-response","158","1823996","0.0-13.0-2.26","a","COGS219_2020_34","Images/gun_3.png","65","1","1583009542524","match","gun","gun","label","test","true"
"null","","audio-keyboard-response","159","1826003","0.0-13.0-3.26","a","COGS219_2020_34","Sounds/correct.wav","null","1","","","","","","",""
"null","","audio-keyboard-response","160","1826846","0.0-13.0-0.27","a","COGS219_2020_34","Sounds/cat_label.wav","null","1","","","","","","",""
"null","","html-keyboard-response","161","1827848","0.0-13.0-1.27","a","COGS219_2020_34","<p style=""font-size: 48px;"">+</p>","null","1","","","","","","",""
"1010.7749999733642","","image-keyboard-response","162","1828860","0.0-13.0-2.27","a","COGS219_2020_34","Images/cat_1.png","65","1","1583009547441","match","cat","cat","label","test","true"
"null","","audio-keyboard-response","163","1830869","0.0-13.0-3.27","a","COGS219_2020_34","Sounds/correct.wav","null","1","","","","","","",""
"null","","audio-keyboard-response","164","1832146","0.0-13.0-0.28","a","COGS219_2020_34","Sounds/train_label.wav","null","1","","","","","","",""
"null","","html-keyboard-response","165","1833148","0.0-13.0-1.28","a","COGS219_2020_34","<p style=""font-size: 48px;"">+</p>","null","1","","","","","","",""
"1278.6100000375882","","image-keyboard-response","166","1834428","0.0-13.0-2.28","a","COGS219_2020_34","Images/motorcycle_cartoon.png","76","1","1583009552741","non-match","motorcycle","train","label","test","true"
"null","","audio-keyboard-response","167","1836437","0.0-13.0-3.28","a","COGS219_2020_34","Sounds/correct.wav","null","1","","","","","","",""
"null","","audio-keyboard-response","168","1837546","0.0-13.0-0.29","a","COGS219_2020_34","Sounds/motorcycle_sound.wav","null","1","","","","","","",""
"null","","html-keyboard-response","169","1838548","0.0-13.0-1.29","a","COGS219_2020_34","<p style=""font-size: 48px;"">+</p>","null","1","","","","","","",""
"1447.1149999881163","","image-keyboard-response","170","1839996","0.0-13.0-2.29","a","COGS219_2020_34","Images/motorcycle_orig.png","65","1","1583009558141","match","motorcycle","motorcycle","sound","test","true"
"null","","audio-keyboard-response","171","1842005","0.0-13.0-3.29","a","COGS219_2020_34","Sounds/correct.wav","null","1","","","","","","",""
"null","","audio-keyboard-response","172","1842706","0.0-13.0-0.30","a","COGS219_2020_34","Sounds/whistle_sound.wav","null","1","","","","","","",""
"null","","html-keyboard-response","173","1843698","0.0-13.0-1.30","a","COGS219_2020_34","<p style=""font-size: 48px;"">+</p>","null","1","","","","","","",""
"1424.4100000942126","","image-keyboard-response","174","1845124","0.0-13.0-2.30","a","COGS219_2020_34","Images/whistle_cartoon.png","65","1","1583009563291","match","whistle","whistle","sound","test","true"
"null","","audio-keyboard-response","175","1847137","0.0-13.0-3.30","a","COGS219_2020_34","Sounds/correct.wav","null","1","","","","","","",""
"null","","audio-keyboard-response","176","1847846","0.0-13.0-0.31","a","COGS219_2020_34","Sounds/rooster_sound.wav","null","1","","","","","","",""
"null","","html-keyboard-response","177","1848848","0.0-13.0-1.31","a","COGS219_2020_34","<p style=""font-size: 48px;"">+</p>","null","1","","","","","","",""
"1258.570000063628","","image-keyboard-response","178","1850108","0.0-13.0-2.31","a","COGS219_2020_34","Images/rooster_cartoon.png","65","1","1583009568442","match","rooster","rooster","sound","test","true"
"null","","audio-keyboard-response","179","1852124","0.0-13.0-3.31","a","COGS219_2020_34","Sounds/correct.wav","null","1","","","","","","",""
"null","","audio-keyboard-response","180","1852826","0.0-13.0-0.32","a","COGS219_2020_34","Sounds/whistle_label.wav","null","1","","","","","","",""
"null","","html-keyboard-response","181","1853815","0.0-13.0-1.32","a","COGS219_2020_34","<p style=""font-size: 48px;"">+</p>","null","1","","","","","","",""
"1171.6149999992922","","image-keyboard-response","182","1854988","0.0-13.0-2.32","a","COGS219_2020_34","Images/motorcycle_3.png","76","1","1583009573408","non-match","motorcycle","whistle","label","test","true"
"null","","audio-keyboard-response","183","1857003","0.0-13.0-3.32","a","COGS219_2020_34","Sounds/correct.wav","null","1","","","","","","",""
"null","","audio-keyboard-response","184","1857586","0.0-13.0-0.33","a","COGS219_2020_34","Sounds/gun_sound.wav","null","1","","","","","","",""
"null","","html-keyboard-response","185","1858582","0.0-13.0-1.33","a","COGS219_2020_34","<p style=""font-size: 48px;"">+</p>","null","1","","","","","","",""
"860.854999977164","","image-keyboard-response","186","1859444","0.0-13.0-2.33","a","COGS219_2020_34","Images/gun_2.png","65","1","1583009578175","match","gun","gun","sound","test","true"
"null","","audio-keyboard-response","187","1861452","0.0-13.0-3.33","a","COGS219_2020_34","Sounds/correct.wav","null","1","","","","","","",""
"null","","audio-keyboard-response","188","1862006","0.0-13.0-0.34","a","COGS219_2020_34","Sounds/gun_sound.wav","null","1","","","","","","",""
"null","","html-keyboard-response","189","1862998","0.0-13.0-1.34","a","COGS219_2020_34","<p style=""font-size: 48px;"">+</p>","null","1","","","","","","",""
"652.3449999513105","","image-keyboard-response","190","1863652","0.0-13.0-2.34","a","COGS219_2020_34","Images/cow_3.png","76","1","1583009582592","non-match","cow","gun","sound","test","true"
"null","","audio-keyboard-response","191","1865669","0.0-13.0-3.34","a","COGS219_2020_34","Sounds/correct.wav","null","1","","","","","","",""
"null","","audio-keyboard-response","192","1866786","0.0-13.0-0.35","a","COGS219_2020_34","Sounds/motorcycle_sound.wav","null","1","","","","","","",""
"null","","html-keyboard-response","193","1867782","0.0-13.0-1.35","a","COGS219_2020_34","<p style=""font-size: 48px;"">+</p>","null","1","","","","","","",""
"900.8450000546873","","image-keyboard-response","194","1868684","0.0-13.0-2.35","a","COGS219_2020_34","Images/motorcycle_1.png","65","1","1583009587375","match","motorcycle","motorcycle","sound","test","true"
"null","","audio-keyboard-response","195","1870687","0.0-13.0-3.35","a","COGS219_2020_34","Sounds/correct.wav","null","1","","","","","","",""
"null","","audio-keyboard-response","196","1871786","0.0-13.0-0.36","a","COGS219_2020_34","Sounds/motorcycle_sound.wav","null","1","","","","","","",""
"null","","html-keyboard-response","197","1872782","0.0-13.0-1.36","a","COGS219_2020_34","<p style=""font-size: 48px;"">+</p>","null","1","","","","","","",""
"964.6349999820814","","image-keyboard-response","198","1873748","0.0-13.0-2.36","a","COGS219_2020_34","Images/rooster_orig.png","76","1","1583009592375","non-match","rooster","motorcycle","sound","test","true"
"null","","audio-keyboard-response","199","1875759","0.0-13.0-3.36","a","COGS219_2020_34","Sounds/correct.wav","null","1","","","","","","",""
"null","","audio-keyboard-response","200","1876466","0.0-13.0-0.37","a","COGS219_2020_34","Sounds/rooster_sound.wav","null","1","","","","","","",""
"null","","html-keyboard-response","201","1877465","0.0-13.0-1.37","a","COGS219_2020_34","<p style=""font-size: 48px;"">+</p>","null","1","","","","","","",""
"1177.2999999811873","","image-keyboard-response","202","1878644","0.0-13.0-2.37","a","COGS219_2020_34","Images/rooster_2.png","65","1","1583009597059","match","rooster","rooster","sound","test","true"
"null","","audio-keyboard-response","203","1880652","0.0-13.0-3.37","a","COGS219_2020_34","Sounds/correct.wav","null","1","","","","","","",""
"null","","audio-keyboard-response","204","1881927","0.0-13.0-0.38","a","COGS219_2020_34","Sounds/train_label.wav","null","1","","","","","","",""
"null","","html-keyboard-response","205","1882933","0.0-13.0-1.38","a","COGS219_2020_34","<p style=""font-size: 48px;"">+</p>","null","1","","","","","","",""
"1902.659999905154","","image-keyboard-response","206","1884837","0.0-13.0-2.38","a","COGS219_2020_34","Images/train_2.png","65","1","1583009602526","match","train","train","label","test","true"
"null","","audio-keyboard-response","207","1886841","0.0-13.0-3.38","a","COGS219_2020_34","Sounds/correct.wav","null","1","","","","","","",""
"null","","audio-keyboard-response","208","1887927","0.0-13.0-0.39","a","COGS219_2020_34","Sounds/car_sound.wav","null","1","","","","","","",""
"null","","html-keyboard-response","209","1888933","0.0-13.0-1.39","a","COGS219_2020_34","<p style=""font-size: 48px;"">+</p>","null","1","","","","","","",""
"1045.9299999056384","","image-keyboard-response","210","1889981","0.0-13.0-2.39","a","COGS219_2020_34","Images/car_2.png","65","1","1583009608526","match","car","car","sound","test","true"
"null","","audio-keyboard-response","211","1891988","0.0-13.0-3.39","a","COGS219_2020_34","Sounds/correct.wav","null","1","","","","","","",""
"null","","audio-keyboard-response","212","1892687","0.0-13.0-0.40","a","COGS219_2020_34","Sounds/whistle_sound.wav","null","1","","","","","","",""
"null","","html-keyboard-response","213","1893683","0.0-13.0-1.40","a","COGS219_2020_34","<p style=""font-size: 48px;"">+</p>","null","1","","","","","","",""
"1193.0899999570101","","image-keyboard-response","214","1894877","0.0-13.0-2.40","a","COGS219_2020_34","Images/whistle_3.png","65","1","1583009613276","match","whistle","whistle","sound","test","true"
"null","","audio-keyboard-response","215","1896887","0.0-13.0-3.40","a","COGS219_2020_34","Sounds/correct.wav","null","1","","","","","","",""
"null","","audio-keyboard-response","216","1897727","0.0-13.0-0.41","a","COGS219_2020_34","Sounds/cat_sound.wav","null","1","","","","","","",""
"null","","html-keyboard-response","217","1898716","0.0-13.0-1.41","a","COGS219_2020_34","<p style=""font-size: 48px;"">+</p>","null","1","","","","","","",""
"1135.3200000012293","","image-keyboard-response","218","1899853","0.0-13.0-2.41","a","COGS219_2020_34","Images/frog_orig.png","76","1","1583009618310","non-match","frog","cat","sound","test","true"
"null","","audio-keyboard-response","219","1901856","0.0-13.0-3.41","a","COGS219_2020_34","Sounds/correct.wav","null","1","","","","","","",""
"null","","audio-keyboard-response","220","1902527","0.0-13.0-0.42","a","COGS219_2020_34","Sounds/dog_label.wav","null","1","","","","","","",""
"null","","html-keyboard-response","221","1903516","0.0-13.0-1.42","a","COGS219_2020_34","<p style=""font-size: 48px;"">+</p>","null","1","","","","","","",""
"871.2650000816211","","image-keyboard-response","222","1904389","0.0-13.0-2.42","a","COGS219_2020_34","Images/frog_2.png","76","1","1583009623110","non-match","frog","dog","label","test","true"
"null","","audio-keyboard-response","223","1906404","0.0-13.0-3.42","a","COGS219_2020_34","Sounds/correct.wav","null","1","","","","","","",""
"null","","audio-keyboard-response","224","1907107","0.0-13.0-0.43","a","COGS219_2020_34","Sounds/dog_sound.wav","null","1","","","","","","",""
"null","","html-keyboard-response","225","1908100","0.0-13.0-1.43","a","COGS219_2020_34","<p style=""font-size: 48px;"">+</p>","null","1","","","","","","",""
"959.6649999730289","","image-keyboard-response","226","1909061","0.0-13.0-2.43","a","COGS219_2020_34","Images/dog_orig.png","65","1","1583009627693","match","dog","dog","sound","test","true"
"null","","audio-keyboard-response","227","1911070","0.0-13.0-3.43","a","COGS219_2020_34","Sounds/correct.wav","null","1","","","","","","",""
"null","","audio-keyboard-response","228","1911767","0.0-13.0-0.44","a","COGS219_2020_34","Sounds/whistle_label.wav","null","1","","","","","","",""
"null","","html-keyboard-response","229","1912766","0.0-13.0-1.44","a","COGS219_2020_34","<p style=""font-size: 48px;"">+</p>","null","1","","","","","","",""
"1381.0300000477582","","image-keyboard-response","230","1914149","0.0-13.0-2.44","a","COGS219_2020_34","Images/gun_orig.png","76","1","1583009632360","non-match","gun","whistle","label","test","true"
"null","","audio-keyboard-response","231","1916157","0.0-13.0-3.44","a","COGS219_2020_34","Sounds/correct.wav","null","1","","","","","","",""
"null","","audio-keyboard-response","232","1917247","0.0-13.0-0.45","a","COGS219_2020_34","Sounds/car_sound.wav","null","1","","","","","","",""
"null","","html-keyboard-response","233","1918250","0.0-13.0-1.45","a","COGS219_2020_34","<p style=""font-size: 48px;"">+</p>","null","1","","","","","","",""
"1794.539999915287","","image-keyboard-response","234","1920045","0.0-13.0-2.45","a","COGS219_2020_34","Images/whistle_cartoon.png","76","1","1583009637843","non-match","whistle","car","sound","test","true"
"null","","audio-keyboard-response","235","1922058","0.0-13.0-3.45","a","COGS219_2020_34","Sounds/correct.wav","null","1","","","","","","",""
"null","","audio-keyboard-response","236","1922747","0.0-13.0-0.46","a","COGS219_2020_34","Sounds/dog_sound.wav","null","1","","","","","","",""
"null","","html-keyboard-response","237","1923750","0.0-13.0-1.46","a","COGS219_2020_34","<p style=""font-size: 48px;"">+</p>","null","1","","","","","","",""
"989.5150000229478","","image-keyboard-response","238","1924741","0.0-13.0-2.46","a","COGS219_2020_34","Images/dog_cartoon.png","65","1","1583009643343","match","dog","dog","sound","test","true"
"null","","audio-keyboard-response","239","1926756","0.0-13.0-3.46","a","COGS219_2020_34","Sounds/correct.wav","null","1","","","","","","",""
"null","","audio-keyboard-response","240","1928047","0.0-13.0-0.47","a","COGS219_2020_34","Sounds/train_label.wav","null","1","","","","","","",""
"null","","html-keyboard-response","241","1929050","0.0-13.0-1.47","a","COGS219_2020_34","<p style=""font-size: 48px;"">+</p>","null","1","","","","","","",""
"1097.514999913983","","image-keyboard-response","242","1930149","0.0-13.0-2.47","a","COGS219_2020_34","Images/train_cartoon.png","65","1","1583009648643","match","train","train","label","test","true"
"null","","audio-keyboard-response","243","1932156","0.0-13.0-3.47","a","COGS219_2020_34","Sounds/correct.wav","null","1","","","","","","",""
"null","","audio-keyboard-response","244","1932867","0.0-13.0-0.48","a","COGS219_2020_34","Sounds/rooster_label.wav","null","1","","","","","","",""
"null","","html-keyboard-response","245","1933867","0.0-13.0-1.48","a","COGS219_2020_34","<p style=""font-size: 48px;"">+</p>","null","1","","","","","","",""
"1032.8449999215081","","image-keyboard-response","246","1934901","0.0-13.0-2.48","a","COGS219_2020_34","Images/rooster_3.png","65","1","1583009653460","match","rooster","rooster","label","test","true"
"null","","audio-keyboard-response","247","1936906","0.0-13.0-3.48","a","COGS219_2020_34","Sounds/correct.wav","null","1","","","","","","",""
"null","","audio-keyboard-response","248","1938027","0.0-13.0-0.49","a","COGS219_2020_34","Sounds/motorcycle_sound.wav","null","1","","","","","","",""
"null","","html-keyboard-response","249","1939017","0.0-13.0-1.49","a","COGS219_2020_34","<p style=""font-size: 48px;"">+</p>","null","1","","","","","","",""
"1106.7750001093373","","image-keyboard-response","250","1940125","0.0-13.0-2.49","a","COGS219_2020_34","Images/train_1.png","76","1","1583009658610","non-match","train","motorcycle","sound","test","true"
"null","","audio-keyboard-response","251","1942137","0.0-13.0-3.49","a","COGS219_2020_34","Sounds/correct.wav","null","1","","","","","","",""
"null","","audio-keyboard-response","252","1942728","0.0-13.0-0.50","a","COGS219_2020_34","Sounds/gun_sound.wav","null","1","","","","","","",""
"null","","html-keyboard-response","253","1943717","0.0-13.0-1.50","a","COGS219_2020_34","<p style=""font-size: 48px;"">+</p>","null","1","","","","","","",""
"1694.9700000695884","","image-keyboard-response","254","1945413","0.0-13.0-2.50","a","COGS219_2020_34","Images/train_3.png","76","1","1583009663310","non-match","train","gun","sound","test","true"
"null","","audio-keyboard-response","255","1947426","0.0-13.0-3.50","a","COGS219_2020_34","Sounds/correct.wav","null","1","","","","","","",""
"null","","audio-keyboard-response","256","1948328","0.0-13.0-0.51","a","COGS219_2020_34","Sounds/frog_label.wav","null","1","","","","","","",""
"null","","html-keyboard-response","257","1949317","0.0-13.0-1.51","a","COGS219_2020_34","<p style=""font-size: 48px;"">+</p>","null","1","","","","","","",""
"1110.744999954477","","image-keyboard-response","258","1950429","0.0-13.0-2.51","a","COGS219_2020_34","Images/car_orig.png","76","1","1583009668911","non-match","car","frog","label","test","true"
"null","","audio-keyboard-response","259","1952438","0.0-13.0-3.51","a","COGS219_2020_34","Sounds/correct.wav","null","1","","","","","","",""
"null","","audio-keyboard-response","260","1953148","0.0-13.0-0.52","a","COGS219_2020_34","Sounds/whistle_label.wav","null","1","","","","","","",""
"null","","html-keyboard-response","261","1954151","0.0-13.0-1.52","a","COGS219_2020_34","<p style=""font-size: 48px;"">+</p>","null","1","","","","","","",""
"1005.1349999848753","","image-keyboard-response","262","1955157","0.0-13.0-2.52","a","COGS219_2020_34","Images/whistle_orig.png","76","1","1583009673744","match","whistle","whistle","label","test","false"
"null","","audio-keyboard-response","263","1957171","0.0-13.0-3.52","a","COGS219_2020_34","Sounds/incorrect.wav","null","1","","","","","","",""
"null","","audio-keyboard-response","264","1958248","0.0-13.0-0.53","a","COGS219_2020_34","Sounds/car_label.wav","null","1","","","","","","",""
"null","","html-keyboard-response","265","1959251","0.0-13.0-1.53","a","COGS219_2020_34","<p style=""font-size: 48px;"">+</p>","null","1","","","","","","",""
"1041.2400000495836","","image-keyboard-response","266","1960293","0.0-13.0-2.53","a","COGS219_2020_34","Images/car_cartoon.png","65","1","1583009678844","match","car","car","label","test","true"
"null","","audio-keyboard-response","267","1962304","0.0-13.0-3.53","a","COGS219_2020_34","Sounds/correct.wav","null","1","","","","","","",""
"null","","audio-keyboard-response","268","1963148","0.0-13.0-0.54","a","COGS219_2020_34","Sounds/cat_sound.wav","null","1","","","","","","",""
"null","","html-keyboard-response","269","1964151","0.0-13.0-1.54","a","COGS219_2020_34","<p style=""font-size: 48px;"">+</p>","null","1","","","","","","",""
"973.1700000120327","","image-keyboard-response","270","1965125","0.0-13.0-2.54","a","COGS219_2020_34","Images/car_3.png","76","1","1583009683744","non-match","car","cat","sound","test","true"
"null","","audio-keyboard-response","271","1967138","0.0-13.0-3.54","a","COGS219_2020_34","Sounds/correct.wav","null","1","","","","","","",""
"null","","audio-keyboard-response","272","1968268","0.0-13.0-0.55","a","COGS219_2020_34","Sounds/motorcycle_sound.wav","null","1","","","","","","",""
"null","","html-keyboard-response","273","1969267","0.0-13.0-1.55","a","COGS219_2020_34","<p style=""font-size: 48px;"">+</p>","null","1","","","","","","",""
"1312.7450000029057","","image-keyboard-response","274","1970581","0.0-13.0-2.55","a","COGS219_2020_34","Images/motorcycle_2.png","65","1","1583009688861","match","motorcycle","motorcycle","sound","test","true"
"null","","audio-keyboard-response","275","1972590","0.0-13.0-3.55","a","COGS219_2020_34","Sounds/correct.wav","null","1","","","","","","",""
"null","","audio-keyboard-response","276","1973427","0.0-13.0-0.56","a","COGS219_2020_34","Sounds/cat_label.wav","null","1","","","","","","",""
"null","","html-keyboard-response","277","1974418","0.0-13.0-1.56","a","COGS219_2020_34","<p style=""font-size: 48px;"">+</p>","null","1","","","","","","",""
"882.3749999282882","","image-keyboard-response","278","1975301","0.0-13.0-2.56","a","COGS219_2020_34","Images/cat_cartoon.png","65","1","1583009694011","match","cat","cat","label","test","true"
"null","","audio-keyboard-response","279","1977305","0.0-13.0-3.56","a","COGS219_2020_34","Sounds/correct.wav","null","1","","","","","","",""
"null","","audio-keyboard-response","280","1977887","0.0-13.0-0.57","a","COGS219_2020_34","Sounds/gun_label.wav","null","1","","","","","","",""
"null","","html-keyboard-response","281","1978884","0.0-13.0-1.57","a","COGS219_2020_34","<p style=""font-size: 48px;"">+</p>","null","1","","","","","","",""
"1199.7049999190494","","image-keyboard-response","282","1980085","0.0-13.0-2.57","a","COGS219_2020_34","Images/car_1.png","76","1","1583009698477","non-match","car","gun","label","test","true"
"null","","audio-keyboard-response","283","1982097","0.0-13.0-3.57","a","COGS219_2020_34","Sounds/correct.wav","null","1","","","","","","",""
"null","","audio-keyboard-response","284","1982807","0.0-13.0-0.58","a","COGS219_2020_34","Sounds/rooster_label.wav","null","1","","","","","","",""
"null","","html-keyboard-response","285","1983801","0.0-13.0-1.58","a","COGS219_2020_34","<p style=""font-size: 48px;"">+</p>","null","1","","","","","","",""
"1202.9399999883026","","image-keyboard-response","286","1985005","0.0-13.0-2.58","a","COGS219_2020_34","Images/whistle_3.png","76","1","1583009703394","non-match","whistle","rooster","label","test","true"
"null","","audio-keyboard-response","287","1987023","0.0-13.0-3.58","a","COGS219_2020_34","Sounds/correct.wav","null","1","","","","","","",""
"null","","audio-keyboard-response","288","1988308","0.0-13.0-0.59","a","COGS219_2020_34","Sounds/train_label.wav","null","1","","","","","","",""
"null","","html-keyboard-response","289","1989301","0.0-13.0-1.59","a","COGS219_2020_34","<p style=""font-size: 48px;"">+</p>","null","1","","","","","","",""
"958.9600000763312","","image-keyboard-response","290","1990261","0.0-13.0-2.59","a","COGS219_2020_34","Images/cat_1.png","76","1","1583009708894","non-match","cat","train","label","test","true"
"null","","audio-keyboard-response","291","1992271","0.0-13.0-3.59","a","COGS219_2020_34","Sounds/correct.wav","null","1","","","","","","",""
"null","","audio-keyboard-response","292","1992967","0.0-13.0-0.60","a","COGS219_2020_34","Sounds/rooster_sound.wav","null","1","","","","","","",""
"null","","html-keyboard-response","293","1993968","0.0-13.0-1.60","a","COGS219_2020_34","<p style=""font-size: 48px;"">+</p>","null","1","","","","","","",""
"876.1999999405816","","image-keyboard-response","294","1994845","0.0-13.0-2.60","a","COGS219_2020_34","Images/rooster_1.png","65","1","1583009713561","match","rooster","rooster","sound","test","true"
"null","","audio-keyboard-response","295","1996854","0.0-13.0-3.60","a","COGS219_2020_34","Sounds/correct.wav","null","1","","","","","","",""
"null","","audio-keyboard-response","296","1998108","0.0-13.0-0.61","a","COGS219_2020_34","Sounds/train_label.wav","null","1","","","","","","",""
"null","","html-keyboard-response","297","1999101","0.0-13.0-1.61","a","COGS219_2020_34","<p style=""font-size: 48px;"">+</p>","null","1","","","","","","",""
"1166.9950000941753","","image-keyboard-response","298","2000269","0.0-13.0-2.61","a","COGS219_2020_34","Images/cow_2.png","76","1","1583009718694","non-match","cow","train","label","test","true"
"null","","audio-keyboard-response","299","2002277","0.0-13.0-3.61","a","COGS219_2020_34","Sounds/correct.wav","null","1","","","","","","",""
"null","","audio-keyboard-response","300","2003588","0.0-13.0-0.62","a","COGS219_2020_34","Sounds/train_sound.wav","null","1","","","","","","",""
"null","","html-keyboard-response","301","2004585","0.0-13.0-1.62","a","COGS219_2020_34","<p style=""font-size: 48px;"">+</p>","null","1","","","","","","",""
"755.4000000236556","","image-keyboard-response","302","2005342","0.0-13.0-2.62","a","COGS219_2020_34","Images/train_3.png","65","1","1583009724178","match","train","train","sound","test","true"
"null","","audio-keyboard-response","303","2007356","0.0-13.0-3.62","a","COGS219_2020_34","Sounds/correct.wav","null","1","","","","","","",""
"null","","audio-keyboard-response","304","2008388","0.0-13.0-0.63","a","COGS219_2020_34","Sounds/cow_label.wav","null","1","","","","","","",""
"null","","html-keyboard-response","305","2009385","0.0-13.0-1.63","a","COGS219_2020_34","<p style=""font-size: 48px;"">+</p>","null","1","","","","","","",""
"955.3800000576302","","image-keyboard-response","306","2010342","0.0-13.0-2.63","a","COGS219_2020_34","Images/cow_1.png","65","1","1583009728979","match","cow","cow","label","test","true"
"null","","audio-keyboard-response","307","2012356","0.0-13.0-3.63","a","COGS219_2020_34","Sounds/correct.wav","null","1","","","","","","",""
"null","","audio-keyboard-response","308","2013048","0.0-13.0-0.64","a","COGS219_2020_34","Sounds/whistle_label.wav","null","1","","","","","","",""
"null","","html-keyboard-response","309","2014052","0.0-13.0-1.64","a","COGS219_2020_34","<p style=""font-size: 48px;"">+</p>","null","1","","","","","","",""
"776.6249999403954","","image-keyboard-response","310","2014830","0.0-13.0-2.64","a","COGS219_2020_34","Images/whistle_2.png","65","1","1583009733645","match","whistle","whistle","label","test","true"
"null","","audio-keyboard-response","311","2016839","0.0-13.0-3.64","a","COGS219_2020_34","Sounds/correct.wav","null","1","","","","","","",""
"null","","audio-keyboard-response","312","2017928","0.0-13.0-0.65","a","COGS219_2020_34","Sounds/car_label.wav","null","1","","","","","","",""
"null","","html-keyboard-response","313","2018919","0.0-13.0-1.65","a","COGS219_2020_34","<p style=""font-size: 48px;"">+</p>","null","1","","","","","","",""
"806.1699999962002","","image-keyboard-response","314","2019726","0.0-13.0-2.65","a","COGS219_2020_34","Images/car_orig.png","65","1","1583009738512","match","car","car","label","test","true"
"null","","audio-keyboard-response","315","2021741","0.0-13.0-3.65","a","COGS219_2020_34","Sounds/correct.wav","null","1","","","","","","",""
"null","","audio-keyboard-response","316","2022648","0.0-13.0-0.66","a","COGS219_2020_34","Sounds/frog_sound.wav","null","1","","","","","","",""
"null","","html-keyboard-response","317","2023652","0.0-13.0-1.66","a","COGS219_2020_34","<p style=""font-size: 48px;"">+</p>","null","1","","","","","","",""
"1048.3600000152364","","image-keyboard-response","318","2024702","0.0-13.0-2.66","a","COGS219_2020_34","Images/frog_3.png","65","1","1583009743245","match","frog","frog","sound","test","true"
"null","","audio-keyboard-response","319","2026708","0.0-13.0-3.66","a","COGS219_2020_34","Sounds/correct.wav","null","1","","","","","","",""
"null","","audio-keyboard-response","320","2027288","0.0-13.0-0.67","a","COGS219_2020_34","Sounds/gun_label.wav","null","1","","","","","","",""
"null","","html-keyboard-response","321","2028285","0.0-13.0-1.67","a","COGS219_2020_34","<p style=""font-size: 48px;"">+</p>","null","1","","","","","","",""
"1591.2299999035895","","image-keyboard-response","322","2029878","0.0-13.0-2.67","a","COGS219_2020_34","Images/whistle_2.png","76","1","1583009747879","non-match","whistle","gun","label","test","true"
"null","","audio-keyboard-response","323","2031892","0.0-13.0-3.67","a","COGS219_2020_34","Sounds/correct.wav","null","1","","","","","","",""
"null","","audio-keyboard-response","324","2032908","0.0-13.0-0.68","a","COGS219_2020_34","Sounds/cow_label.wav","null","1","","","","","","",""
"null","","html-keyboard-response","325","2033902","0.0-13.0-1.68","a","COGS219_2020_34","<p style=""font-size: 48px;"">+</p>","null","1","","","","","","",""
"1446.6150000225753","","image-keyboard-response","326","2035350","0.0-13.0-2.68","a","COGS219_2020_34","Images/cow_cartoon.png","65","1","1583009753496","match","cow","cow","label","test","true"
"null","","audio-keyboard-response","327","2037363","0.0-13.0-3.68","a","COGS219_2020_34","Sounds/correct.wav","null","1","","","","","","",""
"null","","audio-keyboard-response","328","2038068","0.0-13.0-0.69","a","COGS219_2020_34","Sounds/whistle_label.wav","null","1","","","","","","",""
"null","","html-keyboard-response","329","2039086","0.0-13.0-1.69","a","COGS219_2020_34","<p style=""font-size: 48px;"">+</p>","null","1","","","","","","",""
"1287.2399999760091","","image-keyboard-response","330","2040374","0.0-13.0-2.69","a","COGS219_2020_34","Images/cow_orig.png","76","1","1583009758679","non-match","cow","whistle","label","test","true"
"null","","audio-keyboard-response","331","2042378","0.0-13.0-3.69","a","COGS219_2020_34","Sounds/correct.wav","null","1","","","","","","",""
"null","","audio-keyboard-response","332","2043408","0.0-13.0-0.70","a","COGS219_2020_34","Sounds/cow_sound.wav","null","1","","","","","","",""
"null","","html-keyboard-response","333","2044402","0.0-13.0-1.70","a","COGS219_2020_34","<p style=""font-size: 48px;"">+</p>","null","1","","","","","","",""
"1178.5949999466538","","image-keyboard-response","334","2045582","0.0-13.0-2.70","a","COGS219_2020_34","Images/frog_1.png","76","1","1583009763996","non-match","frog","cow","sound","test","true"
"null","","audio-keyboard-response","335","2047585","0.0-13.0-3.70","a","COGS219_2020_34","Sounds/correct.wav","null","1","","","","","","",""
"null","","audio-keyboard-response","336","2048708","0.0-13.0-0.71","a","COGS219_2020_34","Sounds/motorcycle_sound.wav","null","1","","","","","","",""
"null","","html-keyboard-response","337","2049702","0.0-13.0-1.71","a","COGS219_2020_34","<p style=""font-size: 48px;"">+</p>","null","1","","","","","","",""
"1838.2549999514595","","image-keyboard-response","338","2051542","0.0-13.0-2.71","a","COGS219_2020_34","Images/motorcycle_cartoon.png","65","1","1583009769296","match","motorcycle","motorcycle","sound","test","true"
"null","","audio-keyboard-response","339","2053558","0.0-13.0-3.71","a","COGS219_2020_34","Sounds/correct.wav","null","1","","","","","","",""
"null","","audio-keyboard-response","340","2054148","0.0-13.0-0.72","a","COGS219_2020_34","Sounds/gun_label.wav","null","1","","","","","","",""
"null","","html-keyboard-response","341","2055153","0.0-13.0-1.72","a","COGS219_2020_34","<p style=""font-size: 48px;"">+</p>","null","1","","","","","","",""
"1068.1750000221655","","image-keyboard-response","342","2056222","0.0-13.0-2.72","a","COGS219_2020_34","Images/gun_1.png","65","1","1583009774746","match","gun","gun","label","test","true"
"null","","audio-keyboard-response","343","2058225","0.0-13.0-3.72","a","COGS219_2020_34","Sounds/correct.wav","null","1","","","","","","",""
"null","","audio-keyboard-response","344","2058928","0.0-13.0-0.73","a","COGS219_2020_34","Sounds/rooster_label.wav","null","1","","","","","","",""
"null","","html-keyboard-response","345","2059919","0.0-13.0-1.73","a","COGS219_2020_34","<p style=""font-size: 48px;"">+</p>","null","1","","","","","","",""
"1237.4750000890344","","image-keyboard-response","346","2061158","0.0-13.0-2.73","a","COGS219_2020_34","Images/motorcycle_2.png","76","1","1583009779512","non-match","motorcycle","rooster","label","test","true"
"null","","audio-keyboard-response","347","2063162","0.0-13.0-3.73","a","COGS219_2020_34","Sounds/correct.wav","null","1","","","","","","",""
"null","","audio-keyboard-response","348","2063869","0.0-13.0-0.74","a","COGS219_2020_34","Sounds/dog_sound.wav","null","1","","","","","","",""
"null","","html-keyboard-response","349","2064903","0.0-13.0-1.74","a","COGS219_2020_34","<p style=""font-size: 48px;"">+</p>","null","1","","","","","","",""
"2270.2900000149384","","image-keyboard-response","350","2067175","0.0-13.0-2.74","a","COGS219_2020_34","Images/gun_3.png","65","1","1583009784496","non-match","gun","dog","sound","test","false"
"null","","audio-keyboard-response","351","2069178","0.0-13.0-3.74","a","COGS219_2020_34","Sounds/incorrect.wav","null","1","","","","","","",""
"null","","audio-keyboard-response","352","2070009","0.0-13.0-0.75","a","COGS219_2020_34","Sounds/cat_label.wav","null","1","","","","","","",""
"null","","html-keyboard-response","353","2071003","0.0-13.0-1.75","a","COGS219_2020_34","<p style=""font-size: 48px;"">+</p>","null","1","","","","","","",""
"1146.0900000529364","","image-keyboard-response","354","2072151","0.0-13.0-2.75","a","COGS219_2020_34","Images/cat_orig.png","65","1","1583009790597","match","cat","cat","label","test","true"
"null","","audio-keyboard-response","355","2074160","0.0-13.0-3.75","a","COGS219_2020_34","Sounds/correct.wav","null","1","","","","","","",""
"null","","audio-keyboard-response","356","2074869","0.0-13.0-0.76","a","COGS219_2020_34","Sounds/whistle_sound.wav","null","1","","","","","","",""
"null","","html-keyboard-response","357","2075904","0.0-13.0-1.76","a","COGS219_2020_34","<p style=""font-size: 48px;"">+</p>","null","1","","","","","","",""
"1398.0499999597669","","image-keyboard-response","358","2077303","0.0-13.0-2.76","a","COGS219_2020_34","Images/whistle_1.png","65","1","1583009795497","match","whistle","whistle","sound","test","true"
"null","","audio-keyboard-response","359","2079311","0.0-13.0-3.76","a","COGS219_2020_34","Sounds/correct.wav","null","1","","","","","","",""
"null","","audio-keyboard-response","360","2079889","0.0-13.0-0.77","a","COGS219_2020_34","Sounds/gun_sound.wav","null","1","","","","","","",""
"null","","html-keyboard-response","361","2080887","0.0-13.0-1.77","a","COGS219_2020_34","<p style=""font-size: 48px;"">+</p>","null","1","","","","","","",""
"1526.5150000341237","","image-keyboard-response","362","2082415","0.0-13.0-2.77","a","COGS219_2020_34","Images/gun_cartoon.png","65","1","1583009800480","match","gun","gun","sound","test","true"
"null","","audio-keyboard-response","363","2084430","0.0-13.0-3.77","a","COGS219_2020_34","Sounds/correct.wav","null","1","","","","","","",""
"null","","audio-keyboard-response","364","2085109","0.0-13.0-0.78","a","COGS219_2020_34","Sounds/whistle_sound.wav","null","1","","","","","","",""
"null","","html-keyboard-response","365","2086104","0.0-13.0-1.78","a","COGS219_2020_34","<p style=""font-size: 48px;"">+</p>","null","1","","","","","","",""
"1246.1050000274554","","image-keyboard-response","366","2087351","0.0-13.0-2.78","a","COGS219_2020_34","Images/rooster_2.png","76","1","1583009805697","non-match","rooster","whistle","sound","test","true"
"null","","audio-keyboard-response","367","2089363","0.0-13.0-3.78","a","COGS219_2020_34","Sounds/correct.wav","null","1","","","","","","",""
"null","","audio-keyboard-response","368","2090449","0.0-13.0-0.79","a","COGS219_2020_34","Sounds/car_label.wav","null","1","","","","","","",""
"null","","html-keyboard-response","369","2091437","0.0-13.0-1.79","a","COGS219_2020_34","<p style=""font-size: 48px;"">+</p>","null","1","","","","","","",""
"1088.4749999968335","","image-keyboard-response","370","2092527","0.0-13.0-2.79","a","COGS219_2020_34","Images/cow_cartoon.png","76","1","1583009811030","non-match","cow","car","label","test","true"
"null","","audio-keyboard-response","371","2094541","0.0-13.0-3.79","a","COGS219_2020_34","Sounds/correct.wav","null","1","","","","","","",""
"null","","audio-keyboard-response","372","2095389","0.0-13.0-0.80","a","COGS219_2020_34","Sounds/cat_label.wav","null","1","","","","","","",""
"null","","html-keyboard-response","373","2096387","0.0-13.0-1.80","a","COGS219_2020_34","<p style=""font-size: 48px;"">+</p>","null","1","","","","","","",""
"1578.5550000146031","","image-keyboard-response","374","2097967","0.0-13.0-2.80","a","COGS219_2020_34","Images/train_2.png","76","1","1583009815980","non-match","train","cat","label","test","true"
"null","","audio-keyboard-response","375","2099978","0.0-13.0-3.80","a","COGS219_2020_34","Sounds/correct.wav","null","1","","","","","","",""
"null","","audio-keyboard-response","376","2100789","0.0-13.0-0.81","a","COGS219_2020_34","Sounds/cat_label.wav","null","1","","","","","","",""
"null","","html-keyboard-response","377","2101787","0.0-13.0-1.81","a","COGS219_2020_34","<p style=""font-size: 48px;"">+</p>","null","1","","","","","","",""
"1018.3149999938905","","image-keyboard-response","378","2102807","0.0-13.0-2.81","a","COGS219_2020_34","Images/cat_2.png","65","1","1583009821380","match","cat","cat","label","test","true"
"null","","audio-keyboard-response","379","2104824","0.0-13.0-3.81","a","COGS219_2020_34","Sounds/correct.wav","null","1","","","","","","",""
"null","","audio-keyboard-response","380","2105849","0.0-13.0-0.82","a","COGS219_2020_34","Sounds/cow_label.wav","null","1","","","","","","",""
"null","","html-keyboard-response","381","2106854","0.0-13.0-1.82","a","COGS219_2020_34","<p style=""font-size: 48px;"">+</p>","null","1","","","","","","",""
"622.5900000426918","","image-keyboard-response","382","2107479","0.0-13.0-2.82","a","COGS219_2020_34","Images/motorcycle_1.png","76","1","1583009826447","non-match","motorcycle","cow","label","test","true"
"null","","audio-keyboard-response","383","2109492","0.0-13.0-3.82","a","COGS219_2020_34","Sounds/correct.wav","null","1","","","","","","",""
"null","","audio-keyboard-response","384","2110569","0.0-13.0-0.83","a","COGS219_2020_34","Sounds/car_label.wav","null","1","","","","","","",""
"null","","html-keyboard-response","385","2111571","0.0-13.0-1.83","a","COGS219_2020_34","<p style=""font-size: 48px;"">+</p>","null","1","","","","","","",""
"659.0050000231713","","image-keyboard-response","386","2112231","0.0-13.0-2.83","a","COGS219_2020_34","Images/motorcycle_orig.png","76","1","1583009831164","non-match","motorcycle","car","label","test","true"
"null","","audio-keyboard-response","387","2114250","0.0-13.0-3.83","a","COGS219_2020_34","Sounds/correct.wav","null","1","","","","","","",""
"null","","audio-keyboard-response","388","2115309","0.0-13.0-0.84","a","COGS219_2020_34","Sounds/car_label.wav","null","1","","","","","","",""
"null","","html-keyboard-response","389","2116304","0.0-13.0-1.84","a","COGS219_2020_34","<p style=""font-size: 48px;"">+</p>","null","1","","","","","","",""
"1173.5049999551848","","image-keyboard-response","390","2117479","0.0-13.0-2.84","a","COGS219_2020_34","Images/car_1.png","65","1","1583009835897","match","car","car","label","test","true"
"null","","audio-keyboard-response","391","2119494","0.0-13.0-3.84","a","COGS219_2020_34","Sounds/correct.wav","null","1","","","","","","",""
"null","","audio-keyboard-response","392","2120769","0.0-13.0-0.85","a","COGS219_2020_34","Sounds/train_label.wav","null","1","","","","","","",""
"null","","html-keyboard-response","393","2121787","0.0-13.0-1.85","a","COGS219_2020_34","<p style=""font-size: 48px;"">+</p>","null","1","","","","","","",""
"1544.1700000083074","","image-keyboard-response","394","2123336","0.0-13.0-2.85","a","COGS219_2020_34","Images/train_1.png","65","1","1583009841381","match","train","train","label","test","true"
"null","","audio-keyboard-response","395","2125345","0.0-13.0-3.85","a","COGS219_2020_34","Sounds/correct.wav","null","1","","","","","","",""
"null","","audio-keyboard-response","396","2126250","0.0-13.0-0.86","a","COGS219_2020_34","Sounds/frog_sound.wav","null","1","","","","","","",""
"null","","html-keyboard-response","397","2127255","0.0-13.0-1.86","a","COGS219_2020_34","<p style=""font-size: 48px;"">+</p>","null","1","","","","","","",""
"1119.3000000203028","","image-keyboard-response","398","2128375","0.0-13.0-2.86","a","COGS219_2020_34","Images/train_cartoon.png","76","1","1583009846848","non-match","train","frog","sound","test","true"
"null","","audio-keyboard-response","399","2130378","0.0-13.0-3.86","a","COGS219_2020_34","Sounds/correct.wav","null","1","","","","","","",""
"null","","audio-keyboard-response","400","2131090","0.0-13.0-0.87","a","COGS219_2020_34","Sounds/whistle_sound.wav","null","1","","","","","","",""
"null","","html-keyboard-response","401","2132088","0.0-13.0-1.87","a","COGS219_2020_34","<p style=""font-size: 48px;"">+</p>","null","1","","","","","","",""
"934.0950000332668","","image-keyboard-response","402","2133023","0.0-13.0-2.87","a","COGS219_2020_34","Images/cat_orig.png","76","1","1583009851681","non-match","cat","whistle","sound","test","true"
"null","","audio-keyboard-response","403","2135030","0.0-13.0-3.87","a","COGS219_2020_34","Sounds/correct.wav","null","1","","","","","","",""
"null","","audio-keyboard-response","404","2135930","0.0-13.0-0.88","a","COGS219_2020_34","Sounds/frog_sound.wav","null","1","","","","","","",""
"null","","html-keyboard-response","405","2136922","0.0-13.0-1.88","a","COGS219_2020_34","<p style=""font-size: 48px;"">+</p>","null","1","","","","","","",""
"1421.1099999956787","","image-keyboard-response","406","2138344","0.0-13.0-2.88","a","COGS219_2020_34","Images/frog_2.png","65","1","1583009856515","match","frog","frog","sound","test","true"
"null","","audio-keyboard-response","407","2140347","0.0-13.0-3.88","a","COGS219_2020_34","Sounds/correct.wav","null","1","","","","","","",""
"null","","audio-keyboard-response","408","2141490","0.0-13.0-0.89","a","COGS219_2020_34","Sounds/motorcycle_label.wav","null","1","","","","","","",""
"null","","html-keyboard-response","409","2142488","0.0-13.0-1.89","a","COGS219_2020_34","<p style=""font-size: 48px;"">+</p>","null","1","","","","","","",""
"701.9800000125542","","image-keyboard-response","410","2143191","0.0-13.0-2.89","a","COGS219_2020_34","Images/frog_3.png","76","1","1583009862081","non-match","frog","motorcycle","label","test","true"
"null","","audio-keyboard-response","411","2145209","0.0-13.0-3.89","a","COGS219_2020_34","Sounds/correct.wav","null","1","","","","","","",""
"null","","audio-keyboard-response","412","2146230","0.0-13.0-0.90","a","COGS219_2020_34","Sounds/cow_label.wav","null","1","","","","","","",""
"null","","html-keyboard-response","413","2147222","0.0-13.0-1.90","a","COGS219_2020_34","<p style=""font-size: 48px;"">+</p>","null","1","","","","","","",""
"560.5649999342859","","image-keyboard-response","414","2147783","0.0-13.0-2.90","a","COGS219_2020_34","Images/cow_2.png","65","1","1583009866815","match","cow","cow","label","test","true"
"null","","audio-keyboard-response","415","2149792","0.0-13.0-3.90","a","COGS219_2020_34","Sounds/correct.wav","null","1","","","","","","",""
"null","","audio-keyboard-response","416","2151090","0.0-13.0-0.91","a","COGS219_2020_34","Sounds/train_sound.wav","null","1","","","","","","",""
"null","","html-keyboard-response","417","2152088","0.0-13.0-1.91","a","COGS219_2020_34","<p style=""font-size: 48px;"">+</p>","null","1","","","","","","",""
"774.0149999735877","","image-keyboard-response","418","2152863","0.0-13.0-2.91","a","COGS219_2020_34","Images/gun_cartoon.png","76","1","1583009871682","non-match","gun","train","sound","test","true"
"null","","audio-keyboard-response","419","2154875","0.0-13.0-3.91","a","COGS219_2020_34","Sounds/correct.wav","null","1","","","","","","",""
"null","","audio-keyboard-response","420","2155890","0.0-13.0-0.92","a","COGS219_2020_34","Sounds/cow_sound.wav","null","1","","","","","","",""
"null","","html-keyboard-response","421","2156888","0.0-13.0-1.92","a","COGS219_2020_34","<p style=""font-size: 48px;"">+</p>","null","1","","","","","","",""
"893.7999999616295","","image-keyboard-response","422","2157783","0.0-13.0-2.92","a","COGS219_2020_34","Images/cat_cartoon.png","76","1","1583009876482","non-match","cat","cow","sound","test","true"
"null","","audio-keyboard-response","423","2159793","0.0-13.0-3.92","a","COGS219_2020_34","Sounds/correct.wav","null","1","","","","","","",""
"null","","audio-keyboard-response","424","2160930","0.0-13.0-0.93","a","COGS219_2020_34","Sounds/motorcycle_label.wav","null","1","","","","","","",""
"null","","html-keyboard-response","425","2161922","0.0-13.0-1.93","a","COGS219_2020_34","<p style=""font-size: 48px;"">+</p>","null","1","","","","","","",""
"1092.475000070408","","image-keyboard-response","426","2163015","0.0-13.0-2.93","a","COGS219_2020_34","Images/car_cartoon.png","76","1","1583009881515","non-match","car","motorcycle","label","test","true"
"null","","audio-keyboard-response","427","2165025","0.0-13.0-3.93","a","COGS219_2020_34","Sounds/correct.wav","null","1","","","","","","",""
"null","","audio-keyboard-response","428","2165730","0.0-13.0-0.94","a","COGS219_2020_34","Sounds/rooster_label.wav","null","1","","","","","","",""
"null","","html-keyboard-response","429","2166722","0.0-13.0-1.94","a","COGS219_2020_34","<p style=""font-size: 48px;"">+</p>","null","1","","","","","","",""
"748.4399999957532","","image-keyboard-response","430","2167471","0.0-13.0-2.94","a","COGS219_2020_34","Images/cat_3.png","76","1","1583009886315","non-match","cat","rooster","label","test","true"
"null","","audio-keyboard-response","431","2169477","0.0-13.0-3.94","a","COGS219_2020_34","Sounds/correct.wav","null","1","","","","","","",""
"null","","audio-keyboard-response","432","2170050","0.0-13.0-0.95","a","COGS219_2020_34","Sounds/gun_sound.wav","null","1","","","","","","",""
"null","","html-keyboard-response","433","2171039","0.0-13.0-1.95","a","COGS219_2020_34","<p style=""font-size: 48px;"">+</p>","null","1","","","","","","",""
"852.9750000452623","","image-keyboard-response","434","2171895","0.0-13.0-2.95","a","COGS219_2020_34","Images/gun_orig.png","65","1","1583009890632","match","gun","gun","sound","test","true"
"null","","audio-keyboard-response","435","2173907","0.0-13.0-3.95","a","COGS219_2020_34","Sounds/correct.wav","null","1","","","","","","",""
"null","","audio-keyboard-response","436","2174810","0.0-13.0-0.96","a","COGS219_2020_34","Sounds/frog_label.wav","null","1","","","","","","",""
"null","","html-keyboard-response","437","2175805","0.0-13.0-1.96","a","COGS219_2020_34","<p style=""font-size: 48px;"">+</p>","null","1","","","","","","",""
"1361.200000043027","","image-keyboard-response","438","2177167","0.0-13.0-2.96","a","COGS219_2020_34","Images/frog_cartoon.png","65","1","1583009895398","match","frog","frog","label","test","true"
"null","","audio-keyboard-response","439","2179179","0.0-13.0-3.96","a","COGS219_2020_34","Sounds/correct.wav","null","1","","","","","","",""
"null","","audio-keyboard-response","440","2180030","0.0-13.0-0.97","a","COGS219_2020_34","Sounds/cat_label.wav","null","1","","","","","","",""
"null","","html-keyboard-response","441","2181022","0.0-13.0-1.97","a","COGS219_2020_34","<p style=""font-size: 48px;"">+</p>","null","1","","","","","","",""
"968.0950000183657","","image-keyboard-response","442","2181991","0.0-13.0-2.97","a","COGS219_2020_34","Images/cat_3.png","65","1","1583009900615","match","cat","cat","label","test","true"
"null","","audio-keyboard-response","443","2183997","0.0-13.0-3.97","a","COGS219_2020_34","Sounds/correct.wav","null","1","","","","","","",""
"null","","audio-keyboard-response","444","2184711","0.0-13.0-0.98","a","COGS219_2020_34","Sounds/dog_sound.wav","null","1","","","","","","",""
"null","","html-keyboard-response","445","2185706","0.0-13.0-1.98","a","COGS219_2020_34","<p style=""font-size: 48px;"">+</p>","null","1","","","","","","",""
"748.5349999042228","","image-keyboard-response","446","2186456","0.0-13.0-2.98","a","COGS219_2020_34","Images/car_2.png","76","1","1583009905299","non-match","car","dog","sound","test","true"
"null","","audio-keyboard-response","447","2188461","0.0-13.0-3.98","a","COGS219_2020_34","Sounds/correct.wav","null","1","","","","","","",""
"null","","audio-keyboard-response","448","2189171","0.0-13.0-0.99","a","COGS219_2020_34","Sounds/rooster_label.wav","null","1","","","","","","",""
"null","","html-keyboard-response","449","2190173","0.0-13.0-1.99","a","COGS219_2020_34","<p style=""font-size: 48px;"">+</p>","null","1","","","","","","",""
"706.3100000377744","","image-keyboard-response","450","2190880","0.0-13.0-2.99","a","COGS219_2020_34","Images/cow_1.png","76","1","1583009909766","non-match","cow","rooster","label","test","true"
"null","","audio-keyboard-response","451","2192891","0.0-13.0-3.99","a","COGS219_2020_34","Sounds/correct.wav","null","1","","","","","","",""
"33476.35500004981","","html-keyboard-response","452","2226369","0.0-14.0","a","COGS219_2020_34","<p>Please take this opportunity to rest your eyes before proceeding.</p><p>When ready, press the enter key to continue to the next set of trials.</p>","32","","","","","","","",""
"null","","audio-keyboard-response","453","2229420","0.0-15.0-0.0","a","COGS219_2020_34","Sounds/cow_label.wav","null","2","","","","","","",""
"null","","html-keyboard-response","454","2230423","0.0-15.0-1.0","a","COGS219_2020_34","<p style=""font-size: 48px;"">+</p>","null","2","","","","","","",""
"1095.5050000920892","","image-keyboard-response","455","2231520","0.0-15.0-2.0","a","COGS219_2020_34","Images/car_3.png","76","2","1583009950017","non-match","car","cow","label","test","true"
"null","","audio-keyboard-response","456","2233529","0.0-15.0-3.0","a","COGS219_2020_34","Sounds/correct.wav","null","2","","","","","","",""
"null","","audio-keyboard-response","457","2234240","0.0-15.0-0.1","a","COGS219_2020_34","Sounds/rooster_label.wav","null","2","","","","","","",""
"null","","html-keyboard-response","458","2235240","0.0-15.0-1.1","a","COGS219_2020_34","<p style=""font-size: 48px;"">+</p>","null","2","","","","","","",""
"702.9350000666454","","image-keyboard-response","459","2235944","0.0-15.0-2.1","a","COGS219_2020_34","Images/train_orig.png","76","2","1583009954833","non-match","train","rooster","label","test","true"
"null","","audio-keyboard-response","460","2237960","0.0-15.0-3.1","a","COGS219_2020_34","Sounds/correct.wav","null","2","","","","","","",""
"null","","audio-keyboard-response","461","2239080","0.0-15.0-0.2","a","COGS219_2020_34","Sounds/motorcycle_sound.wav","null","2","","","","","","",""
"null","","html-keyboard-response","462","2240073","0.0-15.0-1.2","a","COGS219_2020_34","<p style=""font-size: 48px;"">+</p>","null","2","","","","","","",""
"1021.9100000103936","","image-keyboard-response","463","2241096","0.0-15.0-2.2","a","COGS219_2020_34","Images/motorcycle_1.png","65","2","1583009959667","match","motorcycle","motorcycle","sound","test","true"
"null","","audio-keyboard-response","464","2243111","0.0-15.0-3.2","a","COGS219_2020_34","Sounds/correct.wav","null","2","","","","","","",""
"null","","audio-keyboard-response","465","2244141","0.0-15.0-0.3","a","COGS219_2020_34","Sounds/cow_sound.wav","null","2","","","","","","",""
"null","","html-keyboard-response","466","2245141","0.0-15.0-1.3","a","COGS219_2020_34","<p style=""font-size: 48px;"">+</p>","null","2","","","","","","",""
"714.985000086017","","image-keyboard-response","467","2245857","0.0-15.0-2.3","a","COGS219_2020_34","Images/cow_cartoon.png","65","2","1583009964734","match","cow","cow","sound","test","true"
"null","","audio-keyboard-response","468","2247862","0.0-15.0-3.3","a","COGS219_2020_34","Sounds/correct.wav","null","2","","","","","","",""
"null","","audio-keyboard-response","469","2248881","0.0-15.0-0.4","a","COGS219_2020_34","Sounds/cow_label.wav","null","2","","","","","","",""
"null","","html-keyboard-response","470","2249874","0.0-15.0-1.4","a","COGS219_2020_34","<p style=""font-size: 48px;"">+</p>","null","2","","","","","","",""
"501.53500004671514","","image-keyboard-response","471","2250377","0.0-15.0-2.4","a","COGS219_2020_34","Images/cow_1.png","65","2","1583009969467","match","cow","cow","label","test","true"
"null","","audio-keyboard-response","472","2252385","0.0-15.0-3.4","a","COGS219_2020_34","Sounds/correct.wav","null","2","","","","","","",""
"null","","audio-keyboard-response","473","2253041","0.0-15.0-0.5","a","COGS219_2020_34","Sounds/dog_label.wav","null","2","","","","","","",""
"null","","html-keyboard-response","474","2254041","0.0-15.0-1.5","a","COGS219_2020_34","<p style=""font-size: 48px;"">+</p>","null","2","","","","","","",""
"887.0300000999123","","image-keyboard-response","475","2254929","0.0-15.0-2.5","a","COGS219_2020_34","Images/frog_1.png","76","2","1583009973634","non-match","frog","dog","label","test","true"
"null","","audio-keyboard-response","476","2256945","0.0-15.0-3.5","a","COGS219_2020_34","Sounds/correct.wav","null","2","","","","","","",""
"null","","audio-keyboard-response","477","2257841","0.0-15.0-0.6","a","COGS219_2020_34","Sounds/frog_label.wav","null","2","","","","","","",""
"null","","html-keyboard-response","478","2258841","0.0-15.0-1.6","a","COGS219_2020_34","<p style=""font-size: 48px;"">+</p>","null","2","","","","","","",""
"606.7849999526516","","image-keyboard-response","479","2259449","0.0-15.0-2.6","a","COGS219_2020_34","Images/motorcycle_2.png","65","2","1583009978434","non-match","motorcycle","frog","label","test","false"
"null","","audio-keyboard-response","480","2261452","0.0-15.0-3.6","a","COGS219_2020_34","Sounds/incorrect.wav","null","2","","","","","","",""
"null","","audio-keyboard-response","481","2262741","0.0-15.0-0.7","a","COGS219_2020_34","Sounds/train_label.wav","null","2","","","","","","",""
"null","","html-keyboard-response","482","2263741","0.0-15.0-1.7","a","COGS219_2020_34","<p style=""font-size: 48px;"">+</p>","null","2","","","","","","",""
"922.6400000043213","","image-keyboard-response","483","2264665","0.0-15.0-2.7","a","COGS219_2020_34","Images/cow_cartoon.png","76","2","1583009983334","non-match","cow","train","label","test","true"
"null","","audio-keyboard-response","484","2266679","0.0-15.0-3.7","a","COGS219_2020_34","Sounds/correct.wav","null","2","","","","","","",""
"null","","audio-keyboard-response","485","2267801","0.0-15.0-0.8","a","COGS219_2020_34","Sounds/motorcycle_sound.wav","null","2","","","","","","",""
"null","","html-keyboard-response","486","2268791","0.0-15.0-1.8","a","COGS219_2020_34","<p style=""font-size: 48px;"">+</p>","null","2","","","","","","",""
"568.9749999437481","","image-keyboard-response","487","2269361","0.0-15.0-2.8","a","COGS219_2020_34","Images/frog_2.png","76","2","1583009988384","non-match","frog","motorcycle","sound","test","true"
"null","","audio-keyboard-response","488","2271365","0.0-15.0-3.8","a","COGS219_2020_34","Sounds/correct.wav","null","2","","","","","","",""
"null","","audio-keyboard-response","489","2272660","0.0-15.0-0.9","a","COGS219_2020_34","Sounds/train_sound.wav","null","2","","","","","","",""
"null","","html-keyboard-response","490","2273658","0.0-15.0-1.9","a","COGS219_2020_34","<p style=""font-size: 48px;"">+</p>","null","2","","","","","","",""
"1004.1600000113249","","image-keyboard-response","491","2274665","0.0-15.0-2.9","a","COGS219_2020_34","Images/whistle_3.png","76","2","1583009993251","non-match","whistle","train","sound","test","true"
"null","","audio-keyboard-response","492","2276679","0.0-15.0-3.9","a","COGS219_2020_34","Sounds/correct.wav","null","2","","","","","","",""
"null","","audio-keyboard-response","493","2277521","0.0-15.0-0.10","a","COGS219_2020_34","Sounds/cat_label.wav","null","2","","","","","","",""
"null","","html-keyboard-response","494","2278524","0.0-15.0-1.10","a","COGS219_2020_34","<p style=""font-size: 48px;"">+</p>","null","2","","","","","","",""
"1131.305000046268","","image-keyboard-response","495","2279657","0.0-15.0-2.10","a","COGS219_2020_34","Images/rooster_3.png","76","2","1583009998118","non-match","rooster","cat","label","test","true"
"null","","audio-keyboard-response","496","2281664","0.0-15.0-3.10","a","COGS219_2020_34","Sounds/correct.wav","null","2","","","","","","",""
"null","","audio-keyboard-response","497","2282500","0.0-15.0-0.11","a","COGS219_2020_34","Sounds/cat_sound.wav","null","2","","","","","","",""
"null","","html-keyboard-response","498","2283491","0.0-15.0-1.11","a","COGS219_2020_34","<p style=""font-size: 48px;"">+</p>","null","2","","","","","","",""
"2347.5899999029934","","image-keyboard-response","499","2285841","0.0-15.0-2.11","a","COGS219_2020_34","Images/dog_orig.png","76","2","1583010003084","non-match","dog","cat","sound","test","true"
"null","","audio-keyboard-response","500","2287848","0.0-15.0-3.11","a","COGS219_2020_34","Sounds/correct.wav","null","2","","","","","","",""
"null","","audio-keyboard-response","501","2288921","0.0-15.0-0.12","a","COGS219_2020_34","Sounds/car_label.wav","null","2","","","","","","",""
"null","","html-keyboard-response","502","2289924","0.0-15.0-1.12","a","COGS219_2020_34","<p style=""font-size: 48px;"">+</p>","null","2","","","","","","",""
"551.6249999636784","","image-keyboard-response","503","2290482","0.0-15.0-2.12","a","COGS219_2020_34","Images/car_2.png","76","2","1583010009518","match","car","car","label","test","false"
"null","","audio-keyboard-response","504","2292496","0.0-15.0-3.12","a","COGS219_2020_34","Sounds/incorrect.wav","null","2","","","","","","",""
"null","","audio-keyboard-response","505","2293200","0.0-15.0-0.13","a","COGS219_2020_34","Sounds/whistle_label.wav","null","2","","","","","","",""
"null","","html-keyboard-response","506","2294191","0.0-15.0-1.13","a","COGS219_2020_34","<p style=""font-size: 48px;"">+</p>","null","2","","","","","","",""
"1392.2399999573827","","image-keyboard-response","507","2295585","0.0-15.0-2.13","a","COGS219_2020_34","Images/dog_1.png","76","2","1583010013784","non-match","dog","whistle","label","test","true"
"null","","audio-keyboard-response","508","2297600","0.0-15.0-3.13","a","COGS219_2020_34","Sounds/correct.wav","null","2","","","","","","",""
"null","","audio-keyboard-response","509","2298621","0.0-15.0-0.14","a","COGS219_2020_34","Sounds/cow_sound.wav","null","2","","","","","","",""
"null","","html-keyboard-response","510","2299625","0.0-15.0-1.14","a","COGS219_2020_34","<p style=""font-size: 48px;"">+</p>","null","2","","","","","","",""
"839.1199999023229","","image-keyboard-response","511","2300465","0.0-15.0-2.14","a","COGS219_2020_34","Images/cow_2.png","65","2","1583010019218","match","cow","cow","sound","test","true"
"null","","audio-keyboard-response","512","2302478","0.0-15.0-3.14","a","COGS219_2020_34","Sounds/correct.wav","null","2","","","","","","",""
"null","","audio-keyboard-response","513","2303761","0.0-15.0-0.15","a","COGS219_2020_34","Sounds/train_label.wav","null","2","","","","","","",""
"null","","html-keyboard-response","514","2304758","0.0-15.0-1.15","a","COGS219_2020_34","<p style=""font-size: 48px;"">+</p>","null","2","","","","","","",""
"768.7750000040978","","image-keyboard-response","515","2305529","0.0-15.0-2.15","a","COGS219_2020_34","Images/train_orig.png","65","2","1583010024352","match","train","train","label","test","true"
"null","","audio-keyboard-response","516","2307546","0.0-15.0-3.15","a","COGS219_2020_34","Sounds/correct.wav","null","2","","","","","","",""
"null","","audio-keyboard-response","517","2308121","0.0-15.0-0.16","a","COGS219_2020_34","Sounds/gun_label.wav","null","2","","","","","","",""
"null","","html-keyboard-response","518","2309125","0.0-15.0-1.16","a","COGS219_2020_34","<p style=""font-size: 48px;"">+</p>","null","2","","","","","","",""
"1010.5800000019372","","image-keyboard-response","519","2310137","0.0-15.0-2.16","a","COGS219_2020_34","Images/dog_3.png","76","2","1583010028718","non-match","dog","gun","label","test","true"
"null","","audio-keyboard-response","520","2312145","0.0-15.0-3.16","a","COGS219_2020_34","Sounds/correct.wav","null","2","","","","","","",""
"null","","audio-keyboard-response","521","2313221","0.0-15.0-0.17","a","COGS219_2020_34","Sounds/car_sound.wav","null","2","","","","","","",""
"null","","html-keyboard-response","522","2314225","0.0-15.0-1.17","a","COGS219_2020_34","<p style=""font-size: 48px;"">+</p>","null","2","","","","","","",""
"1599.0200000815094","","image-keyboard-response","523","2315825","0.0-15.0-2.17","a","COGS219_2020_34","Images/gun_3.png","76","2","1583010033818","non-match","gun","car","sound","test","true"
"null","","audio-keyboard-response","524","2317834","0.0-15.0-3.17","a","COGS219_2020_34","Sounds/correct.wav","null","2","","","","","","",""
"null","","audio-keyboard-response","525","2318961","0.0-15.0-0.18","a","COGS219_2020_34","Sounds/motorcycle_sound.wav","null","2","","","","","","",""
"null","","html-keyboard-response","526","2319959","0.0-15.0-1.18","a","COGS219_2020_34","<p style=""font-size: 48px;"">+</p>","null","2","","","","","","",""
"1305.4150000680238","","image-keyboard-response","527","2321265","0.0-15.0-2.18","a","COGS219_2020_34","Images/motorcycle_2.png","65","2","1583010039552","match","motorcycle","motorcycle","sound","test","true"
"null","","audio-keyboard-response","528","2323279","0.0-15.0-3.18","a","COGS219_2020_34","Sounds/correct.wav","null","2","","","","","","",""
"null","","audio-keyboard-response","529","2324561","0.0-15.0-0.19","a","COGS219_2020_34","Sounds/train_label.wav","null","2","","","","","","",""
"null","","html-keyboard-response","530","2325559","0.0-15.0-1.19","a","COGS219_2020_34","<p style=""font-size: 48px;"">+</p>","null","2","","","","","","",""
"889.9850000161678","","image-keyboard-response","531","2326450","0.0-15.0-2.19","a","COGS219_2020_34","Images/train_1.png","65","2","1583010045152","match","train","train","label","test","true"
"null","","audio-keyboard-response","532","2328461","0.0-15.0-3.19","a","COGS219_2020_34","Sounds/correct.wav","null","2","","","","","","",""
"null","","audio-keyboard-response","533","2329361","0.0-15.0-0.20","a","COGS219_2020_34","Sounds/frog_label.wav","null","2","","","","","","",""
"null","","html-keyboard-response","534","2330359","0.0-15.0-1.20","a","COGS219_2020_34","<p style=""font-size: 48px;"">+</p>","null","2","","","","","","",""
"1457.2350000962615","","image-keyboard-response","535","2331817","0.0-15.0-2.20","a","COGS219_2020_34","Images/frog_orig.png","65","2","1583010049952","match","frog","frog","label","test","true"
"null","","audio-keyboard-response","536","2333823","0.0-15.0-3.20","a","COGS219_2020_34","Sounds/correct.wav","null","2","","","","","","",""
"null","","audio-keyboard-response","537","2334901","0.0-15.0-0.21","a","COGS219_2020_34","Sounds/car_label.wav","null","2","","","","","","",""
"null","","html-keyboard-response","538","2335892","0.0-15.0-1.21","a","COGS219_2020_34","<p style=""font-size: 48px;"">+</p>","null","2","","","","","","",""
"860.1600000401959","","image-keyboard-response","539","2336753","0.0-15.0-2.21","a","COGS219_2020_34","Images/car_1.png","65","2","1583010055485","match","car","car","label","test","true"
"null","","audio-keyboard-response","540","2338763","0.0-15.0-3.21","a","COGS219_2020_34","Sounds/correct.wav","null","2","","","","","","",""
"null","","audio-keyboard-response","541","2340021","0.0-15.0-0.22","a","COGS219_2020_34","Sounds/train_label.wav","null","2","","","","","","",""
"null","","html-keyboard-response","542","2341025","0.0-15.0-1.22","a","COGS219_2020_34","<p style=""font-size: 48px;"">+</p>","null","2","","","","","","",""
"1582.8050000127405","","image-keyboard-response","543","2342609","0.0-15.0-2.22","a","COGS219_2020_34","Images/train_3.png","65","2","1583010060619","match","train","train","label","test","true"
"null","","audio-keyboard-response","544","2344617","0.0-15.0-3.22","a","COGS219_2020_34","Sounds/correct.wav","null","2","","","","","","",""
"null","","audio-keyboard-response","545","2345201","0.0-15.0-0.23","a","COGS219_2020_34","Sounds/gun_label.wav","null","2","","","","","","",""
"null","","html-keyboard-response","546","2346192","0.0-15.0-1.23","a","COGS219_2020_34","<p style=""font-size: 48px;"">+</p>","null","2","","","","","","",""
"6280.894999974407","","image-keyboard-response","547","2352474","0.0-15.0-2.23","a","COGS219_2020_34","Images/car_1.png","76","2","1583010065785","non-match","car","gun","label","test","true"
"null","","audio-keyboard-response","548","2354482","0.0-15.0-3.23","a","COGS219_2020_34","Sounds/correct.wav","null","2","","","","","","",""
"null","","audio-keyboard-response","549","2355561","0.0-15.0-0.24","a","COGS219_2020_34","Sounds/car_sound.wav","null","2","","","","","","",""
"null","","html-keyboard-response","550","2356559","0.0-15.0-1.24","a","COGS219_2020_34","<p style=""font-size: 48px;"">+</p>","null","2","","","","","","",""
"1665.2499999618158","","image-keyboard-response","551","2358225","0.0-15.0-2.24","a","COGS219_2020_34","Images/car_3.png","65","2","1583010076152","match","car","car","sound","test","true"
"null","","audio-keyboard-response","552","2360234","0.0-15.0-3.24","a","COGS219_2020_34","Sounds/correct.wav","null","2","","","","","","",""
"null","","audio-keyboard-response","553","2361081","0.0-15.0-0.25","a","COGS219_2020_34","Sounds/cat_label.wav","null","2","","","","","","",""
"null","","html-keyboard-response","554","2362076","0.0-15.0-1.25","a","COGS219_2020_34","<p style=""font-size: 48px;"">+</p>","null","2","","","","","","",""
"1108.5750000784174","","image-keyboard-response","555","2363185","0.0-15.0-2.25","a","COGS219_2020_34","Images/cat_3.png","65","2","1583010081669","match","cat","cat","label","test","true"
"null","","audio-keyboard-response","556","2365196","0.0-15.0-3.25","a","COGS219_2020_34","Sounds/correct.wav","null","2","","","","","","",""
"null","","audio-keyboard-response","557","2365901","0.0-15.0-0.26","a","COGS219_2020_34","Sounds/dog_sound.wav","null","2","","","","","","",""
"null","","html-keyboard-response","558","2366892","0.0-15.0-1.26","a","COGS219_2020_34","<p style=""font-size: 48px;"">+</p>","null","2","","","","","","",""
"931.8200000561774","","image-keyboard-response","559","2367825","0.0-15.0-2.26","a","COGS219_2020_34","Images/cow_2.png","76","2","1583010086486","non-match","cow","dog","sound","test","true"
"null","","audio-keyboard-response","560","2369839","0.0-15.0-3.26","a","COGS219_2020_34","Sounds/correct.wav","null","2","","","","","","",""
"null","","audio-keyboard-response","561","2370541","0.0-15.0-0.27","a","COGS219_2020_34","Sounds/whistle_label.wav","null","2","","","","","","",""
"null","","html-keyboard-response","562","2371559","0.0-15.0-1.27","a","COGS219_2020_34","<p style=""font-size: 48px;"">+</p>","null","2","","","","","","",""
"1232.8099999576807","","image-keyboard-response","563","2372793","0.0-15.0-2.27","a","COGS219_2020_34","Images/whistle_cartoon.png","65","2","1583010091152","match","whistle","whistle","label","test","true"
"null","","audio-keyboard-response","564","2374802","0.0-15.0-3.27","a","COGS219_2020_34","Sounds/correct.wav","null","2","","","","","","",""
"null","","audio-keyboard-response","565","2375721","0.0-15.0-0.28","a","COGS219_2020_34","Sounds/frog_sound.wav","null","2","","","","","","",""
"null","","html-keyboard-response","566","2376709","0.0-15.0-1.28","a","COGS219_2020_34","<p style=""font-size: 48px;"">+</p>","null","2","","","","","","",""
"779.4249999569729","","image-keyboard-response","567","2377490","0.0-15.0-2.28","a","COGS219_2020_34","Images/frog_1.png","65","2","1583010096303","match","frog","frog","sound","test","true"
"null","","audio-keyboard-response","568","2379497","0.0-15.0-3.28","a","COGS219_2020_34","Sounds/correct.wav","null","2","","","","","","",""
"null","","audio-keyboard-response","569","2380521","0.0-15.0-0.29","a","COGS219_2020_34","Sounds/cow_sound.wav","null","2","","","","","","",""
"null","","html-keyboard-response","570","2381526","0.0-15.0-1.29","a","COGS219_2020_34","<p style=""font-size: 48px;"">+</p>","null","2","","","","","","",""
"1642.2599999932572","","image-keyboard-response","571","2383169","0.0-15.0-2.29","a","COGS219_2020_34","Images/rooster_1.png","65","2","1583010101119","non-match","rooster","cow","sound","test","false"
"null","","audio-keyboard-response","572","2385182","0.0-15.0-3.29","a","COGS219_2020_34","Sounds/incorrect.wav","null","2","","","","","","",""
"null","","audio-keyboard-response","573","2386181","0.0-15.0-0.30","a","COGS219_2020_34","Sounds/cow_sound.wav","null","2","","","","","","",""
"null","","html-keyboard-response","574","2387176","0.0-15.0-1.30","a","COGS219_2020_34","<p style=""font-size: 48px;"">+</p>","null","2","","","","","","",""
"1056.2550000613555","","image-keyboard-response","575","2388234","0.0-15.0-2.30","a","COGS219_2020_34","Images/motorcycle_cartoon.png","76","2","1583010106769","non-match","motorcycle","cow","sound","test","true"
"null","","audio-keyboard-response","576","2390246","0.0-15.0-3.30","a","COGS219_2020_34","Sounds/correct.wav","null","2","","","","","","",""
"null","","audio-keyboard-response","577","2390821","0.0-15.0-0.31","a","COGS219_2020_34","Sounds/gun_sound.wav","null","2","","","","","","",""
"null","","html-keyboard-response","578","2391826","0.0-15.0-1.31","a","COGS219_2020_34","<p style=""font-size: 48px;"">+</p>","null","2","","","","","","",""
"517.8849999792874","","image-keyboard-response","579","2392345","0.0-15.0-2.31","a","COGS219_2020_34","Images/gun_2.png","65","2","1583010111419","match","gun","gun","sound","test","true"
"null","","audio-keyboard-response","580","2394350","0.0-15.0-3.31","a","COGS219_2020_34","Sounds/correct.wav","null","2","","","","","","",""
"null","","audio-keyboard-response","581","2395001","0.0-15.0-0.32","a","COGS219_2020_34","Sounds/dog_label.wav","null","2","","","","","","",""
"null","","html-keyboard-response","582","2395993","0.0-15.0-1.32","a","COGS219_2020_34","<p style=""font-size: 48px;"">+</p>","null","2","","","","","","",""
"1015.2800000505522","","image-keyboard-response","583","2397009","0.0-15.0-2.32","a","COGS219_2020_34","Images/dog_3.png","65","2","1583010115586","match","dog","dog","label","test","true"
"null","","audio-keyboard-response","584","2399017","0.0-15.0-3.32","a","COGS219_2020_34","Sounds/correct.wav","null","2","","","","","","",""
"null","","audio-keyboard-response","585","2399721","0.0-15.0-0.33","a","COGS219_2020_34","Sounds/rooster_sound.wav","null","2","","","","","","",""
"null","","html-keyboard-response","586","2400709","0.0-15.0-1.33","a","COGS219_2020_34","<p style=""font-size: 48px;"">+</p>","null","2","","","","","","",""
"851.0300000198185","","image-keyboard-response","587","2401562","0.0-15.0-2.33","a","COGS219_2020_34","Images/rooster_3.png","65","2","1583010120303","match","rooster","rooster","sound","test","true"
"null","","audio-keyboard-response","588","2403567","0.0-15.0-3.33","a","COGS219_2020_34","Sounds/correct.wav","null","2","","","","","","",""
"null","","audio-keyboard-response","589","2404641","0.0-15.0-0.34","a","COGS219_2020_34","Sounds/car_label.wav","null","2","","","","","","",""
"null","","html-keyboard-response","590","2405643","0.0-15.0-1.34","a","COGS219_2020_34","<p style=""font-size: 48px;"">+</p>","null","2","","","","","","",""
"805.3650000365451","","image-keyboard-response","591","2406449","0.0-15.0-2.34","a","COGS219_2020_34","Images/car_cartoon.png","65","2","1583010125236","match","car","car","label","test","true"
"null","","audio-keyboard-response","592","2408466","0.0-15.0-3.34","a","COGS219_2020_34","Sounds/correct.wav","null","2","","","","","","",""
"null","","audio-keyboard-response","593","2409041","0.0-15.0-0.35","a","COGS219_2020_34","Sounds/gun_sound.wav","null","2","","","","","","",""
"null","","html-keyboard-response","594","2410043","0.0-15.0-1.35","a","COGS219_2020_34","<p style=""font-size: 48px;"">+</p>","null","2","","","","","","",""
"653.2049999805167","","image-keyboard-response","595","2410697","0.0-15.0-2.35","a","COGS219_2020_34","Images/whistle_2.png","76","2","1583010129636","non-match","whistle","gun","sound","test","true"
"null","","audio-keyboard-response","596","2412714","0.0-15.0-3.35","a","COGS219_2020_34","Sounds/correct.wav","null","2","","","","","","",""
"null","","audio-keyboard-response","597","2414001","0.0-15.0-0.36","a","COGS219_2020_34","Sounds/train_label.wav","null","2","","","","","","",""
"null","","html-keyboard-response","598","2414993","0.0-15.0-1.36","a","COGS219_2020_34","<p style=""font-size: 48px;"">+</p>","null","2","","","","","","",""
"775.2249999903142","","image-keyboard-response","599","2415769","0.0-15.0-2.36","a","COGS219_2020_34","Images/frog_cartoon.png","76","2","1583010134586","non-match","frog","train","label","test","true"
"null","","audio-keyboard-response","600","2417780","0.0-15.0-3.36","a","COGS219_2020_34","Sounds/correct.wav","null","2","","","","","","",""
"null","","audio-keyboard-response","601","2418481","0.0-15.0-0.37","a","COGS219_2020_34","Sounds/rooster_label.wav","null","2","","","","","","",""
"null","","html-keyboard-response","602","2419476","0.0-15.0-1.37","a","COGS219_2020_34","<p style=""font-size: 48px;"">+</p>","null","2","","","","","","",""
"659.7299999557436","","image-keyboard-response","603","2420137","0.0-15.0-2.37","a","COGS219_2020_34","Images/cow_orig.png","76","2","1583010139070","non-match","cow","rooster","label","test","true"
"null","","audio-keyboard-response","604","2422148","0.0-15.0-3.37","a","COGS219_2020_34","Sounds/correct.wav","null","2","","","","","","",""
