[{"rt":10809.40000000001,"responses":"{\"Q0\":\"COGS219_2020_37\"}","trial_type":"survey-text","trial_index":0,"time_elapsed":10846,"internal_node_id":"0.0-0.0","match_key":"l","participant_id":"COGS219_2020_37"},{"rt":16827.069999999992,"stimulus":"<p>Use KEYBOARD 1 (match RIGHT)</p><p>Press MATCH to continue.</p>","key_press":76,"trial_type":"html-keyboard-response","trial_index":1,"time_elapsed":27685,"internal_node_id":"0.0-1.0","match_key":"l","participant_id":"COGS219_2020_37"},{"rt":1580260.4300000002,"stimulus":"<p>Welcome to the experiment.</p>","key_press":39,"trial_type":"html-keyboard-response","trial_index":2,"time_elapsed":1608660,"internal_node_id":"0.0-2.0","match_key":"l","participant_id":"COGS219_2020_37"},{"rt":15075.824999999953,"stimulus":"<p>Thank you for agreeing to participate in this study.</p><p>If during any part of the procedure you must stop for any reason, please inform the researcher that you do not wish to continue.</p>","key_press":39,"trial_type":"html-keyboard-response","trial_index":3,"time_elapsed":1623743,"internal_node_id":"0.0-3.0","match_key":"l","participant_id":"COGS219_2020_37"},{"rt":17518.534999999916,"stimulus":"<p>In this experiment, you will hear various words or sounds and see pictures of various animals and objects.</p><p>Most of the images will be of common everyday objects, such as cars, cats, cows, firearms, frogs, chickens, whistles, trains, motorcycles, and dogs.</p><p>Some of the images will be real-life stills, while others will be cartoons.</p>","key_press":39,"trial_type":"html-keyboard-response","trial_index":4,"time_elapsed":1641263,"internal_node_id":"0.0-4.0","match_key":"l","participant_id":"COGS219_2020_37"},{"rt":12767.065000000177,"stimulus":"<p>Sometimes, the word/sound will match the picture, for example you'll hear a meowing sound and see a cat.</p><p>Other times, the picture will not match the sound or word.</p><p>Your task is to decide as quickly as possible if the word/sound matches the picture or not. </p>","key_press":39,"trial_type":"html-keyboard-response","trial_index":5,"time_elapsed":1654032,"internal_node_id":"0.0-5.0","match_key":"l","participant_id":"COGS219_2020_37"},{"rt":10238.605000000214,"stimulus":"<p>For example, if you hear the word \"cat\" or hear a meowing sound, and then see a picture of a cat, you should press the MATCH key.</p><p> If the sound and image do not match, press the NOT-MATCH key to indicate that there is not a match.</p>","key_press":39,"trial_type":"html-keyboard-response","trial_index":6,"time_elapsed":1664271,"internal_node_id":"0.0-6.0","match_key":"l","participant_id":"COGS219_2020_37"},{"rt":11872.069999999832,"stimulus":"<p>If you make a mistake, you will hear a buzzing sound instead of a more pleasant sound.</p><p> Try to respond as quickly as possible, while making as few errors as possible. If you are making mistakes, you are probably rushing.</p>","key_press":39,"trial_type":"html-keyboard-response","trial_index":7,"time_elapsed":1676145,"internal_node_id":"0.0-7.0","match_key":"l","participant_id":"COGS219_2020_37"},{"rt":62685.19999999995,"stimulus":"<p>Please try to not move or blink your eyes during the presentation of the images. You can move and blink between images.</p><p>During the experiment there will be some breaks during which you can rest your eyes.</p>","key_press":76,"trial_type":"html-keyboard-response","trial_index":8,"time_elapsed":1738831,"internal_node_id":"0.0-8.0","match_key":"l","participant_id":"COGS219_2020_37"},{"rt":5054.494999999879,"stimulus":"<p>We will begin with 10 practice trials. Please let the experimenter know if you have any questions.</p>","key_press":76,"trial_type":"html-keyboard-response","trial_index":9,"time_elapsed":1743887,"internal_node_id":"0.0-9.0","match_key":"l","participant_id":"COGS219_2020_37"},{"rt":null,"stimulus":"Sounds/cow_label.wav","key_press":null,"block":0,"trial_type":"audio-keyboard-response","trial_index":10,"time_elapsed":1745033,"internal_node_id":"0.0-10.0-0.0","match_key":"l","participant_id":"COGS219_2020_37"},{"rt":null,"stimulus":"<p style=\"font-size: 48px;\">+</p>","key_press":null,"block":0,"trial_type":"html-keyboard-response","trial_index":11,"time_elapsed":1746036,"internal_node_id":"0.0-10.0-1.0","match_key":"l","participant_id":"COGS219_2020_37"},{"rt":905.1449999997858,"stimulus":"Images/rooster_orig.png","key_press":65,"stim_onset":1583109801059,"block":0,"match_type":"non-match","image_category":"rooster","sound_category":"cow","audio_type":"label","phase":"practice","trial_type":"image-keyboard-response","trial_index":12,"time_elapsed":1746943,"internal_node_id":"0.0-10.0-2.0","match_key":"l","participant_id":"COGS219_2020_37","correct":true},{"rt":null,"stimulus":"Sounds/correct.wav","key_press":null,"block":0,"trial_type":"audio-keyboard-response","trial_index":13,"time_elapsed":1748946,"internal_node_id":"0.0-10.0-3.0","match_key":"l","participant_id":"COGS219_2020_37"},{"rt":null,"stimulus":"Sounds/car_sound.wav","key_press":null,"block":0,"trial_type":"audio-keyboard-response","trial_index":14,"time_elapsed":1750033,"internal_node_id":"0.0-10.0-0.1","match_key":"l","participant_id":"COGS219_2020_37"},{"rt":null,"stimulus":"<p style=\"font-size: 48px;\">+</p>","key_press":null,"block":0,"trial_type":"html-keyboard-response","trial_index":15,"time_elapsed":1751036,"internal_node_id":"0.0-10.0-1.1","match_key":"l","participant_id":"COGS219_2020_37"},{"rt":786.2849999999162,"stimulus":"Images/car_2.png","key_press":76,"stim_onset":1583109806059,"block":0,"match_type":"match","image_category":"car","sound_category":"car","audio_type":"sound","phase":"practice","trial_type":"image-keyboard-response","trial_index":16,"time_elapsed":1751824,"internal_node_id":"0.0-10.0-2.1","match_key":"l","participant_id":"COGS219_2020_37","correct":true},{"rt":null,"stimulus":"Sounds/correct.wav","key_press":null,"block":0,"trial_type":"audio-keyboard-response","trial_index":17,"time_elapsed":1753829,"internal_node_id":"0.0-10.0-3.1","match_key":"l","participant_id":"COGS219_2020_37"},{"rt":null,"stimulus":"Sounds/dog_sound.wav","key_press":null,"block":0,"trial_type":"audio-keyboard-response","trial_index":18,"time_elapsed":1754533,"internal_node_id":"0.0-10.0-0.2","match_key":"l","participant_id":"COGS219_2020_37"},{"rt":null,"stimulus":"<p style=\"font-size: 48px;\">+</p>","key_press":null,"block":0,"trial_type":"html-keyboard-response","trial_index":19,"time_elapsed":1755536,"internal_node_id":"0.0-10.0-1.2","match_key":"l","participant_id":"COGS219_2020_37"},{"rt":733.5299999997951,"stimulus":"Images/dog_orig.png","key_press":76,"stim_onset":1583109810560,"block":0,"match_type":"match","image_category":"dog","sound_category":"dog","audio_type":"sound","phase":"practice","trial_type":"image-keyboard-response","trial_index":20,"time_elapsed":1756271,"internal_node_id":"0.0-10.0-2.2","match_key":"l","participant_id":"COGS219_2020_37","correct":true},{"rt":null,"stimulus":"Sounds/correct.wav","key_press":null,"block":0,"trial_type":"audio-keyboard-response","trial_index":21,"time_elapsed":1758274,"internal_node_id":"0.0-10.0-3.2","match_key":"l","participant_id":"COGS219_2020_37"},{"rt":null,"stimulus":"Sounds/cow_label.wav","key_press":null,"block":0,"trial_type":"audio-keyboard-response","trial_index":22,"time_elapsed":1759273,"internal_node_id":"0.0-10.0-0.3","match_key":"l","participant_id":"COGS219_2020_37"},{"rt":null,"stimulus":"<p style=\"font-size: 48px;\">+</p>","key_press":null,"block":0,"trial_type":"html-keyboard-response","trial_index":23,"time_elapsed":1760270,"internal_node_id":"0.0-10.0-1.3","match_key":"l","participant_id":"COGS219_2020_37"},{"rt":592.0649999999441,"stimulus":"Images/cow_2.png","key_press":76,"stim_onset":1583109815293,"block":0,"match_type":"match","image_category":"cow","sound_category":"cow","audio_type":"label","phase":"practice","trial_type":"image-keyboard-response","trial_index":24,"time_elapsed":1760863,"internal_node_id":"0.0-10.0-2.3","match_key":"l","participant_id":"COGS219_2020_37","correct":true},{"rt":null,"stimulus":"Sounds/correct.wav","key_press":null,"block":0,"trial_type":"audio-keyboard-response","trial_index":25,"time_elapsed":1762866,"internal_node_id":"0.0-10.0-3.3","match_key":"l","participant_id":"COGS219_2020_37"},{"rt":null,"stimulus":"Sounds/motorcycle_label.wav","key_press":null,"block":0,"trial_type":"audio-keyboard-response","trial_index":26,"time_elapsed":1764013,"internal_node_id":"0.0-10.0-0.4","match_key":"l","participant_id":"COGS219_2020_37"},{"rt":null,"stimulus":"<p style=\"font-size: 48px;\">+</p>","key_press":null,"block":0,"trial_type":"html-keyboard-response","trial_index":27,"time_elapsed":1765003,"internal_node_id":"0.0-10.0-1.4","match_key":"l","participant_id":"COGS219_2020_37"},{"rt":723.0500000000466,"stimulus":"Images/car_orig.png","key_press":65,"stim_onset":1583109820026,"block":0,"match_type":"non-match","image_category":"car","sound_category":"motorcycle","audio_type":"label","phase":"practice","trial_type":"image-keyboard-response","trial_index":28,"time_elapsed":1765727,"internal_node_id":"0.0-10.0-2.4","match_key":"l","participant_id":"COGS219_2020_37","correct":true},{"rt":null,"stimulus":"Sounds/correct.wav","key_press":null,"block":0,"trial_type":"audio-keyboard-response","trial_index":29,"time_elapsed":1767730,"internal_node_id":"0.0-10.0-3.4","match_key":"l","participant_id":"COGS219_2020_37"},{"rt":null,"stimulus":"Sounds/train_sound.wav","key_press":null,"block":0,"trial_type":"audio-keyboard-response","trial_index":30,"time_elapsed":1769032,"internal_node_id":"0.0-10.0-0.5","match_key":"l","participant_id":"COGS219_2020_37"},{"rt":null,"stimulus":"<p style=\"font-size: 48px;\">+</p>","key_press":null,"block":0,"trial_type":"html-keyboard-response","trial_index":31,"time_elapsed":1770036,"internal_node_id":"0.0-10.0-1.5","match_key":"l","participant_id":"COGS219_2020_37"},{"rt":568.2650000001304,"stimulus":"Images/cat_1.png","key_press":65,"stim_onset":1583109825060,"block":0,"match_type":"non-match","image_category":"cat","sound_category":"train","audio_type":"sound","phase":"practice","trial_type":"image-keyboard-response","trial_index":32,"time_elapsed":1770607,"internal_node_id":"0.0-10.0-2.5","match_key":"l","participant_id":"COGS219_2020_37","correct":true},{"rt":null,"stimulus":"Sounds/correct.wav","key_press":null,"block":0,"trial_type":"audio-keyboard-response","trial_index":33,"time_elapsed":1772609,"internal_node_id":"0.0-10.0-3.5","match_key":"l","participant_id":"COGS219_2020_37"},{"rt":null,"stimulus":"Sounds/cat_sound.wav","key_press":null,"block":0,"trial_type":"audio-keyboard-response","trial_index":34,"time_elapsed":1773453,"internal_node_id":"0.0-10.0-0.6","match_key":"l","participant_id":"COGS219_2020_37"},{"rt":null,"stimulus":"<p style=\"font-size: 48px;\">+</p>","key_press":null,"block":0,"trial_type":"html-keyboard-response","trial_index":35,"time_elapsed":1774470,"internal_node_id":"0.0-10.0-1.6","match_key":"l","participant_id":"COGS219_2020_37"},{"rt":615.9550000000745,"stimulus":"Images/dog_cartoon.png","key_press":65,"stim_onset":1583109829493,"block":0,"match_type":"non-match","image_category":"dog","sound_category":"cat","audio_type":"sound","phase":"practice","trial_type":"image-keyboard-response","trial_index":36,"time_elapsed":1775087,"internal_node_id":"0.0-10.0-2.6","match_key":"l","participant_id":"COGS219_2020_37","correct":true},{"rt":null,"stimulus":"Sounds/correct.wav","key_press":null,"block":0,"trial_type":"audio-keyboard-response","trial_index":37,"time_elapsed":1777090,"internal_node_id":"0.0-10.0-3.6","match_key":"l","participant_id":"COGS219_2020_37"},{"rt":null,"stimulus":"Sounds/motorcycle_sound.wav","key_press":null,"block":0,"trial_type":"audio-keyboard-response","trial_index":38,"time_elapsed":1778213,"internal_node_id":"0.0-10.0-0.7","match_key":"l","participant_id":"COGS219_2020_37"},{"rt":null,"stimulus":"<p style=\"font-size: 48px;\">+</p>","key_press":null,"block":0,"trial_type":"html-keyboard-response","trial_index":39,"time_elapsed":1779203,"internal_node_id":"0.0-10.0-1.7","match_key":"l","participant_id":"COGS219_2020_37"},{"rt":394.9550000000745,"stimulus":"Images/motorcycle_orig.png","key_press":76,"stim_onset":1583109834226,"block":0,"match_type":"match","image_category":"motorcycle","sound_category":"motorcycle","audio_type":"sound","phase":"practice","trial_type":"image-keyboard-response","trial_index":40,"time_elapsed":1779599,"internal_node_id":"0.0-10.0-2.7","match_key":"l","participant_id":"COGS219_2020_37","correct":true},{"rt":null,"stimulus":"Sounds/correct.wav","key_press":null,"block":0,"trial_type":"audio-keyboard-response","trial_index":41,"time_elapsed":1781603,"internal_node_id":"0.0-10.0-3.7","match_key":"l","participant_id":"COGS219_2020_37"},{"rt":null,"stimulus":"Sounds/cow_sound.wav","key_press":null,"block":0,"trial_type":"audio-keyboard-response","trial_index":42,"time_elapsed":1782613,"internal_node_id":"0.0-10.0-0.8","match_key":"l","participant_id":"COGS219_2020_37"},{"rt":null,"stimulus":"<p style=\"font-size: 48px;\">+</p>","key_press":null,"block":0,"trial_type":"html-keyboard-response","trial_index":43,"time_elapsed":1783603,"internal_node_id":"0.0-10.0-1.8","match_key":"l","participant_id":"COGS219_2020_37"},{"rt":554.7000000001863,"stimulus":"Images/cow_1.png","key_press":76,"stim_onset":1583109838627,"block":0,"match_type":"match","image_category":"cow","sound_category":"cow","audio_type":"sound","phase":"practice","trial_type":"image-keyboard-response","trial_index":44,"time_elapsed":1784159,"internal_node_id":"0.0-10.0-2.8","match_key":"l","participant_id":"COGS219_2020_37","correct":true},{"rt":null,"stimulus":"Sounds/correct.wav","key_press":null,"block":0,"trial_type":"audio-keyboard-response","trial_index":45,"time_elapsed":1786162,"internal_node_id":"0.0-10.0-3.8","match_key":"l","participant_id":"COGS219_2020_37"},{"rt":null,"stimulus":"Sounds/whistle_sound.wav","key_press":null,"block":0,"trial_type":"audio-keyboard-response","trial_index":46,"time_elapsed":1786853,"internal_node_id":"0.0-10.0-0.9","match_key":"l","participant_id":"COGS219_2020_37"},{"rt":null,"stimulus":"<p style=\"font-size: 48px;\">+</p>","key_press":null,"block":0,"trial_type":"html-keyboard-response","trial_index":47,"time_elapsed":1787870,"internal_node_id":"0.0-10.0-1.9","match_key":"l","participant_id":"COGS219_2020_37"},{"rt":655.9450000000652,"stimulus":"Images/whistle_1.png","key_press":76,"stim_onset":1583109842893,"block":0,"match_type":"match","image_category":"whistle","sound_category":"whistle","audio_type":"sound","phase":"practice","trial_type":"image-keyboard-response","trial_index":48,"time_elapsed":1788527,"internal_node_id":"0.0-10.0-2.9","match_key":"l","participant_id":"COGS219_2020_37","correct":true},{"rt":null,"stimulus":"Sounds/correct.wav","key_press":null,"block":0,"trial_type":"audio-keyboard-response","trial_index":49,"time_elapsed":1790530,"internal_node_id":"0.0-10.0-3.9","match_key":"l","participant_id":"COGS219_2020_37"},{"rt":43212.67500000005,"stimulus":"<p>The rest of the experiment is divided into five blocks with 100 trials in each block. It will take about 45 minutes to complete.</p><p>The experimenter will be in the outer room and you can communicate with them through the monitor if you have any questions or wish to stop the experiment.</p>","key_press":76,"trial_type":"html-keyboard-response","trial_index":50,"time_elapsed":1833743,"internal_node_id":"0.0-11.0","match_key":"l","participant_id":"COGS219_2020_37"},{"rt":7358.969999999972,"stimulus":"<p>Remember, please try not to move or blink your eyes during the presentation of the images. </p><p>At the end of the experiment, we will show you your scores on the task so you can see how you did.</p><p>The experiment will start on the next screen.</p>","key_press":76,"trial_type":"html-keyboard-response","trial_index":51,"time_elapsed":1841103,"internal_node_id":"0.0-12.0","match_key":"l","participant_id":"COGS219_2020_37"},{"rt":null,"stimulus":"Sounds/cat_sound.wav","key_press":null,"block":1,"trial_type":"audio-keyboard-response","trial_index":52,"time_elapsed":1843965,"internal_node_id":"0.0-13.0-0.0","match_key":"l","participant_id":"COGS219_2020_37"},{"rt":null,"stimulus":"<p style=\"font-size: 48px;\">+</p>","key_press":null,"block":1,"trial_type":"html-keyboard-response","trial_index":53,"time_elapsed":1844954,"internal_node_id":"0.0-13.0-1.0","match_key":"l","participant_id":"COGS219_2020_37"},{"rt":516.065000000177,"stimulus":"Images/motorcycle_2.png","key_press":65,"stim_onset":1583109899977,"block":1,"match_type":"non-match","image_category":"motorcycle","sound_category":"cat","audio_type":"sound","phase":"test","trial_type":"image-keyboard-response","trial_index":54,"time_elapsed":1845471,"internal_node_id":"0.0-13.0-2.0","match_key":"l","participant_id":"COGS219_2020_37","correct":true},{"rt":null,"stimulus":"Sounds/correct.wav","key_press":null,"block":1,"trial_type":"audio-keyboard-response","trial_index":55,"time_elapsed":1847475,"internal_node_id":"0.0-13.0-3.0","match_key":"l","participant_id":"COGS219_2020_37"},{"rt":null,"stimulus":"Sounds/frog_label.wav","key_press":null,"block":1,"trial_type":"audio-keyboard-response","trial_index":56,"time_elapsed":1848366,"internal_node_id":"0.0-13.0-0.1","match_key":"l","participant_id":"COGS219_2020_37"},{"rt":null,"stimulus":"<p style=\"font-size: 48px;\">+</p>","key_press":null,"block":1,"trial_type":"html-keyboard-response","trial_index":57,"time_elapsed":1849371,"internal_node_id":"0.0-13.0-1.1","match_key":"l","participant_id":"COGS219_2020_37"},{"rt":483.19999999995343,"stimulus":"Images/car_2.png","key_press":65,"stim_onset":1583109904394,"block":1,"match_type":"non-match","image_category":"car","sound_category":"frog","audio_type":"label","phase":"test","trial_type":"image-keyboard-response","trial_index":58,"time_elapsed":1849855,"internal_node_id":"0.0-13.0-2.1","match_key":"l","participant_id":"COGS219_2020_37","correct":true},{"rt":null,"stimulus":"Sounds/correct.wav","key_press":null,"block":1,"trial_type":"audio-keyboard-response","trial_index":59,"time_elapsed":1851858,"internal_node_id":"0.0-13.0-3.1","match_key":"l","participant_id":"COGS219_2020_37"},{"rt":null,"stimulus":"Sounds/motorcycle_label.wav","key_press":null,"block":1,"trial_type":"audio-keyboard-response","trial_index":60,"time_elapsed":1852985,"internal_node_id":"0.0-13.0-0.2","match_key":"l","participant_id":"COGS219_2020_37"},{"rt":null,"stimulus":"<p style=\"font-size: 48px;\">+</p>","key_press":null,"block":1,"trial_type":"html-keyboard-response","trial_index":61,"time_elapsed":1853987,"internal_node_id":"0.0-13.0-1.2","match_key":"l","participant_id":"COGS219_2020_37"},{"rt":618.6599999996834,"stimulus":"Images/train_2.png","key_press":65,"stim_onset":1583109909011,"block":1,"match_type":"non-match","image_category":"train","sound_category":"motorcycle","audio_type":"label","phase":"test","trial_type":"image-keyboard-response","trial_index":62,"time_elapsed":1854607,"internal_node_id":"0.0-13.0-2.2","match_key":"l","participant_id":"COGS219_2020_37","correct":true},{"rt":null,"stimulus":"Sounds/correct.wav","key_press":null,"block":1,"trial_type":"audio-keyboard-response","trial_index":63,"time_elapsed":1856610,"internal_node_id":"0.0-13.0-3.2","match_key":"l","participant_id":"COGS219_2020_37"},{"rt":null,"stimulus":"Sounds/whistle_label.wav","key_press":null,"block":1,"trial_type":"audio-keyboard-response","trial_index":64,"time_elapsed":1857305,"internal_node_id":"0.0-13.0-0.3","match_key":"l","participant_id":"COGS219_2020_37"},{"rt":null,"stimulus":"<p style=\"font-size: 48px;\">+</p>","key_press":null,"block":1,"trial_type":"html-keyboard-response","trial_index":65,"time_elapsed":1858304,"internal_node_id":"0.0-13.0-1.3","match_key":"l","participant_id":"COGS219_2020_37"},{"rt":558.0600000002887,"stimulus":"Images/cow_2.png","key_press":65,"stim_onset":1583109913327,"block":1,"match_type":"non-match","image_category":"cow","sound_category":"whistle","audio_type":"label","phase":"test","trial_type":"image-keyboard-response","trial_index":66,"time_elapsed":1858863,"internal_node_id":"0.0-13.0-2.3","match_key":"l","participant_id":"COGS219_2020_37","correct":true},{"rt":null,"stimulus":"Sounds/correct.wav","key_press":null,"block":1,"trial_type":"audio-keyboard-response","trial_index":67,"time_elapsed":1860866,"internal_node_id":"0.0-13.0-3.3","match_key":"l","participant_id":"COGS219_2020_37"},{"rt":null,"stimulus":"Sounds/cow_label.wav","key_press":null,"block":1,"trial_type":"audio-keyboard-response","trial_index":68,"time_elapsed":1861884,"internal_node_id":"0.0-13.0-0.4","match_key":"l","participant_id":"COGS219_2020_37"},{"rt":null,"stimulus":"<p style=\"font-size: 48px;\">+</p>","key_press":null,"block":1,"trial_type":"html-keyboard-response","trial_index":69,"time_elapsed":1862887,"internal_node_id":"0.0-13.0-1.4","match_key":"l","participant_id":"COGS219_2020_37"},{"rt":582.5150000001304,"stimulus":"Images/cow_1.png","key_press":76,"stim_onset":1583109917911,"block":1,"match_type":"match","image_category":"cow","sound_category":"cow","audio_type":"label","phase":"test","trial_type":"image-keyboard-response","trial_index":70,"time_elapsed":1863471,"internal_node_id":"0.0-13.0-2.4","match_key":"l","participant_id":"COGS219_2020_37","correct":true},{"rt":null,"stimulus":"Sounds/correct.wav","key_press":null,"block":1,"trial_type":"audio-keyboard-response","trial_index":71,"time_elapsed":1865475,"internal_node_id":"0.0-13.0-3.4","match_key":"l","participant_id":"COGS219_2020_37"},{"rt":null,"stimulus":"Sounds/cat_sound.wav","key_press":null,"block":1,"trial_type":"audio-keyboard-response","trial_index":72,"time_elapsed":1866305,"internal_node_id":"0.0-13.0-0.5","match_key":"l","participant_id":"COGS219_2020_37"},{"rt":null,"stimulus":"<p style=\"font-size: 48px;\">+</p>","key_press":null,"block":1,"trial_type":"html-keyboard-response","trial_index":73,"time_elapsed":1867304,"internal_node_id":"0.0-13.0-1.5","match_key":"l","participant_id":"COGS219_2020_37"},{"rt":406.09499999997206,"stimulus":"Images/car_3.png","key_press":65,"stim_onset":1583109922327,"block":1,"match_type":"non-match","image_category":"car","sound_category":"cat","audio_type":"sound","phase":"test","trial_type":"image-keyboard-response","trial_index":74,"time_elapsed":1867711,"internal_node_id":"0.0-13.0-2.5","match_key":"l","participant_id":"COGS219_2020_37","correct":true},{"rt":null,"stimulus":"Sounds/correct.wav","key_press":null,"block":1,"trial_type":"audio-keyboard-response","trial_index":75,"time_elapsed":1869714,"internal_node_id":"0.0-13.0-3.5","match_key":"l","participant_id":"COGS219_2020_37"},{"rt":null,"stimulus":"Sounds/dog_sound.wav","key_press":null,"block":1,"trial_type":"audio-keyboard-response","trial_index":76,"time_elapsed":1870425,"internal_node_id":"0.0-13.0-0.6","match_key":"l","participant_id":"COGS219_2020_37"},{"rt":null,"stimulus":"<p style=\"font-size: 48px;\">+</p>","key_press":null,"block":1,"trial_type":"html-keyboard-response","trial_index":77,"time_elapsed":1871421,"internal_node_id":"0.0-13.0-1.6","match_key":"l","participant_id":"COGS219_2020_37"},{"rt":465.4700000002049,"stimulus":"Images/dog_2.png","key_press":76,"stim_onset":1583109926444,"block":1,"match_type":"match","image_category":"dog","sound_category":"dog","audio_type":"sound","phase":"test","trial_type":"image-keyboard-response","trial_index":78,"time_elapsed":1871888,"internal_node_id":"0.0-13.0-2.6","match_key":"l","participant_id":"COGS219_2020_37","correct":true},{"rt":null,"stimulus":"Sounds/correct.wav","key_press":null,"block":1,"trial_type":"audio-keyboard-response","trial_index":79,"time_elapsed":1873890,"internal_node_id":"0.0-13.0-3.6","match_key":"l","participant_id":"COGS219_2020_37"},{"rt":null,"stimulus":"Sounds/dog_sound.wav","key_press":null,"block":1,"trial_type":"audio-keyboard-response","trial_index":80,"time_elapsed":1874585,"internal_node_id":"0.0-13.0-0.7","match_key":"l","participant_id":"COGS219_2020_37"},{"rt":null,"stimulus":"<p style=\"font-size: 48px;\">+</p>","key_press":null,"block":1,"trial_type":"html-keyboard-response","trial_index":81,"time_elapsed":1875588,"internal_node_id":"0.0-13.0-1.7","match_key":"l","participant_id":"COGS219_2020_37"},{"rt":506.21999999997206,"stimulus":"Images/cow_orig.png","key_press":65,"stim_onset":1583109930612,"block":1,"match_type":"non-match","image_category":"cow","sound_category":"dog","audio_type":"sound","phase":"test","trial_type":"image-keyboard-response","trial_index":82,"time_elapsed":1876096,"internal_node_id":"0.0-13.0-2.7","match_key":"l","participant_id":"COGS219_2020_37","correct":true},{"rt":null,"stimulus":"Sounds/correct.wav","key_press":null,"block":1,"trial_type":"audio-keyboard-response","trial_index":83,"time_elapsed":1878098,"internal_node_id":"0.0-13.0-3.7","match_key":"l","participant_id":"COGS219_2020_37"},{"rt":null,"stimulus":"Sounds/train_sound.wav","key_press":null,"block":1,"trial_type":"audio-keyboard-response","trial_index":84,"time_elapsed":1879405,"internal_node_id":"0.0-13.0-0.8","match_key":"l","participant_id":"COGS219_2020_37"},{"rt":null,"stimulus":"<p style=\"font-size: 48px;\">+</p>","key_press":null,"block":1,"trial_type":"html-keyboard-response","trial_index":85,"time_elapsed":1880405,"internal_node_id":"0.0-13.0-1.8","match_key":"l","participant_id":"COGS219_2020_37"},{"rt":777.6399999998976,"stimulus":"Images/frog_orig.png","key_press":65,"stim_onset":1583109935428,"block":1,"match_type":"non-match","image_category":"frog","sound_category":"train","audio_type":"sound","phase":"test","trial_type":"image-keyboard-response","trial_index":86,"time_elapsed":1881184,"internal_node_id":"0.0-13.0-2.8","match_key":"l","participant_id":"COGS219_2020_37","correct":true},{"rt":null,"stimulus":"Sounds/correct.wav","key_press":null,"block":1,"trial_type":"audio-keyboard-response","trial_index":87,"time_elapsed":1883186,"internal_node_id":"0.0-13.0-3.8","match_key":"l","participant_id":"COGS219_2020_37"},{"rt":null,"stimulus":"Sounds/rooster_sound.wav","key_press":null,"block":1,"trial_type":"audio-keyboard-response","trial_index":88,"time_elapsed":1883885,"internal_node_id":"0.0-13.0-0.9","match_key":"l","participant_id":"COGS219_2020_37"},{"rt":null,"stimulus":"<p style=\"font-size: 48px;\">+</p>","key_press":null,"block":1,"trial_type":"html-keyboard-response","trial_index":89,"time_elapsed":1884888,"internal_node_id":"0.0-13.0-1.9","match_key":"l","participant_id":"COGS219_2020_37"},{"rt":582.5600000000559,"stimulus":"Images/cat_1.png","key_press":65,"stim_onset":1583109939912,"block":1,"match_type":"non-match","image_category":"cat","sound_category":"rooster","audio_type":"sound","phase":"test","trial_type":"image-keyboard-response","trial_index":90,"time_elapsed":1885472,"internal_node_id":"0.0-13.0-2.9","match_key":"l","participant_id":"COGS219_2020_37","correct":true},{"rt":null,"stimulus":"Sounds/correct.wav","key_press":null,"block":1,"trial_type":"audio-keyboard-response","trial_index":91,"time_elapsed":1887475,"internal_node_id":"0.0-13.0-3.9","match_key":"l","participant_id":"COGS219_2020_37"},{"rt":null,"stimulus":"Sounds/dog_sound.wav","key_press":null,"block":1,"trial_type":"audio-keyboard-response","trial_index":92,"time_elapsed":1888165,"internal_node_id":"0.0-13.0-0.10","match_key":"l","participant_id":"COGS219_2020_37"},{"rt":null,"stimulus":"<p style=\"font-size: 48px;\">+</p>","key_press":null,"block":1,"trial_type":"html-keyboard-response","trial_index":93,"time_elapsed":1889155,"internal_node_id":"0.0-13.0-1.10","match_key":"l","participant_id":"COGS219_2020_37"},{"rt":619.5700000000652,"stimulus":"Images/cat_cartoon.png","key_press":65,"stim_onset":1583109944178,"block":1,"match_type":"non-match","image_category":"cat","sound_category":"dog","audio_type":"sound","phase":"test","trial_type":"image-keyboard-response","trial_index":94,"time_elapsed":1889776,"internal_node_id":"0.0-13.0-2.10","match_key":"l","participant_id":"COGS219_2020_37","correct":true},{"rt":null,"stimulus":"Sounds/correct.wav","key_press":null,"block":1,"trial_type":"audio-keyboard-response","trial_index":95,"time_elapsed":1891779,"internal_node_id":"0.0-13.0-3.10","match_key":"l","participant_id":"COGS219_2020_37"},{"rt":null,"stimulus":"Sounds/train_label.wav","key_press":null,"block":1,"trial_type":"audio-keyboard-response","trial_index":96,"time_elapsed":1893045,"internal_node_id":"0.0-13.0-0.11","match_key":"l","participant_id":"COGS219_2020_37"},{"rt":null,"stimulus":"<p style=\"font-size: 48px;\">+</p>","key_press":null,"block":1,"trial_type":"html-keyboard-response","trial_index":97,"time_elapsed":1894038,"internal_node_id":"0.0-13.0-1.11","match_key":"l","participant_id":"COGS219_2020_37"},{"rt":728.2449999998789,"stimulus":"Images/train_cartoon.png","key_press":76,"stim_onset":1583109949062,"block":1,"match_type":"match","image_category":"train","sound_category":"train","audio_type":"label","phase":"test","trial_type":"image-keyboard-response","trial_index":98,"time_elapsed":1894768,"internal_node_id":"0.0-13.0-2.11","match_key":"l","participant_id":"COGS219_2020_37","correct":true},{"rt":null,"stimulus":"Sounds/correct.wav","key_press":null,"block":1,"trial_type":"audio-keyboard-response","trial_index":99,"time_elapsed":1896770,"internal_node_id":"0.0-13.0-3.11","match_key":"l","participant_id":"COGS219_2020_37"},{"rt":null,"stimulus":"Sounds/motorcycle_sound.wav","key_press":null,"block":1,"trial_type":"audio-keyboard-response","trial_index":100,"time_elapsed":1897885,"internal_node_id":"0.0-13.0-0.12","match_key":"l","participant_id":"COGS219_2020_37"},{"rt":null,"stimulus":"<p style=\"font-size: 48px;\">+</p>","key_press":null,"block":1,"trial_type":"html-keyboard-response","trial_index":101,"time_elapsed":1898889,"internal_node_id":"0.0-13.0-1.12","match_key":"l","participant_id":"COGS219_2020_37"},{"rt":822.5049999998882,"stimulus":"Images/motorcycle_cartoon.png","key_press":65,"stim_onset":1583109953912,"block":1,"match_type":"match","image_category":"motorcycle","sound_category":"motorcycle","audio_type":"sound","phase":"test","trial_type":"image-keyboard-response","trial_index":102,"time_elapsed":1899712,"internal_node_id":"0.0-13.0-2.12","match_key":"l","participant_id":"COGS219_2020_37","correct":false},{"rt":null,"stimulus":"Sounds/incorrect.wav","key_press":null,"block":1,"trial_type":"audio-keyboard-response","trial_index":103,"time_elapsed":1901714,"internal_node_id":"0.0-13.0-3.12","match_key":"l","participant_id":"COGS219_2020_37"},{"rt":null,"stimulus":"Sounds/whistle_label.wav","key_press":null,"block":1,"trial_type":"audio-keyboard-response","trial_index":104,"time_elapsed":1902405,"internal_node_id":"0.0-13.0-0.13","match_key":"l","participant_id":"COGS219_2020_37"},{"rt":null,"stimulus":"<p style=\"font-size: 48px;\">+</p>","key_press":null,"block":1,"trial_type":"html-keyboard-response","trial_index":105,"time_elapsed":1903405,"internal_node_id":"0.0-13.0-1.13","match_key":"l","participant_id":"COGS219_2020_37"},{"rt":449.4700000002049,"stimulus":"Images/whistle_1.png","key_press":76,"stim_onset":1583109958429,"block":1,"match_type":"match","image_category":"whistle","sound_category":"whistle","audio_type":"label","phase":"test","trial_type":"image-keyboard-response","trial_index":106,"time_elapsed":1903856,"internal_node_id":"0.0-13.0-2.13","match_key":"l","participant_id":"COGS219_2020_37","correct":true},{"rt":null,"stimulus":"Sounds/correct.wav","key_press":null,"block":1,"trial_type":"audio-keyboard-response","trial_index":107,"time_elapsed":1905858,"internal_node_id":"0.0-13.0-3.13","match_key":"l","participant_id":"COGS219_2020_37"},{"rt":null,"stimulus":"Sounds/cow_label.wav","key_press":null,"block":1,"trial_type":"audio-keyboard-response","trial_index":108,"time_elapsed":1906885,"internal_node_id":"0.0-13.0-0.14","match_key":"l","participant_id":"COGS219_2020_37"},{"rt":null,"stimulus":"<p style=\"font-size: 48px;\">+</p>","key_press":null,"block":1,"trial_type":"html-keyboard-response","trial_index":109,"time_elapsed":1907889,"internal_node_id":"0.0-13.0-1.14","match_key":"l","participant_id":"COGS219_2020_37"},{"rt":510.0450000001583,"stimulus":"Images/cow_2.png","key_press":76,"stim_onset":1583109962912,"block":1,"match_type":"match","image_category":"cow","sound_category":"cow","audio_type":"label","phase":"test","trial_type":"image-keyboard-response","trial_index":110,"time_elapsed":1908400,"internal_node_id":"0.0-13.0-2.14","match_key":"l","participant_id":"COGS219_2020_37","correct":true},{"rt":null,"stimulus":"Sounds/correct.wav","key_press":null,"block":1,"trial_type":"audio-keyboard-response","trial_index":111,"time_elapsed":1910402,"internal_node_id":"0.0-13.0-3.14","match_key":"l","participant_id":"COGS219_2020_37"},{"rt":null,"stimulus":"Sounds/rooster_label.wav","key_press":null,"block":1,"trial_type":"audio-keyboard-response","trial_index":112,"time_elapsed":1911105,"internal_node_id":"0.0-13.0-0.15","match_key":"l","participant_id":"COGS219_2020_37"},{"rt":null,"stimulus":"<p style=\"font-size: 48px;\">+</p>","key_press":null,"block":1,"trial_type":"html-keyboard-response","trial_index":113,"time_elapsed":1912105,"internal_node_id":"0.0-13.0-1.15","match_key":"l","participant_id":"COGS219_2020_37"},{"rt":597.6199999998789,"stimulus":"Images/motorcycle_3.png","key_press":65,"stim_onset":1583109967129,"block":1,"match_type":"non-match","image_category":"motorcycle","sound_category":"rooster","audio_type":"label","phase":"test","trial_type":"image-keyboard-response","trial_index":114,"time_elapsed":1912704,"internal_node_id":"0.0-13.0-2.15","match_key":"l","participant_id":"COGS219_2020_37","correct":true},{"rt":null,"stimulus":"Sounds/correct.wav","key_press":null,"block":1,"trial_type":"audio-keyboard-response","trial_index":115,"time_elapsed":1914707,"internal_node_id":"0.0-13.0-3.15","match_key":"l","participant_id":"COGS219_2020_37"},{"rt":null,"stimulus":"Sounds/frog_sound.wav","key_press":null,"block":1,"trial_type":"audio-keyboard-response","trial_index":116,"time_elapsed":1915605,"internal_node_id":"0.0-13.0-0.16","match_key":"l","participant_id":"COGS219_2020_37"},{"rt":null,"stimulus":"<p style=\"font-size: 48px;\">+</p>","key_press":null,"block":1,"trial_type":"html-keyboard-response","trial_index":117,"time_elapsed":1916605,"internal_node_id":"0.0-13.0-1.16","match_key":"l","participant_id":"COGS219_2020_37"},{"rt":529.4650000000838,"stimulus":"Images/frog_3.png","key_press":76,"stim_onset":1583109971629,"block":1,"match_type":"match","image_category":"frog","sound_category":"frog","audio_type":"sound","phase":"test","trial_type":"image-keyboard-response","trial_index":118,"time_elapsed":1917136,"internal_node_id":"0.0-13.0-2.16","match_key":"l","participant_id":"COGS219_2020_37","correct":true},{"rt":null,"stimulus":"Sounds/correct.wav","key_press":null,"block":1,"trial_type":"audio-keyboard-response","trial_index":119,"time_elapsed":1919138,"internal_node_id":"0.0-13.0-3.16","match_key":"l","participant_id":"COGS219_2020_37"},{"rt":null,"stimulus":"Sounds/cow_sound.wav","key_press":null,"block":1,"trial_type":"audio-keyboard-response","trial_index":120,"time_elapsed":1920165,"internal_node_id":"0.0-13.0-0.17","match_key":"l","participant_id":"COGS219_2020_37"},{"rt":null,"stimulus":"<p style=\"font-size: 48px;\">+</p>","key_press":null,"block":1,"trial_type":"html-keyboard-response","trial_index":121,"time_elapsed":1921156,"internal_node_id":"0.0-13.0-1.17","match_key":"l","participant_id":"COGS219_2020_37"},{"rt":555.0849999999627,"stimulus":"Images/whistle_1.png","key_press":65,"stim_onset":1583109976179,"block":1,"match_type":"non-match","image_category":"whistle","sound_category":"cow","audio_type":"sound","phase":"test","trial_type":"image-keyboard-response","trial_index":122,"time_elapsed":1921712,"internal_node_id":"0.0-13.0-2.17","match_key":"l","participant_id":"COGS219_2020_37","correct":true},{"rt":null,"stimulus":"Sounds/correct.wav","key_press":null,"block":1,"trial_type":"audio-keyboard-response","trial_index":123,"time_elapsed":1923715,"internal_node_id":"0.0-13.0-3.17","match_key":"l","participant_id":"COGS219_2020_37"},{"rt":null,"stimulus":"Sounds/whistle_label.wav","key_press":null,"block":1,"trial_type":"audio-keyboard-response","trial_index":124,"time_elapsed":1924405,"internal_node_id":"0.0-13.0-0.18","match_key":"l","participant_id":"COGS219_2020_37"},{"rt":null,"stimulus":"<p style=\"font-size: 48px;\">+</p>","key_press":null,"block":1,"trial_type":"html-keyboard-response","trial_index":125,"time_elapsed":1925406,"internal_node_id":"0.0-13.0-1.18","match_key":"l","participant_id":"COGS219_2020_37"},{"rt":449.4049999997951,"stimulus":"Images/car_1.png","key_press":65,"stim_onset":1583109980429,"block":1,"match_type":"non-match","image_category":"car","sound_category":"whistle","audio_type":"label","phase":"test","trial_type":"image-keyboard-response","trial_index":126,"time_elapsed":1925856,"internal_node_id":"0.0-13.0-2.18","match_key":"l","participant_id":"COGS219_2020_37","correct":true},{"rt":null,"stimulus":"Sounds/correct.wav","key_press":null,"block":1,"trial_type":"audio-keyboard-response","trial_index":127,"time_elapsed":1927859,"internal_node_id":"0.0-13.0-3.18","match_key":"l","participant_id":"COGS219_2020_37"},{"rt":null,"stimulus":"Sounds/motorcycle_label.wav","key_press":null,"block":1,"trial_type":"audio-keyboard-response","trial_index":128,"time_elapsed":1929005,"internal_node_id":"0.0-13.0-0.19","match_key":"l","participant_id":"COGS219_2020_37"},{"rt":null,"stimulus":"<p style=\"font-size: 48px;\">+</p>","key_press":null,"block":1,"trial_type":"html-keyboard-response","trial_index":129,"time_elapsed":1930006,"internal_node_id":"0.0-13.0-1.19","match_key":"l","participant_id":"COGS219_2020_37"},{"rt":441.17500000004657,"stimulus":"Images/motorcycle_1.png","key_press":76,"stim_onset":1583109985029,"block":1,"match_type":"match","image_category":"motorcycle","sound_category":"motorcycle","audio_type":"label","phase":"test","trial_type":"image-keyboard-response","trial_index":130,"time_elapsed":1930448,"internal_node_id":"0.0-13.0-2.19","match_key":"l","participant_id":"COGS219_2020_37","correct":true},{"rt":null,"stimulus":"Sounds/correct.wav","key_press":null,"block":1,"trial_type":"audio-keyboard-response","trial_index":131,"time_elapsed":1932450,"internal_node_id":"0.0-13.0-3.19","match_key":"l","participant_id":"COGS219_2020_37"},{"rt":null,"stimulus":"Sounds/whistle_sound.wav","key_press":null,"block":1,"trial_type":"audio-keyboard-response","trial_index":132,"time_elapsed":1933145,"internal_node_id":"0.0-13.0-0.20","match_key":"l","participant_id":"COGS219_2020_37"},{"rt":null,"stimulus":"<p style=\"font-size: 48px;\">+</p>","key_press":null,"block":1,"trial_type":"html-keyboard-response","trial_index":133,"time_elapsed":1934139,"internal_node_id":"0.0-13.0-1.20","match_key":"l","participant_id":"COGS219_2020_37"},{"rt":627.5400000002701,"stimulus":"Images/whistle_3.png","key_press":76,"stim_onset":1583109989163,"block":1,"match_type":"match","image_category":"whistle","sound_category":"whistle","audio_type":"sound","phase":"test","trial_type":"image-keyboard-response","trial_index":134,"time_elapsed":1934768,"internal_node_id":"0.0-13.0-2.20","match_key":"l","participant_id":"COGS219_2020_37","correct":true},{"rt":null,"stimulus":"Sounds/correct.wav","key_press":null,"block":1,"trial_type":"audio-keyboard-response","trial_index":135,"time_elapsed":1936772,"internal_node_id":"0.0-13.0-3.20","match_key":"l","participant_id":"COGS219_2020_37"},{"rt":null,"stimulus":"Sounds/dog_sound.wav","key_press":null,"block":1,"trial_type":"audio-keyboard-response","trial_index":136,"time_elapsed":1937486,"internal_node_id":"0.0-13.0-0.21","match_key":"l","participant_id":"COGS219_2020_37"},{"rt":null,"stimulus":"<p style=\"font-size: 48px;\">+</p>","key_press":null,"block":1,"trial_type":"html-keyboard-response","trial_index":137,"time_elapsed":1938490,"internal_node_id":"0.0-13.0-1.21","match_key":"l","participant_id":"COGS219_2020_37"},{"rt":469.8900000003632,"stimulus":"Images/dog_cartoon.png","key_press":76,"stim_onset":1583109993513,"block":1,"match_type":"match","image_category":"dog","sound_category":"dog","audio_type":"sound","phase":"test","trial_type":"image-keyboard-response","trial_index":138,"time_elapsed":1938960,"internal_node_id":"0.0-13.0-2.21","match_key":"l","participant_id":"COGS219_2020_37","correct":true},{"rt":null,"stimulus":"Sounds/correct.wav","key_press":null,"block":1,"trial_type":"audio-keyboard-response","trial_index":139,"time_elapsed":1940963,"internal_node_id":"0.0-13.0-3.21","match_key":"l","participant_id":"COGS219_2020_37"},{"rt":null,"stimulus":"Sounds/motorcycle_label.wav","key_press":null,"block":1,"trial_type":"audio-keyboard-response","trial_index":140,"time_elapsed":1942046,"internal_node_id":"0.0-13.0-0.22","match_key":"l","participant_id":"COGS219_2020_37"},{"rt":null,"stimulus":"<p style=\"font-size: 48px;\">+</p>","key_press":null,"block":1,"trial_type":"html-keyboard-response","trial_index":141,"time_elapsed":1943039,"internal_node_id":"0.0-13.0-1.22","match_key":"l","participant_id":"COGS219_2020_37"},{"rt":479.6599999999162,"stimulus":"Images/motorcycle_3.png","key_press":76,"stim_onset":1583109998063,"block":1,"match_type":"match","image_category":"motorcycle","sound_category":"motorcycle","audio_type":"label","phase":"test","trial_type":"image-keyboard-response","trial_index":142,"time_elapsed":1943520,"internal_node_id":"0.0-13.0-2.22","match_key":"l","participant_id":"COGS219_2020_37","correct":true},{"rt":null,"stimulus":"Sounds/correct.wav","key_press":null,"block":1,"trial_type":"audio-keyboard-response","trial_index":143,"time_elapsed":1945523,"internal_node_id":"0.0-13.0-3.22","match_key":"l","participant_id":"COGS219_2020_37"},{"rt":null,"stimulus":"Sounds/cat_label.wav","key_press":null,"block":1,"trial_type":"audio-keyboard-response","trial_index":144,"time_elapsed":1946366,"internal_node_id":"0.0-13.0-0.23","match_key":"l","participant_id":"COGS219_2020_37"},{"rt":null,"stimulus":"<p style=\"font-size: 48px;\">+</p>","key_press":null,"block":1,"trial_type":"html-keyboard-response","trial_index":145,"time_elapsed":1947356,"internal_node_id":"0.0-13.0-1.23","match_key":"l","participant_id":"COGS219_2020_37"},{"rt":450.82499999995343,"stimulus":"Images/cat_3.png","key_press":76,"stim_onset":1583110002379,"block":1,"match_type":"match","image_category":"cat","sound_category":"cat","audio_type":"label","phase":"test","trial_type":"image-keyboard-response","trial_index":146,"time_elapsed":1947808,"internal_node_id":"0.0-13.0-2.23","match_key":"l","participant_id":"COGS219_2020_37","correct":true},{"rt":null,"stimulus":"Sounds/correct.wav","key_press":null,"block":1,"trial_type":"audio-keyboard-response","trial_index":147,"time_elapsed":1949812,"internal_node_id":"0.0-13.0-3.23","match_key":"l","participant_id":"COGS219_2020_37"},{"rt":null,"stimulus":"Sounds/rooster_sound.wav","key_press":null,"block":1,"trial_type":"audio-keyboard-response","trial_index":148,"time_elapsed":1950506,"internal_node_id":"0.0-13.0-0.24","match_key":"l","participant_id":"COGS219_2020_37"},{"rt":null,"stimulus":"<p style=\"font-size: 48px;\">+</p>","key_press":null,"block":1,"trial_type":"html-keyboard-response","trial_index":149,"time_elapsed":1951506,"internal_node_id":"0.0-13.0-1.24","match_key":"l","participant_id":"COGS219_2020_37"},{"rt":429.07499999995343,"stimulus":"Images/rooster_orig.png","key_press":76,"stim_onset":1583110006529,"block":1,"match_type":"match","image_category":"rooster","sound_category":"rooster","audio_type":"sound","phase":"test","trial_type":"image-keyboard-response","trial_index":150,"time_elapsed":1951936,"internal_node_id":"0.0-13.0-2.24","match_key":"l","participant_id":"COGS219_2020_37","correct":true},{"rt":null,"stimulus":"Sounds/correct.wav","key_press":null,"block":1,"trial_type":"audio-keyboard-response","trial_index":151,"time_elapsed":1953939,"internal_node_id":"0.0-13.0-3.24","match_key":"l","participant_id":"COGS219_2020_37"},{"rt":null,"stimulus":"Sounds/train_sound.wav","key_press":null,"block":1,"trial_type":"audio-keyboard-response","trial_index":152,"time_elapsed":1955246,"internal_node_id":"0.0-13.0-0.25","match_key":"l","participant_id":"COGS219_2020_37"},{"rt":null,"stimulus":"<p style=\"font-size: 48px;\">+</p>","key_press":null,"block":1,"trial_type":"html-keyboard-response","trial_index":153,"time_elapsed":1956240,"internal_node_id":"0.0-13.0-1.25","match_key":"l","participant_id":"COGS219_2020_37"},{"rt":735.5049999996554,"stimulus":"Images/train_2.png","key_press":76,"stim_onset":1583110011263,"block":1,"match_type":"match","image_category":"train","sound_category":"train","audio_type":"sound","phase":"test","trial_type":"image-keyboard-response","trial_index":154,"time_elapsed":1956976,"internal_node_id":"0.0-13.0-2.25","match_key":"l","participant_id":"COGS219_2020_37","correct":true},{"rt":null,"stimulus":"Sounds/correct.wav","key_press":null,"block":1,"trial_type":"audio-keyboard-response","trial_index":155,"time_elapsed":1958979,"internal_node_id":"0.0-13.0-3.25","match_key":"l","participant_id":"COGS219_2020_37"},{"rt":null,"stimulus":"Sounds/cow_sound.wav","key_press":null,"block":1,"trial_type":"audio-keyboard-response","trial_index":156,"time_elapsed":1960006,"internal_node_id":"0.0-13.0-0.26","match_key":"l","participant_id":"COGS219_2020_37"},{"rt":null,"stimulus":"<p style=\"font-size: 48px;\">+</p>","key_press":null,"block":1,"trial_type":"html-keyboard-response","trial_index":157,"time_elapsed":1961007,"internal_node_id":"0.0-13.0-1.26","match_key":"l","participant_id":"COGS219_2020_37"},{"rt":640.2900000002701,"stimulus":"Images/train_1.png","key_press":65,"stim_onset":1583110016030,"block":1,"match_type":"non-match","image_category":"train","sound_category":"cow","audio_type":"sound","phase":"test","trial_type":"image-keyboard-response","trial_index":158,"time_elapsed":1961648,"internal_node_id":"0.0-13.0-2.26","match_key":"l","participant_id":"COGS219_2020_37","correct":true},{"rt":null,"stimulus":"Sounds/correct.wav","key_press":null,"block":1,"trial_type":"audio-keyboard-response","trial_index":159,"time_elapsed":1963651,"internal_node_id":"0.0-13.0-3.26","match_key":"l","participant_id":"COGS219_2020_37"},{"rt":null,"stimulus":"Sounds/car_label.wav","key_press":null,"block":1,"trial_type":"audio-keyboard-response","trial_index":160,"time_elapsed":1964726,"internal_node_id":"0.0-13.0-0.27","match_key":"l","participant_id":"COGS219_2020_37"},{"rt":null,"stimulus":"<p style=\"font-size: 48px;\">+</p>","key_press":null,"block":1,"trial_type":"html-keyboard-response","trial_index":161,"time_elapsed":1965723,"internal_node_id":"0.0-13.0-1.27","match_key":"l","participant_id":"COGS219_2020_37"},{"rt":612.2600000000093,"stimulus":"Images/car_cartoon.png","key_press":76,"stim_onset":1583110020746,"block":1,"match_type":"match","image_category":"car","sound_category":"car","audio_type":"label","phase":"test","trial_type":"image-keyboard-response","trial_index":162,"time_elapsed":1966336,"internal_node_id":"0.0-13.0-2.27","match_key":"l","participant_id":"COGS219_2020_37","correct":true},{"rt":null,"stimulus":"Sounds/correct.wav","key_press":null,"block":1,"trial_type":"audio-keyboard-response","trial_index":163,"time_elapsed":1968339,"internal_node_id":"0.0-13.0-3.27","match_key":"l","participant_id":"COGS219_2020_37"},{"rt":null,"stimulus":"Sounds/cow_sound.wav","key_press":null,"block":1,"trial_type":"audio-keyboard-response","trial_index":164,"time_elapsed":1969326,"internal_node_id":"0.0-13.0-0.28","match_key":"l","participant_id":"COGS219_2020_37"},{"rt":null,"stimulus":"<p style=\"font-size: 48px;\">+</p>","key_press":null,"block":1,"trial_type":"html-keyboard-response","trial_index":165,"time_elapsed":1970323,"internal_node_id":"0.0-13.0-1.28","match_key":"l","participant_id":"COGS219_2020_37"},{"rt":1340.1149999997579,"stimulus":"Images/gun_orig.png","key_press":65,"stim_onset":1583110025346,"block":1,"match_type":"non-match","image_category":"gun","sound_category":"cow","audio_type":"sound","phase":"test","trial_type":"image-keyboard-response","trial_index":166,"time_elapsed":1971664,"internal_node_id":"0.0-13.0-2.28","match_key":"l","participant_id":"COGS219_2020_37","correct":true},{"rt":null,"stimulus":"Sounds/correct.wav","key_press":null,"block":1,"trial_type":"audio-keyboard-response","trial_index":167,"time_elapsed":1973667,"internal_node_id":"0.0-13.0-3.28","match_key":"l","participant_id":"COGS219_2020_37"},{"rt":null,"stimulus":"Sounds/car_label.wav","key_press":null,"block":1,"trial_type":"audio-keyboard-response","trial_index":168,"time_elapsed":1974726,"internal_node_id":"0.0-13.0-0.29","match_key":"l","participant_id":"COGS219_2020_37"},{"rt":null,"stimulus":"<p style=\"font-size: 48px;\">+</p>","key_press":null,"block":1,"trial_type":"html-keyboard-response","trial_index":169,"time_elapsed":1975723,"internal_node_id":"0.0-13.0-1.29","match_key":"l","participant_id":"COGS219_2020_37"},{"rt":531.8499999998603,"stimulus":"Images/dog_2.png","key_press":65,"stim_onset":1583110030747,"block":1,"match_type":"non-match","image_category":"dog","sound_category":"car","audio_type":"label","phase":"test","trial_type":"image-keyboard-response","trial_index":170,"time_elapsed":1976256,"internal_node_id":"0.0-13.0-2.29","match_key":"l","participant_id":"COGS219_2020_37","correct":true},{"rt":null,"stimulus":"Sounds/correct.wav","key_press":null,"block":1,"trial_type":"audio-keyboard-response","trial_index":171,"time_elapsed":1978258,"internal_node_id":"0.0-13.0-3.29","match_key":"l","participant_id":"COGS219_2020_37"},{"rt":null,"stimulus":"Sounds/motorcycle_sound.wav","key_press":null,"block":1,"trial_type":"audio-keyboard-response","trial_index":172,"time_elapsed":1979386,"internal_node_id":"0.0-13.0-0.30","match_key":"l","participant_id":"COGS219_2020_37"},{"rt":null,"stimulus":"<p style=\"font-size: 48px;\">+</p>","key_press":null,"block":1,"trial_type":"html-keyboard-response","trial_index":173,"time_elapsed":1980390,"internal_node_id":"0.0-13.0-1.30","match_key":"l","participant_id":"COGS219_2020_37"},{"rt":489.57499999995343,"stimulus":"Images/motorcycle_2.png","key_press":76,"stim_onset":1583110035413,"block":1,"match_type":"match","image_category":"motorcycle","sound_category":"motorcycle","audio_type":"sound","phase":"test","trial_type":"image-keyboard-response","trial_index":174,"time_elapsed":1980880,"internal_node_id":"0.0-13.0-2.30","match_key":"l","participant_id":"COGS219_2020_37","correct":true},{"rt":null,"stimulus":"Sounds/correct.wav","key_press":null,"block":1,"trial_type":"audio-keyboard-response","trial_index":175,"time_elapsed":1982883,"internal_node_id":"0.0-13.0-3.30","match_key":"l","participant_id":"COGS219_2020_37"},{"rt":null,"stimulus":"Sounds/car_sound.wav","key_press":null,"block":1,"trial_type":"audio-keyboard-response","trial_index":176,"time_elapsed":1983966,"internal_node_id":"0.0-13.0-0.31","match_key":"l","participant_id":"COGS219_2020_37"},{"rt":null,"stimulus":"<p style=\"font-size: 48px;\">+</p>","key_press":null,"block":1,"trial_type":"html-keyboard-response","trial_index":177,"time_elapsed":1984957,"internal_node_id":"0.0-13.0-1.31","match_key":"l","participant_id":"COGS219_2020_37"},{"rt":402.23999999975786,"stimulus":"Images/car_3.png","key_press":76,"stim_onset":1583110039980,"block":1,"match_type":"match","image_category":"car","sound_category":"car","audio_type":"sound","phase":"test","trial_type":"image-keyboard-response","trial_index":178,"time_elapsed":1985360,"internal_node_id":"0.0-13.0-2.31","match_key":"l","participant_id":"COGS219_2020_37","correct":true},{"rt":null,"stimulus":"Sounds/correct.wav","key_press":null,"block":1,"trial_type":"audio-keyboard-response","trial_index":179,"time_elapsed":1987362,"internal_node_id":"0.0-13.0-3.31","match_key":"l","participant_id":"COGS219_2020_37"},{"rt":null,"stimulus":"Sounds/dog_label.wav","key_press":null,"block":1,"trial_type":"audio-keyboard-response","trial_index":180,"time_elapsed":1988026,"internal_node_id":"0.0-13.0-0.32","match_key":"l","participant_id":"COGS219_2020_37"},{"rt":null,"stimulus":"<p style=\"font-size: 48px;\">+</p>","key_press":null,"block":1,"trial_type":"html-keyboard-response","trial_index":181,"time_elapsed":1989023,"internal_node_id":"0.0-13.0-1.32","match_key":"l","participant_id":"COGS219_2020_37"},{"rt":575.9499999999534,"stimulus":"Images/dog_orig.png","key_press":76,"stim_onset":1583110044046,"block":1,"match_type":"match","image_category":"dog","sound_category":"dog","audio_type":"label","phase":"test","trial_type":"image-keyboard-response","trial_index":182,"time_elapsed":1989600,"internal_node_id":"0.0-13.0-2.32","match_key":"l","participant_id":"COGS219_2020_37","correct":true},{"rt":null,"stimulus":"Sounds/correct.wav","key_press":null,"block":1,"trial_type":"audio-keyboard-response","trial_index":183,"time_elapsed":1991603,"internal_node_id":"0.0-13.0-3.32","match_key":"l","participant_id":"COGS219_2020_37"},{"rt":null,"stimulus":"Sounds/rooster_sound.wav","key_press":null,"block":1,"trial_type":"audio-keyboard-response","trial_index":184,"time_elapsed":1992306,"internal_node_id":"0.0-13.0-0.33","match_key":"l","participant_id":"COGS219_2020_37"},{"rt":null,"stimulus":"<p style=\"font-size: 48px;\">+</p>","key_press":null,"block":1,"trial_type":"html-keyboard-response","trial_index":185,"time_elapsed":1993307,"internal_node_id":"0.0-13.0-1.33","match_key":"l","participant_id":"COGS219_2020_37"},{"rt":484.57499999995343,"stimulus":"Images/rooster_2.png","key_press":76,"stim_onset":1583110048330,"block":1,"match_type":"match","image_category":"rooster","sound_category":"rooster","audio_type":"sound","phase":"test","trial_type":"image-keyboard-response","trial_index":186,"time_elapsed":1993793,"internal_node_id":"0.0-13.0-2.33","match_key":"l","participant_id":"COGS219_2020_37","correct":true},{"rt":null,"stimulus":"Sounds/correct.wav","key_press":null,"block":1,"trial_type":"audio-keyboard-response","trial_index":187,"time_elapsed":1995796,"internal_node_id":"0.0-13.0-3.33","match_key":"l","participant_id":"COGS219_2020_37"},{"rt":null,"stimulus":"Sounds/dog_label.wav","key_press":null,"block":1,"trial_type":"audio-keyboard-response","trial_index":188,"time_elapsed":1996426,"internal_node_id":"0.0-13.0-0.34","match_key":"l","participant_id":"COGS219_2020_37"},{"rt":null,"stimulus":"<p style=\"font-size: 48px;\">+</p>","key_press":null,"block":1,"trial_type":"html-keyboard-response","trial_index":189,"time_elapsed":1997424,"internal_node_id":"0.0-13.0-1.34","match_key":"l","participant_id":"COGS219_2020_37"},{"rt":671.7600000002421,"stimulus":"Images/whistle_2.png","key_press":76,"stim_onset":1583110052447,"block":1,"match_type":"non-match","image_category":"whistle","sound_category":"dog","audio_type":"label","phase":"test","trial_type":"image-keyboard-response","trial_index":190,"time_elapsed":1998097,"internal_node_id":"0.0-13.0-2.34","match_key":"l","participant_id":"COGS219_2020_37","correct":false},{"rt":null,"stimulus":"Sounds/incorrect.wav","key_press":null,"block":1,"trial_type":"audio-keyboard-response","trial_index":191,"time_elapsed":2000099,"internal_node_id":"0.0-13.0-3.34","match_key":"l","participant_id":"COGS219_2020_37"},{"rt":null,"stimulus":"Sounds/rooster_sound.wav","key_press":null,"block":1,"trial_type":"audio-keyboard-response","trial_index":192,"time_elapsed":2000766,"internal_node_id":"0.0-13.0-0.35","match_key":"l","participant_id":"COGS219_2020_37"},{"rt":null,"stimulus":"<p style=\"font-size: 48px;\">+</p>","key_press":null,"block":1,"trial_type":"html-keyboard-response","trial_index":193,"time_elapsed":2001757,"internal_node_id":"0.0-13.0-1.35","match_key":"l","participant_id":"COGS219_2020_37"},{"rt":706.190000000177,"stimulus":"Images/whistle_cartoon.png","key_press":65,"stim_onset":1583110056781,"block":1,"match_type":"non-match","image_category":"whistle","sound_category":"rooster","audio_type":"sound","phase":"test","trial_type":"image-keyboard-response","trial_index":194,"time_elapsed":2002465,"internal_node_id":"0.0-13.0-2.35","match_key":"l","participant_id":"COGS219_2020_37","correct":true},{"rt":null,"stimulus":"Sounds/correct.wav","key_press":null,"block":1,"trial_type":"audio-keyboard-response","trial_index":195,"time_elapsed":2004467,"internal_node_id":"0.0-13.0-3.35","match_key":"l","participant_id":"COGS219_2020_37"},{"rt":null,"stimulus":"Sounds/cat_sound.wav","key_press":null,"block":1,"trial_type":"audio-keyboard-response","trial_index":196,"time_elapsed":2005306,"internal_node_id":"0.0-13.0-0.36","match_key":"l","participant_id":"COGS219_2020_37"},{"rt":null,"stimulus":"<p style=\"font-size: 48px;\">+</p>","key_press":null,"block":1,"trial_type":"html-keyboard-response","trial_index":197,"time_elapsed":2006307,"internal_node_id":"0.0-13.0-1.36","match_key":"l","participant_id":"COGS219_2020_37"},{"rt":652.4699999999721,"stimulus":"Images/cat_2.png","key_press":76,"stim_onset":1583110061331,"block":1,"match_type":"match","image_category":"cat","sound_category":"cat","audio_type":"sound","phase":"test","trial_type":"image-keyboard-response","trial_index":198,"time_elapsed":2006961,"internal_node_id":"0.0-13.0-2.36","match_key":"l","participant_id":"COGS219_2020_37","correct":true},{"rt":null,"stimulus":"Sounds/correct.wav","key_press":null,"block":1,"trial_type":"audio-keyboard-response","trial_index":199,"time_elapsed":2008964,"internal_node_id":"0.0-13.0-3.36","match_key":"l","participant_id":"COGS219_2020_37"},{"rt":null,"stimulus":"Sounds/motorcycle_sound.wav","key_press":null,"block":1,"trial_type":"audio-keyboard-response","trial_index":200,"time_elapsed":2010086,"internal_node_id":"0.0-13.0-0.37","match_key":"l","participant_id":"COGS219_2020_37"},{"rt":null,"stimulus":"<p style=\"font-size: 48px;\">+</p>","key_press":null,"block":1,"trial_type":"html-keyboard-response","trial_index":201,"time_elapsed":2011091,"internal_node_id":"0.0-13.0-1.37","match_key":"l","participant_id":"COGS219_2020_37"},{"rt":557.3100000000559,"stimulus":"Images/gun_1.png","key_press":65,"stim_onset":1583110066114,"block":1,"match_type":"non-match","image_category":"gun","sound_category":"motorcycle","audio_type":"sound","phase":"test","trial_type":"image-keyboard-response","trial_index":202,"time_elapsed":2011649,"internal_node_id":"0.0-13.0-2.37","match_key":"l","participant_id":"COGS219_2020_37","correct":true},{"rt":null,"stimulus":"Sounds/correct.wav","key_press":null,"block":1,"trial_type":"audio-keyboard-response","trial_index":203,"time_elapsed":2013652,"internal_node_id":"0.0-13.0-3.37","match_key":"l","participant_id":"COGS219_2020_37"},{"rt":null,"stimulus":"Sounds/car_sound.wav","key_press":null,"block":1,"trial_type":"audio-keyboard-response","trial_index":204,"time_elapsed":2014726,"internal_node_id":"0.0-13.0-0.38","match_key":"l","participant_id":"COGS219_2020_37"},{"rt":null,"stimulus":"<p style=\"font-size: 48px;\">+</p>","key_press":null,"block":1,"trial_type":"html-keyboard-response","trial_index":205,"time_elapsed":2015724,"internal_node_id":"0.0-13.0-1.38","match_key":"l","participant_id":"COGS219_2020_37"},{"rt":1363.5250000001397,"stimulus":"Images/train_orig.png","key_press":65,"stim_onset":1583110070747,"block":1,"match_type":"non-match","image_category":"train","sound_category":"car","audio_type":"sound","phase":"test","trial_type":"image-keyboard-response","trial_index":206,"time_elapsed":2017089,"internal_node_id":"0.0-13.0-2.38","match_key":"l","participant_id":"COGS219_2020_37","correct":true},{"rt":null,"stimulus":"Sounds/correct.wav","key_press":null,"block":1,"trial_type":"audio-keyboard-response","trial_index":207,"time_elapsed":2019091,"internal_node_id":"0.0-13.0-3.38","match_key":"l","participant_id":"COGS219_2020_37"},{"rt":null,"stimulus":"Sounds/frog_sound.wav","key_press":null,"block":1,"trial_type":"audio-keyboard-response","trial_index":208,"time_elapsed":2020006,"internal_node_id":"0.0-13.0-0.39","match_key":"l","participant_id":"COGS219_2020_37"},{"rt":null,"stimulus":"<p style=\"font-size: 48px;\">+</p>","key_press":null,"block":1,"trial_type":"html-keyboard-response","trial_index":209,"time_elapsed":2021024,"internal_node_id":"0.0-13.0-1.39","match_key":"l","participant_id":"COGS219_2020_37"},{"rt":527.0100000002421,"stimulus":"Images/train_cartoon.png","key_press":65,"stim_onset":1583110076048,"block":1,"match_type":"non-match","image_category":"train","sound_category":"frog","audio_type":"sound","phase":"test","trial_type":"image-keyboard-response","trial_index":210,"time_elapsed":2021553,"internal_node_id":"0.0-13.0-2.39","match_key":"l","participant_id":"COGS219_2020_37","correct":true},{"rt":null,"stimulus":"Sounds/correct.wav","key_press":null,"block":1,"trial_type":"audio-keyboard-response","trial_index":211,"time_elapsed":2023556,"internal_node_id":"0.0-13.0-3.39","match_key":"l","participant_id":"COGS219_2020_37"},{"rt":null,"stimulus":"Sounds/cat_sound.wav","key_press":null,"block":1,"trial_type":"audio-keyboard-response","trial_index":212,"time_elapsed":2024386,"internal_node_id":"0.0-13.0-0.40","match_key":"l","participant_id":"COGS219_2020_37"},{"rt":null,"stimulus":"<p style=\"font-size: 48px;\">+</p>","key_press":null,"block":1,"trial_type":"html-keyboard-response","trial_index":213,"time_elapsed":2025391,"internal_node_id":"0.0-13.0-1.40","match_key":"l","participant_id":"COGS219_2020_37"},{"rt":384.74999999976717,"stimulus":"Images/gun_2.png","key_press":65,"stim_onset":1583110080414,"block":1,"match_type":"non-match","image_category":"gun","sound_category":"cat","audio_type":"sound","phase":"test","trial_type":"image-keyboard-response","trial_index":214,"time_elapsed":2025777,"internal_node_id":"0.0-13.0-2.40","match_key":"l","participant_id":"COGS219_2020_37","correct":true},{"rt":null,"stimulus":"Sounds/correct.wav","key_press":null,"block":1,"trial_type":"audio-keyboard-response","trial_index":215,"time_elapsed":2027779,"internal_node_id":"0.0-13.0-3.40","match_key":"l","participant_id":"COGS219_2020_37"},{"rt":null,"stimulus":"Sounds/gun_label.wav","key_press":null,"block":1,"trial_type":"audio-keyboard-response","trial_index":216,"time_elapsed":2028366,"internal_node_id":"0.0-13.0-0.41","match_key":"l","participant_id":"COGS219_2020_37"},{"rt":null,"stimulus":"<p style=\"font-size: 48px;\">+</p>","key_press":null,"block":1,"trial_type":"html-keyboard-response","trial_index":217,"time_elapsed":2029358,"internal_node_id":"0.0-13.0-1.41","match_key":"l","participant_id":"COGS219_2020_37"},{"rt":594.2800000002608,"stimulus":"Images/gun_3.png","key_press":76,"stim_onset":1583110084381,"block":1,"match_type":"match","image_category":"gun","sound_category":"gun","audio_type":"label","phase":"test","trial_type":"image-keyboard-response","trial_index":218,"time_elapsed":2029953,"internal_node_id":"0.0-13.0-2.41","match_key":"l","participant_id":"COGS219_2020_37","correct":true},{"rt":null,"stimulus":"Sounds/correct.wav","key_press":null,"block":1,"trial_type":"audio-keyboard-response","trial_index":219,"time_elapsed":2031956,"internal_node_id":"0.0-13.0-3.41","match_key":"l","participant_id":"COGS219_2020_37"},{"rt":null,"stimulus":"Sounds/frog_label.wav","key_press":null,"block":1,"trial_type":"audio-keyboard-response","trial_index":220,"time_elapsed":2032866,"internal_node_id":"0.0-13.0-0.42","match_key":"l","participant_id":"COGS219_2020_37"},{"rt":null,"stimulus":"<p style=\"font-size: 48px;\">+</p>","key_press":null,"block":1,"trial_type":"html-keyboard-response","trial_index":221,"time_elapsed":2033858,"internal_node_id":"0.0-13.0-1.42","match_key":"l","participant_id":"COGS219_2020_37"},{"rt":445.8850000000093,"stimulus":"Images/frog_orig.png","key_press":76,"stim_onset":1583110088881,"block":1,"match_type":"match","image_category":"frog","sound_category":"frog","audio_type":"label","phase":"test","trial_type":"image-keyboard-response","trial_index":222,"time_elapsed":2034305,"internal_node_id":"0.0-13.0-2.42","match_key":"l","participant_id":"COGS219_2020_37","correct":true},{"rt":null,"stimulus":"Sounds/correct.wav","key_press":null,"block":1,"trial_type":"audio-keyboard-response","trial_index":223,"time_elapsed":2036307,"internal_node_id":"0.0-13.0-3.42","match_key":"l","participant_id":"COGS219_2020_37"},{"rt":null,"stimulus":"Sounds/dog_label.wav","key_press":null,"block":1,"trial_type":"audio-keyboard-response","trial_index":224,"time_elapsed":2036946,"internal_node_id":"0.0-13.0-0.43","match_key":"l","participant_id":"COGS219_2020_37"},{"rt":null,"stimulus":"<p style=\"font-size: 48px;\">+</p>","key_press":null,"block":1,"trial_type":"html-keyboard-response","trial_index":225,"time_elapsed":2037941,"internal_node_id":"0.0-13.0-1.43","match_key":"l","participant_id":"COGS219_2020_37"},{"rt":426.48999999975786,"stimulus":"Images/motorcycle_orig.png","key_press":65,"stim_onset":1583110092964,"block":1,"match_type":"non-match","image_category":"motorcycle","sound_category":"dog","audio_type":"label","phase":"test","trial_type":"image-keyboard-response","trial_index":226,"time_elapsed":2038369,"internal_node_id":"0.0-13.0-2.43","match_key":"l","participant_id":"COGS219_2020_37","correct":true},{"rt":null,"stimulus":"Sounds/correct.wav","key_press":null,"block":1,"trial_type":"audio-keyboard-response","trial_index":227,"time_elapsed":2040371,"internal_node_id":"0.0-13.0-3.43","match_key":"l","participant_id":"COGS219_2020_37"},{"rt":null,"stimulus":"Sounds/train_sound.wav","key_press":null,"block":1,"trial_type":"audio-keyboard-response","trial_index":228,"time_elapsed":2041666,"internal_node_id":"0.0-13.0-0.44","match_key":"l","participant_id":"COGS219_2020_37"},{"rt":null,"stimulus":"<p style=\"font-size: 48px;\">+</p>","key_press":null,"block":1,"trial_type":"html-keyboard-response","trial_index":229,"time_elapsed":2042658,"internal_node_id":"0.0-13.0-1.44","match_key":"l","participant_id":"COGS219_2020_37"},{"rt":493.410000000149,"stimulus":"Images/rooster_2.png","key_press":65,"stim_onset":1583110097681,"block":1,"match_type":"non-match","image_category":"rooster","sound_category":"train","audio_type":"sound","phase":"test","trial_type":"image-keyboard-response","trial_index":230,"time_elapsed":2043153,"internal_node_id":"0.0-13.0-2.44","match_key":"l","participant_id":"COGS219_2020_37","correct":true},{"rt":null,"stimulus":"Sounds/correct.wav","key_press":null,"block":1,"trial_type":"audio-keyboard-response","trial_index":231,"time_elapsed":2045155,"internal_node_id":"0.0-13.0-3.44","match_key":"l","participant_id":"COGS219_2020_37"},{"rt":null,"stimulus":"Sounds/cat_sound.wav","key_press":null,"block":1,"trial_type":"audio-keyboard-response","trial_index":232,"time_elapsed":2045986,"internal_node_id":"0.0-13.0-0.45","match_key":"l","participant_id":"COGS219_2020_37"},{"rt":null,"stimulus":"<p style=\"font-size: 48px;\">+</p>","key_press":null,"block":1,"trial_type":"html-keyboard-response","trial_index":233,"time_elapsed":2046991,"internal_node_id":"0.0-13.0-1.45","match_key":"l","participant_id":"COGS219_2020_37"},{"rt":560.6350000000093,"stimulus":"Images/cat_orig.png","key_press":76,"stim_onset":1583110102015,"block":1,"match_type":"match","image_category":"cat","sound_category":"cat","audio_type":"sound","phase":"test","trial_type":"image-keyboard-response","trial_index":234,"time_elapsed":2047553,"internal_node_id":"0.0-13.0-2.45","match_key":"l","participant_id":"COGS219_2020_37","correct":true},{"rt":null,"stimulus":"Sounds/correct.wav","key_press":null,"block":1,"trial_type":"audio-keyboard-response","trial_index":235,"time_elapsed":2049556,"internal_node_id":"0.0-13.0-3.45","match_key":"l","participant_id":"COGS219_2020_37"},{"rt":null,"stimulus":"Sounds/dog_label.wav","key_press":null,"block":1,"trial_type":"audio-keyboard-response","trial_index":236,"time_elapsed":2050186,"internal_node_id":"0.0-13.0-0.46","match_key":"l","participant_id":"COGS219_2020_37"},{"rt":null,"stimulus":"<p style=\"font-size: 48px;\">+</p>","key_press":null,"block":1,"trial_type":"html-keyboard-response","trial_index":237,"time_elapsed":2051191,"internal_node_id":"0.0-13.0-1.46","match_key":"l","participant_id":"COGS219_2020_37"},{"rt":456.6799999999348,"stimulus":"Images/dog_3.png","key_press":76,"stim_onset":1583110106214,"block":1,"match_type":"match","image_category":"dog","sound_category":"dog","audio_type":"label","phase":"test","trial_type":"image-keyboard-response","trial_index":238,"time_elapsed":2051649,"internal_node_id":"0.0-13.0-2.46","match_key":"l","participant_id":"COGS219_2020_37","correct":true},{"rt":null,"stimulus":"Sounds/correct.wav","key_press":null,"block":1,"trial_type":"audio-keyboard-response","trial_index":239,"time_elapsed":2053654,"internal_node_id":"0.0-13.0-3.46","match_key":"l","participant_id":"COGS219_2020_37"},{"rt":null,"stimulus":"Sounds/whistle_label.wav","key_press":null,"block":1,"trial_type":"audio-keyboard-response","trial_index":240,"time_elapsed":2054367,"internal_node_id":"0.0-13.0-0.47","match_key":"l","participant_id":"COGS219_2020_37"},{"rt":null,"stimulus":"<p style=\"font-size: 48px;\">+</p>","key_press":null,"block":1,"trial_type":"html-keyboard-response","trial_index":241,"time_elapsed":2055358,"internal_node_id":"0.0-13.0-1.47","match_key":"l","participant_id":"COGS219_2020_37"},{"rt":369.7299999999814,"stimulus":"Images/rooster_orig.png","key_press":65,"stim_onset":1583110110382,"block":1,"match_type":"non-match","image_category":"rooster","sound_category":"whistle","audio_type":"label","phase":"test","trial_type":"image-keyboard-response","trial_index":242,"time_elapsed":2055729,"internal_node_id":"0.0-13.0-2.47","match_key":"l","participant_id":"COGS219_2020_37","correct":true},{"rt":null,"stimulus":"Sounds/correct.wav","key_press":null,"block":1,"trial_type":"audio-keyboard-response","trial_index":243,"time_elapsed":2057732,"internal_node_id":"0.0-13.0-3.47","match_key":"l","participant_id":"COGS219_2020_37"},{"rt":null,"stimulus":"Sounds/train_label.wav","key_press":null,"block":1,"trial_type":"audio-keyboard-response","trial_index":244,"time_elapsed":2059007,"internal_node_id":"0.0-13.0-0.48","match_key":"l","participant_id":"COGS219_2020_37"},{"rt":null,"stimulus":"<p style=\"font-size: 48px;\">+</p>","key_press":null,"block":1,"trial_type":"html-keyboard-response","trial_index":245,"time_elapsed":2060008,"internal_node_id":"0.0-13.0-1.48","match_key":"l","participant_id":"COGS219_2020_37"},{"rt":567.7900000002701,"stimulus":"Images/train_1.png","key_press":76,"stim_onset":1583110115032,"block":1,"match_type":"match","image_category":"train","sound_category":"train","audio_type":"label","phase":"test","trial_type":"image-keyboard-response","trial_index":246,"time_elapsed":2060577,"internal_node_id":"0.0-13.0-2.48","match_key":"l","participant_id":"COGS219_2020_37","correct":true},{"rt":null,"stimulus":"Sounds/correct.wav","key_press":null,"block":1,"trial_type":"audio-keyboard-response","trial_index":247,"time_elapsed":2062580,"internal_node_id":"0.0-13.0-3.48","match_key":"l","participant_id":"COGS219_2020_37"},{"rt":null,"stimulus":"Sounds/gun_label.wav","key_press":null,"block":1,"trial_type":"audio-keyboard-response","trial_index":248,"time_elapsed":2063147,"internal_node_id":"0.0-13.0-0.49","match_key":"l","participant_id":"COGS219_2020_37"},{"rt":null,"stimulus":"<p style=\"font-size: 48px;\">+</p>","key_press":null,"block":1,"trial_type":"html-keyboard-response","trial_index":249,"time_elapsed":2064142,"internal_node_id":"0.0-13.0-1.49","match_key":"l","participant_id":"COGS219_2020_37"},{"rt":610.2249999998603,"stimulus":"Images/rooster_3.png","key_press":65,"stim_onset":1583110119165,"block":1,"match_type":"non-match","image_category":"rooster","sound_category":"gun","audio_type":"label","phase":"test","trial_type":"image-keyboard-response","trial_index":250,"time_elapsed":2064753,"internal_node_id":"0.0-13.0-2.49","match_key":"l","participant_id":"COGS219_2020_37","correct":true},{"rt":null,"stimulus":"Sounds/correct.wav","key_press":null,"block":1,"trial_type":"audio-keyboard-response","trial_index":251,"time_elapsed":2066756,"internal_node_id":"0.0-13.0-3.49","match_key":"l","participant_id":"COGS219_2020_37"},{"rt":null,"stimulus":"Sounds/motorcycle_label.wav","key_press":null,"block":1,"trial_type":"audio-keyboard-response","trial_index":252,"time_elapsed":2067887,"internal_node_id":"0.0-13.0-0.50","match_key":"l","participant_id":"COGS219_2020_37"},{"rt":null,"stimulus":"<p style=\"font-size: 48px;\">+</p>","key_press":null,"block":1,"trial_type":"html-keyboard-response","trial_index":253,"time_elapsed":2068892,"internal_node_id":"0.0-13.0-1.50","match_key":"l","participant_id":"COGS219_2020_37"},{"rt":548.4050000000279,"stimulus":"Images/whistle_3.png","key_press":65,"stim_onset":1583110123915,"block":1,"match_type":"non-match","image_category":"whistle","sound_category":"motorcycle","audio_type":"label","phase":"test","trial_type":"image-keyboard-response","trial_index":254,"time_elapsed":2069441,"internal_node_id":"0.0-13.0-2.50","match_key":"l","participant_id":"COGS219_2020_37","correct":true},{"rt":null,"stimulus":"Sounds/correct.wav","key_press":null,"block":1,"trial_type":"audio-keyboard-response","trial_index":255,"time_elapsed":2071445,"internal_node_id":"0.0-13.0-3.50","match_key":"l","participant_id":"COGS219_2020_37"},{"rt":null,"stimulus":"Sounds/rooster_label.wav","key_press":null,"block":1,"trial_type":"audio-keyboard-response","trial_index":256,"time_elapsed":2072147,"internal_node_id":"0.0-13.0-0.51","match_key":"l","participant_id":"COGS219_2020_37"},{"rt":null,"stimulus":"<p style=\"font-size: 48px;\">+</p>","key_press":null,"block":1,"trial_type":"html-keyboard-response","trial_index":257,"time_elapsed":2073142,"internal_node_id":"0.0-13.0-1.51","match_key":"l","participant_id":"COGS219_2020_37"},{"rt":602.1799999999348,"stimulus":"Images/rooster_cartoon.png","key_press":76,"stim_onset":1583110128165,"block":1,"match_type":"match","image_category":"rooster","sound_category":"rooster","audio_type":"label","phase":"test","trial_type":"image-keyboard-response","trial_index":258,"time_elapsed":2073745,"internal_node_id":"0.0-13.0-2.51","match_key":"l","participant_id":"COGS219_2020_37","correct":true},{"rt":null,"stimulus":"Sounds/correct.wav","key_press":null,"block":1,"trial_type":"audio-keyboard-response","trial_index":259,"time_elapsed":2075748,"internal_node_id":"0.0-13.0-3.51","match_key":"l","participant_id":"COGS219_2020_37"},{"rt":null,"stimulus":"Sounds/rooster_label.wav","key_press":null,"block":1,"trial_type":"audio-keyboard-response","trial_index":260,"time_elapsed":2076427,"internal_node_id":"0.0-13.0-0.52","match_key":"l","participant_id":"COGS219_2020_37"},{"rt":null,"stimulus":"<p style=\"font-size: 48px;\">+</p>","key_press":null,"block":1,"trial_type":"html-keyboard-response","trial_index":261,"time_elapsed":2077425,"internal_node_id":"0.0-13.0-1.52","match_key":"l","participant_id":"COGS219_2020_37"},{"rt":398.4399999999441,"stimulus":"Images/dog_cartoon.png","key_press":65,"stim_onset":1583110132448,"block":1,"match_type":"non-match","image_category":"dog","sound_category":"rooster","audio_type":"label","phase":"test","trial_type":"image-keyboard-response","trial_index":262,"time_elapsed":2077825,"internal_node_id":"0.0-13.0-2.52","match_key":"l","participant_id":"COGS219_2020_37","correct":true},{"rt":null,"stimulus":"Sounds/correct.wav","key_press":null,"block":1,"trial_type":"audio-keyboard-response","trial_index":263,"time_elapsed":2079828,"internal_node_id":"0.0-13.0-3.52","match_key":"l","participant_id":"COGS219_2020_37"},{"rt":null,"stimulus":"Sounds/dog_sound.wav","key_press":null,"block":1,"trial_type":"audio-keyboard-response","trial_index":264,"time_elapsed":2080547,"internal_node_id":"0.0-13.0-0.53","match_key":"l","participant_id":"COGS219_2020_37"},{"rt":null,"stimulus":"<p style=\"font-size: 48px;\">+</p>","key_press":null,"block":1,"trial_type":"html-keyboard-response","trial_index":265,"time_elapsed":2081542,"internal_node_id":"0.0-13.0-1.53","match_key":"l","participant_id":"COGS219_2020_37"},{"rt":505.99500000011176,"stimulus":"Images/frog_cartoon.png","key_press":65,"stim_onset":1583110136565,"block":1,"match_type":"non-match","image_category":"frog","sound_category":"dog","audio_type":"sound","phase":"test","trial_type":"image-keyboard-response","trial_index":266,"time_elapsed":2082049,"internal_node_id":"0.0-13.0-2.53","match_key":"l","participant_id":"COGS219_2020_37","correct":true},{"rt":null,"stimulus":"Sounds/correct.wav","key_press":null,"block":1,"trial_type":"audio-keyboard-response","trial_index":267,"time_elapsed":2084053,"internal_node_id":"0.0-13.0-3.53","match_key":"l","participant_id":"COGS219_2020_37"},{"rt":null,"stimulus":"Sounds/cat_label.wav","key_press":null,"block":1,"trial_type":"audio-keyboard-response","trial_index":268,"time_elapsed":2084887,"internal_node_id":"0.0-13.0-0.54","match_key":"l","participant_id":"COGS219_2020_37"},{"rt":null,"stimulus":"<p style=\"font-size: 48px;\">+</p>","key_press":null,"block":1,"trial_type":"html-keyboard-response","trial_index":269,"time_elapsed":2085892,"internal_node_id":"0.0-13.0-1.54","match_key":"l","participant_id":"COGS219_2020_37"},{"rt":412.0049999996554,"stimulus":"Images/cat_1.png","key_press":76,"stim_onset":1583110140915,"block":1,"match_type":"match","image_category":"cat","sound_category":"cat","audio_type":"label","phase":"test","trial_type":"image-keyboard-response","trial_index":270,"time_elapsed":2086305,"internal_node_id":"0.0-13.0-2.54","match_key":"l","participant_id":"COGS219_2020_37","correct":true},{"rt":null,"stimulus":"Sounds/correct.wav","key_press":null,"block":1,"trial_type":"audio-keyboard-response","trial_index":271,"time_elapsed":2088308,"internal_node_id":"0.0-13.0-3.54","match_key":"l","participant_id":"COGS219_2020_37"},{"rt":null,"stimulus":"Sounds/gun_sound.wav","key_press":null,"block":1,"trial_type":"audio-keyboard-response","trial_index":272,"time_elapsed":2088887,"internal_node_id":"0.0-13.0-0.55","match_key":"l","participant_id":"COGS219_2020_37"},{"rt":null,"stimulus":"<p style=\"font-size: 48px;\">+</p>","key_press":null,"block":1,"trial_type":"html-keyboard-response","trial_index":273,"time_elapsed":2089875,"internal_node_id":"0.0-13.0-1.55","match_key":"l","participant_id":"COGS219_2020_37"},{"rt":460.6450000000186,"stimulus":"Images/car_cartoon.png","key_press":65,"stim_onset":1583110144899,"block":1,"match_type":"non-match","image_category":"car","sound_category":"gun","audio_type":"sound","phase":"test","trial_type":"image-keyboard-response","trial_index":274,"time_elapsed":2090337,"internal_node_id":"0.0-13.0-2.55","match_key":"l","participant_id":"COGS219_2020_37","correct":true},{"rt":null,"stimulus":"Sounds/correct.wav","key_press":null,"block":1,"trial_type":"audio-keyboard-response","trial_index":275,"time_elapsed":2092340,"internal_node_id":"0.0-13.0-3.55","match_key":"l","participant_id":"COGS219_2020_37"},{"rt":null,"stimulus":"Sounds/whistle_label.wav","key_press":null,"block":1,"trial_type":"audio-keyboard-response","trial_index":276,"time_elapsed":2093046,"internal_node_id":"0.0-13.0-0.56","match_key":"l","participant_id":"COGS219_2020_37"},{"rt":null,"stimulus":"<p style=\"font-size: 48px;\">+</p>","key_press":null,"block":1,"trial_type":"html-keyboard-response","trial_index":277,"time_elapsed":2094042,"internal_node_id":"0.0-13.0-1.56","match_key":"l","participant_id":"COGS219_2020_37"},{"rt":534.1950000000652,"stimulus":"Images/frog_1.png","key_press":65,"stim_onset":1583110149065,"block":1,"match_type":"non-match","image_category":"frog","sound_category":"whistle","audio_type":"label","phase":"test","trial_type":"image-keyboard-response","trial_index":278,"time_elapsed":2094577,"internal_node_id":"0.0-13.0-2.56","match_key":"l","participant_id":"COGS219_2020_37","correct":true},{"rt":null,"stimulus":"Sounds/correct.wav","key_press":null,"block":1,"trial_type":"audio-keyboard-response","trial_index":279,"time_elapsed":2096580,"internal_node_id":"0.0-13.0-3.56","match_key":"l","participant_id":"COGS219_2020_37"},{"rt":null,"stimulus":"Sounds/motorcycle_sound.wav","key_press":null,"block":1,"trial_type":"audio-keyboard-response","trial_index":280,"time_elapsed":2097707,"internal_node_id":"0.0-13.0-0.57","match_key":"l","participant_id":"COGS219_2020_37"},{"rt":null,"stimulus":"<p style=\"font-size: 48px;\">+</p>","key_press":null,"block":1,"trial_type":"html-keyboard-response","trial_index":281,"time_elapsed":2098709,"internal_node_id":"0.0-13.0-1.57","match_key":"l","participant_id":"COGS219_2020_37"},{"rt":539.0749999997206,"stimulus":"Images/dog_orig.png","key_press":65,"stim_onset":1583110153732,"block":1,"match_type":"non-match","image_category":"dog","sound_category":"motorcycle","audio_type":"sound","phase":"test","trial_type":"image-keyboard-response","trial_index":282,"time_elapsed":2099249,"internal_node_id":"0.0-13.0-2.57","match_key":"l","participant_id":"COGS219_2020_37","correct":true},{"rt":null,"stimulus":"Sounds/correct.wav","key_press":null,"block":1,"trial_type":"audio-keyboard-response","trial_index":283,"time_elapsed":2101252,"internal_node_id":"0.0-13.0-3.57","match_key":"l","participant_id":"COGS219_2020_37"},{"rt":null,"stimulus":"Sounds/whistle_label.wav","key_press":null,"block":1,"trial_type":"audio-keyboard-response","trial_index":284,"time_elapsed":2101927,"internal_node_id":"0.0-13.0-0.58","match_key":"l","participant_id":"COGS219_2020_37"},{"rt":null,"stimulus":"<p style=\"font-size: 48px;\">+</p>","key_press":null,"block":1,"trial_type":"html-keyboard-response","trial_index":285,"time_elapsed":2102926,"internal_node_id":"0.0-13.0-1.58","match_key":"l","participant_id":"COGS219_2020_37"},{"rt":562.1200000001118,"stimulus":"Images/whistle_orig.png","key_press":76,"stim_onset":1583110157949,"block":1,"match_type":"match","image_category":"whistle","sound_category":"whistle","audio_type":"label","phase":"test","trial_type":"image-keyboard-response","trial_index":286,"time_elapsed":2103489,"internal_node_id":"0.0-13.0-2.58","match_key":"l","participant_id":"COGS219_2020_37","correct":true},{"rt":null,"stimulus":"Sounds/correct.wav","key_press":null,"block":1,"trial_type":"audio-keyboard-response","trial_index":287,"time_elapsed":2105493,"internal_node_id":"0.0-13.0-3.58","match_key":"l","participant_id":"COGS219_2020_37"},{"rt":null,"stimulus":"Sounds/cow_label.wav","key_press":null,"block":1,"trial_type":"audio-keyboard-response","trial_index":288,"time_elapsed":2106507,"internal_node_id":"0.0-13.0-0.59","match_key":"l","participant_id":"COGS219_2020_37"},{"rt":null,"stimulus":"<p style=\"font-size: 48px;\">+</p>","key_press":null,"block":1,"trial_type":"html-keyboard-response","trial_index":289,"time_elapsed":2107509,"internal_node_id":"0.0-13.0-1.59","match_key":"l","participant_id":"COGS219_2020_37"},{"rt":475.1049999999814,"stimulus":"Images/cow_orig.png","key_press":76,"stim_onset":1583110162532,"block":1,"match_type":"match","image_category":"cow","sound_category":"cow","audio_type":"label","phase":"test","trial_type":"image-keyboard-response","trial_index":290,"time_elapsed":2107985,"internal_node_id":"0.0-13.0-2.59","match_key":"l","participant_id":"COGS219_2020_37","correct":true},{"rt":null,"stimulus":"Sounds/correct.wav","key_press":null,"block":1,"trial_type":"audio-keyboard-response","trial_index":291,"time_elapsed":2109988,"internal_node_id":"0.0-13.0-3.59","match_key":"l","participant_id":"COGS219_2020_37"},{"rt":null,"stimulus":"Sounds/rooster_sound.wav","key_press":null,"block":1,"trial_type":"audio-keyboard-response","trial_index":292,"time_elapsed":2110687,"internal_node_id":"0.0-13.0-0.60","match_key":"l","participant_id":"COGS219_2020_37"},{"rt":null,"stimulus":"<p style=\"font-size: 48px;\">+</p>","key_press":null,"block":1,"trial_type":"html-keyboard-response","trial_index":293,"time_elapsed":2111692,"internal_node_id":"0.0-13.0-1.60","match_key":"l","participant_id":"COGS219_2020_37"},{"rt":723.6800000001676,"stimulus":"Images/rooster_3.png","key_press":76,"stim_onset":1583110166716,"block":1,"match_type":"match","image_category":"rooster","sound_category":"rooster","audio_type":"sound","phase":"test","trial_type":"image-keyboard-response","trial_index":294,"time_elapsed":2112417,"internal_node_id":"0.0-13.0-2.60","match_key":"l","participant_id":"COGS219_2020_37","correct":true},{"rt":null,"stimulus":"Sounds/correct.wav","key_press":null,"block":1,"trial_type":"audio-keyboard-response","trial_index":295,"time_elapsed":2114420,"internal_node_id":"0.0-13.0-3.60","match_key":"l","participant_id":"COGS219_2020_37"},{"rt":null,"stimulus":"Sounds/car_sound.wav","key_press":null,"block":1,"trial_type":"audio-keyboard-response","trial_index":296,"time_elapsed":2115507,"internal_node_id":"0.0-13.0-0.61","match_key":"l","participant_id":"COGS219_2020_37"},{"rt":null,"stimulus":"<p style=\"font-size: 48px;\">+</p>","key_press":null,"block":1,"trial_type":"html-keyboard-response","trial_index":297,"time_elapsed":2116509,"internal_node_id":"0.0-13.0-1.61","match_key":"l","participant_id":"COGS219_2020_37"},{"rt":450.8500000005588,"stimulus":"Images/car_orig.png","key_press":76,"stim_onset":1583110171533,"block":1,"match_type":"match","image_category":"car","sound_category":"car","audio_type":"sound","phase":"test","trial_type":"image-keyboard-response","trial_index":298,"time_elapsed":2116961,"internal_node_id":"0.0-13.0-2.61","match_key":"l","participant_id":"COGS219_2020_37","correct":true},{"rt":null,"stimulus":"Sounds/correct.wav","key_press":null,"block":1,"trial_type":"audio-keyboard-response","trial_index":299,"time_elapsed":2118964,"internal_node_id":"0.0-13.0-3.61","match_key":"l","participant_id":"COGS219_2020_37"},{"rt":null,"stimulus":"Sounds/car_label.wav","key_press":null,"block":1,"trial_type":"audio-keyboard-response","trial_index":300,"time_elapsed":2120047,"internal_node_id":"0.0-13.0-0.62","match_key":"l","participant_id":"COGS219_2020_37"},{"rt":null,"stimulus":"<p style=\"font-size: 48px;\">+</p>","key_press":null,"block":1,"trial_type":"html-keyboard-response","trial_index":301,"time_elapsed":2121043,"internal_node_id":"0.0-13.0-1.62","match_key":"l","participant_id":"COGS219_2020_37"},{"rt":525.7900000000373,"stimulus":"Images/gun_cartoon.png","key_press":65,"stim_onset":1583110176066,"block":1,"match_type":"non-match","image_category":"gun","sound_category":"car","audio_type":"label","phase":"test","trial_type":"image-keyboard-response","trial_index":302,"time_elapsed":2121570,"internal_node_id":"0.0-13.0-2.62","match_key":"l","participant_id":"COGS219_2020_37","correct":true},{"rt":null,"stimulus":"Sounds/correct.wav","key_press":null,"block":1,"trial_type":"audio-keyboard-response","trial_index":303,"time_elapsed":2123573,"internal_node_id":"0.0-13.0-3.62","match_key":"l","participant_id":"COGS219_2020_37"},{"rt":null,"stimulus":"Sounds/gun_sound.wav","key_press":null,"block":1,"trial_type":"audio-keyboard-response","trial_index":304,"time_elapsed":2124147,"internal_node_id":"0.0-13.0-0.63","match_key":"l","participant_id":"COGS219_2020_37"},{"rt":null,"stimulus":"<p style=\"font-size: 48px;\">+</p>","key_press":null,"block":1,"trial_type":"html-keyboard-response","trial_index":305,"time_elapsed":2125143,"internal_node_id":"0.0-13.0-1.63","match_key":"l","participant_id":"COGS219_2020_37"},{"rt":553.2599999997765,"stimulus":"Images/gun_2.png","key_press":65,"stim_onset":1583110180166,"block":1,"match_type":"match","image_category":"gun","sound_category":"gun","audio_type":"sound","phase":"test","trial_type":"image-keyboard-response","trial_index":306,"time_elapsed":2125697,"internal_node_id":"0.0-13.0-2.63","match_key":"l","participant_id":"COGS219_2020_37","correct":false},{"rt":null,"stimulus":"Sounds/incorrect.wav","key_press":null,"block":1,"trial_type":"audio-keyboard-response","trial_index":307,"time_elapsed":2127700,"internal_node_id":"0.0-13.0-3.63","match_key":"l","participant_id":"COGS219_2020_37"},{"rt":null,"stimulus":"Sounds/car_sound.wav","key_press":null,"block":1,"trial_type":"audio-keyboard-response","trial_index":308,"time_elapsed":2128747,"internal_node_id":"0.0-13.0-0.64","match_key":"l","participant_id":"COGS219_2020_37"},{"rt":null,"stimulus":"<p style=\"font-size: 48px;\">+</p>","key_press":null,"block":1,"trial_type":"html-keyboard-response","trial_index":309,"time_elapsed":2129743,"internal_node_id":"0.0-13.0-1.64","match_key":"l","participant_id":"COGS219_2020_37"},{"rt":449.4799999999814,"stimulus":"Images/car_2.png","key_press":76,"stim_onset":1583110184766,"block":1,"match_type":"match","image_category":"car","sound_category":"car","audio_type":"sound","phase":"test","trial_type":"image-keyboard-response","trial_index":310,"time_elapsed":2130194,"internal_node_id":"0.0-13.0-2.64","match_key":"l","participant_id":"COGS219_2020_37","correct":true},{"rt":null,"stimulus":"Sounds/correct.wav","key_press":null,"block":1,"trial_type":"audio-keyboard-response","trial_index":311,"time_elapsed":2132196,"internal_node_id":"0.0-13.0-3.64","match_key":"l","participant_id":"COGS219_2020_37"},{"rt":null,"stimulus":"Sounds/cow_label.wav","key_press":null,"block":1,"trial_type":"audio-keyboard-response","trial_index":312,"time_elapsed":2133227,"internal_node_id":"0.0-13.0-0.65","match_key":"l","participant_id":"COGS219_2020_37"},{"rt":null,"stimulus":"<p style=\"font-size: 48px;\">+</p>","key_press":null,"block":1,"trial_type":"html-keyboard-response","trial_index":313,"time_elapsed":2134227,"internal_node_id":"0.0-13.0-1.65","match_key":"l","participant_id":"COGS219_2020_37"},{"rt":845.5099999993108,"stimulus":"Images/cow_3.png","key_press":76,"stim_onset":1583110189250,"block":1,"match_type":"match","image_category":"cow","sound_category":"cow","audio_type":"label","phase":"test","trial_type":"image-keyboard-response","trial_index":314,"time_elapsed":2135074,"internal_node_id":"0.0-13.0-2.65","match_key":"l","participant_id":"COGS219_2020_37","correct":true},{"rt":null,"stimulus":"Sounds/correct.wav","key_press":null,"block":1,"trial_type":"audio-keyboard-response","trial_index":315,"time_elapsed":2137076,"internal_node_id":"0.0-13.0-3.65","match_key":"l","participant_id":"COGS219_2020_37"},{"rt":null,"stimulus":"Sounds/train_label.wav","key_press":null,"block":1,"trial_type":"audio-keyboard-response","trial_index":316,"time_elapsed":2138347,"internal_node_id":"0.0-13.0-0.66","match_key":"l","participant_id":"COGS219_2020_37"},{"rt":null,"stimulus":"<p style=\"font-size: 48px;\">+</p>","key_press":null,"block":1,"trial_type":"html-keyboard-response","trial_index":317,"time_elapsed":2139343,"internal_node_id":"0.0-13.0-1.66","match_key":"l","participant_id":"COGS219_2020_37"},{"rt":512.6650000000373,"stimulus":"Images/cat_2.png","key_press":65,"stim_onset":1583110194366,"block":1,"match_type":"non-match","image_category":"cat","sound_category":"train","audio_type":"label","phase":"test","trial_type":"image-keyboard-response","trial_index":318,"time_elapsed":2139858,"internal_node_id":"0.0-13.0-2.66","match_key":"l","participant_id":"COGS219_2020_37","correct":true},{"rt":null,"stimulus":"Sounds/correct.wav","key_press":null,"block":1,"trial_type":"audio-keyboard-response","trial_index":319,"time_elapsed":2141862,"internal_node_id":"0.0-13.0-3.66","match_key":"l","participant_id":"COGS219_2020_37"},{"rt":null,"stimulus":"Sounds/frog_label.wav","key_press":null,"block":1,"trial_type":"audio-keyboard-response","trial_index":320,"time_elapsed":2142767,"internal_node_id":"0.0-13.0-0.67","match_key":"l","participant_id":"COGS219_2020_37"},{"rt":null,"stimulus":"<p style=\"font-size: 48px;\">+</p>","key_press":null,"block":1,"trial_type":"html-keyboard-response","trial_index":321,"time_elapsed":2143760,"internal_node_id":"0.0-13.0-1.67","match_key":"l","participant_id":"COGS219_2020_37"},{"rt":528.7200000002049,"stimulus":"Images/frog_1.png","key_press":76,"stim_onset":1583110198783,"block":1,"match_type":"match","image_category":"frog","sound_category":"frog","audio_type":"label","phase":"test","trial_type":"image-keyboard-response","trial_index":322,"time_elapsed":2144290,"internal_node_id":"0.0-13.0-2.67","match_key":"l","participant_id":"COGS219_2020_37","correct":true},{"rt":null,"stimulus":"Sounds/correct.wav","key_press":null,"block":1,"trial_type":"audio-keyboard-response","trial_index":323,"time_elapsed":2146292,"internal_node_id":"0.0-13.0-3.67","match_key":"l","participant_id":"COGS219_2020_37"},{"rt":null,"stimulus":"Sounds/frog_label.wav","key_press":null,"block":1,"trial_type":"audio-keyboard-response","trial_index":324,"time_elapsed":2147167,"internal_node_id":"0.0-13.0-0.68","match_key":"l","participant_id":"COGS219_2020_37"},{"rt":null,"stimulus":"<p style=\"font-size: 48px;\">+</p>","key_press":null,"block":1,"trial_type":"html-keyboard-response","trial_index":325,"time_elapsed":2148160,"internal_node_id":"0.0-13.0-1.68","match_key":"l","participant_id":"COGS219_2020_37"},{"rt":545.0600000000559,"stimulus":"Images/gun_3.png","key_press":65,"stim_onset":1583110203183,"block":1,"match_type":"non-match","image_category":"gun","sound_category":"frog","audio_type":"label","phase":"test","trial_type":"image-keyboard-response","trial_index":326,"time_elapsed":2148706,"internal_node_id":"0.0-13.0-2.68","match_key":"l","participant_id":"COGS219_2020_37","correct":true},{"rt":null,"stimulus":"Sounds/correct.wav","key_press":null,"block":1,"trial_type":"audio-keyboard-response","trial_index":327,"time_elapsed":2150709,"internal_node_id":"0.0-13.0-3.68","match_key":"l","participant_id":"COGS219_2020_37"},{"rt":null,"stimulus":"Sounds/train_label.wav","key_press":null,"block":1,"trial_type":"audio-keyboard-response","trial_index":328,"time_elapsed":2151967,"internal_node_id":"0.0-13.0-0.69","match_key":"l","participant_id":"COGS219_2020_37"},{"rt":null,"stimulus":"<p style=\"font-size: 48px;\">+</p>","key_press":null,"block":1,"trial_type":"html-keyboard-response","trial_index":329,"time_elapsed":2152960,"internal_node_id":"0.0-13.0-1.69","match_key":"l","participant_id":"COGS219_2020_37"},{"rt":656.6049999999814,"stimulus":"Images/motorcycle_1.png","key_press":76,"stim_onset":1583110207983,"block":1,"match_type":"non-match","image_category":"motorcycle","sound_category":"train","audio_type":"label","phase":"test","trial_type":"image-keyboard-response","trial_index":330,"time_elapsed":2153618,"internal_node_id":"0.0-13.0-2.69","match_key":"l","participant_id":"COGS219_2020_37","correct":false},{"rt":null,"stimulus":"Sounds/incorrect.wav","key_press":null,"block":1,"trial_type":"audio-keyboard-response","trial_index":331,"time_elapsed":2155620,"internal_node_id":"0.0-13.0-3.69","match_key":"l","participant_id":"COGS219_2020_37"},{"rt":null,"stimulus":"Sounds/gun_label.wav","key_press":null,"block":1,"trial_type":"audio-keyboard-response","trial_index":332,"time_elapsed":2156207,"internal_node_id":"0.0-13.0-0.70","match_key":"l","participant_id":"COGS219_2020_37"},{"rt":null,"stimulus":"<p style=\"font-size: 48px;\">+</p>","key_press":null,"block":1,"trial_type":"html-keyboard-response","trial_index":333,"time_elapsed":2157210,"internal_node_id":"0.0-13.0-1.70","match_key":"l","participant_id":"COGS219_2020_37"},{"rt":662.339999999851,"stimulus":"Images/gun_cartoon.png","key_press":76,"stim_onset":1583110212233,"block":1,"match_type":"match","image_category":"gun","sound_category":"gun","audio_type":"label","phase":"test","trial_type":"image-keyboard-response","trial_index":334,"time_elapsed":2157874,"internal_node_id":"0.0-13.0-2.70","match_key":"l","participant_id":"COGS219_2020_37","correct":true},{"rt":null,"stimulus":"Sounds/correct.wav","key_press":null,"block":1,"trial_type":"audio-keyboard-response","trial_index":335,"time_elapsed":2159877,"internal_node_id":"0.0-13.0-3.70","match_key":"l","participant_id":"COGS219_2020_37"},{"rt":null,"stimulus":"Sounds/motorcycle_label.wav","key_press":null,"block":1,"trial_type":"audio-keyboard-response","trial_index":336,"time_elapsed":2161027,"internal_node_id":"0.0-13.0-0.71","match_key":"l","participant_id":"COGS219_2020_37"},{"rt":null,"stimulus":"<p style=\"font-size: 48px;\">+</p>","key_press":null,"block":1,"trial_type":"html-keyboard-response","trial_index":337,"time_elapsed":2162027,"internal_node_id":"0.0-13.0-1.71","match_key":"l","participant_id":"COGS219_2020_37"},{"rt":438.09999999962747,"stimulus":"Images/motorcycle_orig.png","key_press":76,"stim_onset":1583110217050,"block":1,"match_type":"match","image_category":"motorcycle","sound_category":"motorcycle","audio_type":"label","phase":"test","trial_type":"image-keyboard-response","trial_index":338,"time_elapsed":2162466,"internal_node_id":"0.0-13.0-2.71","match_key":"l","participant_id":"COGS219_2020_37","correct":true},{"rt":null,"stimulus":"Sounds/correct.wav","key_press":null,"block":1,"trial_type":"audio-keyboard-response","trial_index":339,"time_elapsed":2164469,"internal_node_id":"0.0-13.0-3.71","match_key":"l","participant_id":"COGS219_2020_37"},{"rt":null,"stimulus":"Sounds/cow_label.wav","key_press":null,"block":1,"trial_type":"audio-keyboard-response","trial_index":340,"time_elapsed":2165487,"internal_node_id":"0.0-13.0-0.72","match_key":"l","participant_id":"COGS219_2020_37"},{"rt":null,"stimulus":"<p style=\"font-size: 48px;\">+</p>","key_press":null,"block":1,"trial_type":"html-keyboard-response","trial_index":341,"time_elapsed":2166493,"internal_node_id":"0.0-13.0-1.72","match_key":"l","participant_id":"COGS219_2020_37"},{"rt":595.089999999851,"stimulus":"Images/cow_cartoon.png","key_press":76,"stim_onset":1583110221517,"block":1,"match_type":"match","image_category":"cow","sound_category":"cow","audio_type":"label","phase":"test","trial_type":"image-keyboard-response","trial_index":342,"time_elapsed":2167090,"internal_node_id":"0.0-13.0-2.72","match_key":"l","participant_id":"COGS219_2020_37","correct":true},{"rt":null,"stimulus":"Sounds/correct.wav","key_press":null,"block":1,"trial_type":"audio-keyboard-response","trial_index":343,"time_elapsed":2169092,"internal_node_id":"0.0-13.0-3.72","match_key":"l","participant_id":"COGS219_2020_37"},{"rt":null,"stimulus":"Sounds/car_sound.wav","key_press":null,"block":1,"trial_type":"audio-keyboard-response","trial_index":344,"time_elapsed":2170167,"internal_node_id":"0.0-13.0-0.73","match_key":"l","participant_id":"COGS219_2020_37"},{"rt":null,"stimulus":"<p style=\"font-size: 48px;\">+</p>","key_press":null,"block":1,"trial_type":"html-keyboard-response","trial_index":345,"time_elapsed":2171160,"internal_node_id":"0.0-13.0-1.73","match_key":"l","participant_id":"COGS219_2020_37"},{"rt":760.410000000149,"stimulus":"Images/cat_3.png","key_press":65,"stim_onset":1583110226183,"block":1,"match_type":"non-match","image_category":"cat","sound_category":"car","audio_type":"sound","phase":"test","trial_type":"image-keyboard-response","trial_index":346,"time_elapsed":2171922,"internal_node_id":"0.0-13.0-2.73","match_key":"l","participant_id":"COGS219_2020_37","correct":true},{"rt":null,"stimulus":"Sounds/correct.wav","key_press":null,"block":1,"trial_type":"audio-keyboard-response","trial_index":347,"time_elapsed":2173925,"internal_node_id":"0.0-13.0-3.73","match_key":"l","participant_id":"COGS219_2020_37"},{"rt":null,"stimulus":"Sounds/rooster_label.wav","key_press":null,"block":1,"trial_type":"audio-keyboard-response","trial_index":348,"time_elapsed":2174628,"internal_node_id":"0.0-13.0-0.74","match_key":"l","participant_id":"COGS219_2020_37"},{"rt":null,"stimulus":"<p style