[{"rt":13401.485000000008,"responses":"{\"Q0\":\"COGS219_2020_10\"}","trial_type":"survey-text","trial_index":0,"time_elapsed":13453,"internal_node_id":"0.0-0.0","match_key":"a","participant_id":"COGS219_2020_10"},{"rt":48867.42999999998,"stimulus":"<p>Use KEYBOARD 2 (match LEFT)</p><p>Press MATCH to continue.</p>","key_press":65,"trial_type":"html-keyboard-response","trial_index":1,"time_elapsed":62318,"internal_node_id":"0.0-1.0","match_key":"a","participant_id":"COGS219_2020_10"},{"rt":1462878.3,"stimulus":"<p>Welcome to the experiment.</p>","key_press":13,"trial_type":"html-keyboard-response","trial_index":2,"time_elapsed":1525568,"internal_node_id":"0.0-2.0","match_key":"a","participant_id":"COGS219_2020_10"},{"rt":10980.449999999953,"stimulus":"<p>Thank you for agreeing to participate in this study.</p><p>If during any part of the procedure you must stop for any reason, please inform the researcher that you do not wish to continue.</p>","key_press":13,"trial_type":"html-keyboard-response","trial_index":3,"time_elapsed":1536552,"internal_node_id":"0.0-3.0","match_key":"a","participant_id":"COGS219_2020_10"},{"rt":19455.38500000001,"stimulus":"<p>In this experiment, you will hear various words or sounds and see pictures of various animals and objects.</p><p>Most of the images will be of common everyday objects, such as cars, cats, cows, firearms, frogs, chickens, whistles, trains, motorcycles, and dogs.</p><p>Some of the images will be real-life stills, while others will be cartoons.</p>","key_press":13,"trial_type":"html-keyboard-response","trial_index":4,"time_elapsed":1556007,"internal_node_id":"0.0-4.0","match_key":"a","participant_id":"COGS219_2020_10"},{"rt":15703.255000000121,"stimulus":"<p>Sometimes, the word/sound will match the picture, for example you'll hear a meowing sound and see a cat.</p><p>Other times, the picture will not match the sound or word.</p><p>Your task is to decide as quickly as possible if the word/sound matches the picture or not. </p>","key_press":13,"trial_type":"html-keyboard-response","trial_index":5,"time_elapsed":1571711,"internal_node_id":"0.0-5.0","match_key":"a","participant_id":"COGS219_2020_10"},{"rt":42919.070000000065,"stimulus":"<p>For example, if you hear the word \"cat\" or hear a meowing sound, and then see a picture of a cat, you should press the MATCH key.</p><p> If the sound and image do not match, press the NOT-MATCH key to indicate that there is not a match.</p>","key_press":13,"trial_type":"html-keyboard-response","trial_index":6,"time_elapsed":1614631,"internal_node_id":"0.0-6.0","match_key":"a","participant_id":"COGS219_2020_10"},{"rt":12887.610000000102,"stimulus":"<p>If you make a mistake, you will hear a buzzing sound instead of a more pleasant sound.</p><p> Try to respond as quickly as possible, while making as few errors as possible. If you are making mistakes, you are probably rushing.</p>","key_press":13,"trial_type":"html-keyboard-response","trial_index":7,"time_elapsed":1627509,"internal_node_id":"0.0-7.0","match_key":"a","participant_id":"COGS219_2020_10"},{"rt":11214.929999999935,"stimulus":"<p>Please try to not move or blink your eyes during the presentation of the images. You can move and blink between images.</p><p>During the experiment there will be some breaks during which you can rest your eyes.</p>","key_press":13,"trial_type":"html-keyboard-response","trial_index":8,"time_elapsed":1638725,"internal_node_id":"0.0-8.0","match_key":"a","participant_id":"COGS219_2020_10"},{"rt":27695.22499999986,"stimulus":"<p>We will begin with 10 practice trials. Please let the experimenter know if you have any questions.</p>","key_press":32,"trial_type":"html-keyboard-response","trial_index":9,"time_elapsed":1666421,"internal_node_id":"0.0-9.0","match_key":"a","participant_id":"COGS219_2020_10"},{"rt":null,"stimulus":"Sounds/motorcycle_label.wav","key_press":null,"block":0,"trial_type":"audio-keyboard-response","trial_index":10,"time_elapsed":1667641,"internal_node_id":"0.0-10.0-0.0","match_key":"a","participant_id":"COGS219_2020_10"},{"rt":null,"stimulus":"<p style=\"font-size: 48px;\">+</p>","key_press":null,"block":0,"trial_type":"html-keyboard-response","trial_index":11,"time_elapsed":1668634,"internal_node_id":"0.0-10.0-1.0","match_key":"a","participant_id":"COGS219_2020_10"},{"rt":1225.2399999999907,"stimulus":"Images/train_cartoon.png","key_press":76,"stim_onset":1581561917691,"block":0,"match_type":"non-match","image_category":"train","sound_category":"motorcycle","audio_type":"label","phase":"practice","trial_type":"image-keyboard-response","trial_index":12,"time_elapsed":1669861,"internal_node_id":"0.0-10.0-2.0","match_key":"a","participant_id":"COGS219_2020_10","correct":true},{"rt":null,"stimulus":"Sounds/correct.wav","key_press":null,"block":0,"trial_type":"audio-keyboard-response","trial_index":13,"time_elapsed":1671876,"internal_node_id":"0.0-10.0-3.0","match_key":"a","participant_id":"COGS219_2020_10"},{"rt":null,"stimulus":"Sounds/cat_label.wav","key_press":null,"block":0,"trial_type":"audio-keyboard-response","trial_index":14,"time_elapsed":1672721,"internal_node_id":"0.0-10.0-0.1","match_key":"a","participant_id":"COGS219_2020_10"},{"rt":null,"stimulus":"<p style=\"font-size: 48px;\">+</p>","key_press":null,"block":0,"trial_type":"html-keyboard-response","trial_index":15,"time_elapsed":1673717,"internal_node_id":"0.0-10.0-1.1","match_key":"a","participant_id":"COGS219_2020_10"},{"rt":878.3700000001118,"stimulus":"Images/cat_3.png","key_press":65,"stim_onset":1581561922774,"block":0,"match_type":"match","image_category":"cat","sound_category":"cat","audio_type":"label","phase":"practice","trial_type":"image-keyboard-response","trial_index":16,"time_elapsed":1674597,"internal_node_id":"0.0-10.0-2.1","match_key":"a","participant_id":"COGS219_2020_10","correct":true},{"rt":null,"stimulus":"Sounds/correct.wav","key_press":null,"block":0,"trial_type":"audio-keyboard-response","trial_index":17,"time_elapsed":1676607,"internal_node_id":"0.0-10.0-3.1","match_key":"a","participant_id":"COGS219_2020_10"},{"rt":null,"stimulus":"Sounds/frog_label.wav","key_press":null,"block":0,"trial_type":"audio-keyboard-response","trial_index":18,"time_elapsed":1677501,"internal_node_id":"0.0-10.0-0.2","match_key":"a","participant_id":"COGS219_2020_10"},{"rt":null,"stimulus":"<p style=\"font-size: 48px;\">+</p>","key_press":null,"block":0,"trial_type":"html-keyboard-response","trial_index":19,"time_elapsed":1678500,"internal_node_id":"0.0-10.0-1.2","match_key":"a","participant_id":"COGS219_2020_10"},{"rt":1919.7150000000838,"stimulus":"Images/gun_3.png","key_press":76,"stim_onset":1581561927557,"block":0,"match_type":"non-match","image_category":"gun","sound_category":"frog","audio_type":"label","phase":"practice","trial_type":"image-keyboard-response","trial_index":20,"time_elapsed":1680421,"internal_node_id":"0.0-10.0-2.2","match_key":"a","participant_id":"COGS219_2020_10","correct":true},{"rt":null,"stimulus":"Sounds/correct.wav","key_press":null,"block":0,"trial_type":"audio-keyboard-response","trial_index":21,"time_elapsed":1682424,"internal_node_id":"0.0-10.0-3.2","match_key":"a","participant_id":"COGS219_2020_10"},{"rt":null,"stimulus":"Sounds/cat_sound.wav","key_press":null,"block":0,"trial_type":"audio-keyboard-response","trial_index":22,"time_elapsed":1683261,"internal_node_id":"0.0-10.0-0.3","match_key":"a","participant_id":"COGS219_2020_10"},{"rt":null,"stimulus":"<p style=\"font-size: 48px;\">+</p>","key_press":null,"block":0,"trial_type":"html-keyboard-response","trial_index":23,"time_elapsed":1684250,"internal_node_id":"0.0-10.0-1.3","match_key":"a","participant_id":"COGS219_2020_10"},{"rt":1385.339999999851,"stimulus":"Images/cat_2.png","key_press":65,"stim_onset":1581561933307,"block":0,"match_type":"match","image_category":"cat","sound_category":"cat","audio_type":"sound","phase":"practice","trial_type":"image-keyboard-response","trial_index":24,"time_elapsed":1685637,"internal_node_id":"0.0-10.0-2.3","match_key":"a","participant_id":"COGS219_2020_10","correct":true},{"rt":null,"stimulus":"Sounds/correct.wav","key_press":null,"block":0,"trial_type":"audio-keyboard-response","trial_index":25,"time_elapsed":1687655,"internal_node_id":"0.0-10.0-3.3","match_key":"a","participant_id":"COGS219_2020_10"},{"rt":null,"stimulus":"Sounds/frog_sound.wav","key_press":null,"block":0,"trial_type":"audio-keyboard-response","trial_index":26,"time_elapsed":1688573,"internal_node_id":"0.0-10.0-0.4","match_key":"a","participant_id":"COGS219_2020_10"},{"rt":null,"stimulus":"<p style=\"font-size: 48px;\">+</p>","key_press":null,"block":0,"trial_type":"html-keyboard-response","trial_index":27,"time_elapsed":1689562,"internal_node_id":"0.0-10.0-1.4","match_key":"a","participant_id":"COGS219_2020_10"},{"rt":1061.5900000000838,"stimulus":"Images/frog_2.png","key_press":65,"stim_onset":1581561938620,"block":0,"match_type":"match","image_category":"frog","sound_category":"frog","audio_type":"sound","phase":"practice","trial_type":"image-keyboard-response","trial_index":28,"time_elapsed":1690625,"internal_node_id":"0.0-10.0-2.4","match_key":"a","participant_id":"COGS219_2020_10","correct":true},{"rt":null,"stimulus":"Sounds/correct.wav","key_press":null,"block":0,"trial_type":"audio-keyboard-response","trial_index":29,"time_elapsed":1692634,"internal_node_id":"0.0-10.0-3.4","match_key":"a","participant_id":"COGS219_2020_10"},{"rt":null,"stimulus":"Sounds/motorcycle_label.wav","key_press":null,"block":0,"trial_type":"audio-keyboard-response","trial_index":30,"time_elapsed":1693753,"internal_node_id":"0.0-10.0-0.5","match_key":"a","participant_id":"COGS219_2020_10"},{"rt":null,"stimulus":"<p style=\"font-size: 48px;\">+</p>","key_press":null,"block":0,"trial_type":"html-keyboard-response","trial_index":31,"time_elapsed":1694746,"internal_node_id":"0.0-10.0-1.5","match_key":"a","participant_id":"COGS219_2020_10"},{"rt":773.8850000000093,"stimulus":"Images/dog_orig.png","key_press":76,"stim_onset":1581561943803,"block":0,"match_type":"non-match","image_category":"dog","sound_category":"motorcycle","audio_type":"label","phase":"practice","trial_type":"image-keyboard-response","trial_index":32,"time_elapsed":1695521,"internal_node_id":"0.0-10.0-2.5","match_key":"a","participant_id":"COGS219_2020_10","correct":true},{"rt":null,"stimulus":"Sounds/correct.wav","key_press":null,"block":0,"trial_type":"audio-keyboard-response","trial_index":33,"time_elapsed":1697532,"internal_node_id":"0.0-10.0-3.5","match_key":"a","participant_id":"COGS219_2020_10"},{"rt":null,"stimulus":"Sounds/motorcycle_label.wav","key_press":null,"block":0,"trial_type":"audio-keyboard-response","trial_index":34,"time_elapsed":1698653,"internal_node_id":"0.0-10.0-0.6","match_key":"a","participant_id":"COGS219_2020_10"},{"rt":null,"stimulus":"<p style=\"font-size: 48px;\">+</p>","key_press":null,"block":0,"trial_type":"html-keyboard-response","trial_index":35,"time_elapsed":1699646,"internal_node_id":"0.0-10.0-1.6","match_key":"a","participant_id":"COGS219_2020_10"},{"rt":833.839999999851,"stimulus":"Images/motorcycle_2.png","key_press":65,"stim_onset":1581561948703,"block":0,"match_type":"match","image_category":"motorcycle","sound_category":"motorcycle","audio_type":"label","phase":"practice","trial_type":"image-keyboard-response","trial_index":36,"time_elapsed":1700481,"internal_node_id":"0.0-10.0-2.6","match_key":"a","participant_id":"COGS219_2020_10","correct":true},{"rt":null,"stimulus":"Sounds/correct.wav","key_press":null,"block":0,"trial_type":"audio-keyboard-response","trial_index":37,"time_elapsed":1702485,"internal_node_id":"0.0-10.0-3.6","match_key":"a","participant_id":"COGS219_2020_10"},{"rt":null,"stimulus":"Sounds/motorcycle_label.wav","key_press":null,"block":0,"trial_type":"audio-keyboard-response","trial_index":38,"time_elapsed":1703593,"internal_node_id":"0.0-10.0-0.7","match_key":"a","participant_id":"COGS219_2020_10"},{"rt":null,"stimulus":"<p style=\"font-size: 48px;\">+</p>","key_press":null,"block":0,"trial_type":"html-keyboard-response","trial_index":39,"time_elapsed":1704596,"internal_node_id":"0.0-10.0-1.7","match_key":"a","participant_id":"COGS219_2020_10"},{"rt":587.2450000003446,"stimulus":"Images/whistle_1.png","key_press":76,"stim_onset":1581561953653,"block":0,"match_type":"non-match","image_category":"whistle","sound_category":"motorcycle","audio_type":"label","phase":"practice","trial_type":"image-keyboard-response","trial_index":40,"time_elapsed":1705185,"internal_node_id":"0.0-10.0-2.7","match_key":"a","participant_id":"COGS219_2020_10","correct":true},{"rt":null,"stimulus":"Sounds/correct.wav","key_press":null,"block":0,"trial_type":"audio-keyboard-response","trial_index":41,"time_elapsed":1707200,"internal_node_id":"0.0-10.0-3.7","match_key":"a","participant_id":"COGS219_2020_10"},{"rt":null,"stimulus":"Sounds/dog_sound.wav","key_press":null,"block":0,"trial_type":"audio-keyboard-response","trial_index":42,"time_elapsed":1707913,"internal_node_id":"0.0-10.0-0.8","match_key":"a","participant_id":"COGS219_2020_10"},{"rt":null,"stimulus":"<p style=\"font-size: 48px;\">+</p>","key_press":null,"block":0,"trial_type":"html-keyboard-response","trial_index":43,"time_elapsed":1708913,"internal_node_id":"0.0-10.0-1.8","match_key":"a","participant_id":"COGS219_2020_10"},{"rt":679.0200000000186,"stimulus":"Images/dog_1.png","key_press":65,"stim_onset":1581561957970,"block":0,"match_type":"match","image_category":"dog","sound_category":"dog","audio_type":"sound","phase":"practice","trial_type":"image-keyboard-response","trial_index":44,"time_elapsed":1709593,"internal_node_id":"0.0-10.0-2.8","match_key":"a","participant_id":"COGS219_2020_10","correct":true},{"rt":null,"stimulus":"Sounds/correct.wav","key_press":null,"block":0,"trial_type":"audio-keyboard-response","trial_index":45,"time_elapsed":1711601,"internal_node_id":"0.0-10.0-3.8","match_key":"a","participant_id":"COGS219_2020_10"},{"rt":null,"stimulus":"Sounds/car_sound.wav","key_press":null,"block":0,"trial_type":"audio-keyboard-response","trial_index":46,"time_elapsed":1712673,"internal_node_id":"0.0-10.0-0.9","match_key":"a","participant_id":"COGS219_2020_10"},{"rt":null,"stimulus":"<p style=\"font-size: 48px;\">+</p>","key_press":null,"block":0,"trial_type":"html-keyboard-response","trial_index":47,"time_elapsed":1713680,"internal_node_id":"0.0-10.0-1.9","match_key":"a","participant_id":"COGS219_2020_10"},{"rt":2648.380000000121,"stimulus":"Images/car_cartoon.png","key_press":76,"stim_onset":1581561962737,"block":0,"match_type":"match","image_category":"car","sound_category":"car","audio_type":"sound","phase":"practice","trial_type":"image-keyboard-response","trial_index":48,"time_elapsed":1716329,"internal_node_id":"0.0-10.0-2.9","match_key":"a","participant_id":"COGS219_2020_10","correct":false},{"rt":null,"stimulus":"Sounds/incorrect.wav","key_press":null,"block":0,"trial_type":"audio-keyboard-response","trial_index":49,"time_elapsed":1718339,"internal_node_id":"0.0-10.0-3.9","match_key":"a","participant_id":"COGS219_2020_10"},{"rt":20101.959999999963,"stimulus":"<p>The rest of the experiment is divided into five blocks with 100 trials in each block. It will take about 45 minutes to complete.</p><p>The experimenter will be in the outer room and you can communicate with them through the monitor if you have any questions or wish to stop the experiment.</p>","key_press":13,"trial_type":"html-keyboard-response","trial_index":50,"time_elapsed":1738441,"internal_node_id":"0.0-11.0","match_key":"a","participant_id":"COGS219_2020_10"},{"rt":118.64500000001863,"stimulus":"<p>Remember, please try not to move or blink your eyes during the presentation of the images. </p><p>At the end of the experiment, we will show you your scores on the task so you can see how you did.</p><p>The experiment will start on the next screen.</p>","key_press":32,"trial_type":"html-keyboard-response","trial_index":51,"time_elapsed":1738561,"internal_node_id":"0.0-12.0","match_key":"a","participant_id":"COGS219_2020_10"},{"rt":null,"stimulus":"Sounds/cow_label.wav","key_press":null,"block":1,"trial_type":"audio-keyboard-response","trial_index":52,"time_elapsed":1741609,"internal_node_id":"0.0-13.0-0.0","match_key":"a","participant_id":"COGS219_2020_10"},{"rt":null,"stimulus":"<p style=\"font-size: 48px;\">+</p>","key_press":null,"block":1,"trial_type":"html-keyboard-response","trial_index":53,"time_elapsed":1742613,"internal_node_id":"0.0-13.0-1.0","match_key":"a","participant_id":"COGS219_2020_10"},{"rt":1650.8400000000838,"stimulus":"Images/dog_3.png","key_press":76,"stim_onset":1581561991670,"block":1,"match_type":"non-match","image_category":"dog","sound_category":"cow","audio_type":"label","phase":"test","trial_type":"image-keyboard-response","trial_index":54,"time_elapsed":1744265,"internal_node_id":"0.0-13.0-2.0","match_key":"a","participant_id":"COGS219_2020_10","correct":true},{"rt":null,"stimulus":"Sounds/correct.wav","key_press":null,"block":1,"trial_type":"audio-keyboard-response","trial_index":55,"time_elapsed":1746271,"internal_node_id":"0.0-13.0-3.0","match_key":"a","participant_id":"COGS219_2020_10"},{"rt":null,"stimulus":"Sounds/motorcycle_sound.wav","key_press":null,"block":1,"trial_type":"audio-keyboard-response","trial_index":56,"time_elapsed":1747391,"internal_node_id":"0.0-13.0-0.1","match_key":"a","participant_id":"COGS219_2020_10"},{"rt":null,"stimulus":"<p style=\"font-size: 48px;\">+</p>","key_press":null,"block":1,"trial_type":"html-keyboard-response","trial_index":57,"time_elapsed":1748397,"internal_node_id":"0.0-13.0-1.1","match_key":"a","participant_id":"COGS219_2020_10"},{"rt":1114.9099999999162,"stimulus":"Images/frog_cartoon.png","key_press":76,"stim_onset":1581561997454,"block":1,"match_type":"non-match","image_category":"frog","sound_category":"motorcycle","audio_type":"sound","phase":"test","trial_type":"image-keyboard-response","trial_index":58,"time_elapsed":1749513,"internal_node_id":"0.0-13.0-2.1","match_key":"a","participant_id":"COGS219_2020_10","correct":true},{"rt":null,"stimulus":"Sounds/correct.wav","key_press":null,"block":1,"trial_type":"audio-keyboard-response","trial_index":59,"time_elapsed":1751519,"internal_node_id":"0.0-13.0-3.1","match_key":"a","participant_id":"COGS219_2020_10"},{"rt":null,"stimulus":"Sounds/car_label.wav","key_press":null,"block":1,"trial_type":"audio-keyboard-response","trial_index":60,"time_elapsed":1752590,"internal_node_id":"0.0-13.0-0.2","match_key":"a","participant_id":"COGS219_2020_10"},{"rt":null,"stimulus":"<p style=\"font-size: 48px;\">+</p>","key_press":null,"block":1,"trial_type":"html-keyboard-response","trial_index":61,"time_elapsed":1753580,"internal_node_id":"0.0-13.0-1.2","match_key":"a","participant_id":"COGS219_2020_10"},{"rt":907.8149999999441,"stimulus":"Images/car_1.png","key_press":65,"stim_onset":1581562002637,"block":1,"match_type":"match","image_category":"car","sound_category":"car","audio_type":"label","phase":"test","trial_type":"image-keyboard-response","trial_index":62,"time_elapsed":1754489,"internal_node_id":"0.0-13.0-2.2","match_key":"a","participant_id":"COGS219_2020_10","correct":true},{"rt":null,"stimulus":"Sounds/correct.wav","key_press":null,"block":1,"trial_type":"audio-keyboard-response","trial_index":63,"time_elapsed":1756507,"internal_node_id":"0.0-13.0-3.2","match_key":"a","participant_id":"COGS219_2020_10"},{"rt":null,"stimulus":"Sounds/rooster_sound.wav","key_press":null,"block":1,"trial_type":"audio-keyboard-response","trial_index":64,"time_elapsed":1757209,"internal_node_id":"0.0-13.0-0.3","match_key":"a","participant_id":"COGS219_2020_10"},{"rt":null,"stimulus":"<p style=\"font-size: 48px;\">+</p>","key_press":null,"block":1,"trial_type":"html-keyboard-response","trial_index":65,"time_elapsed":1758214,"internal_node_id":"0.0-13.0-1.3","match_key":"a","participant_id":"COGS219_2020_10"},{"rt":866.3300000000745,"stimulus":"Images/rooster_cartoon.png","key_press":65,"stim_onset":1581562007271,"block":1,"match_type":"match","image_category":"rooster","sound_category":"rooster","audio_type":"sound","phase":"test","trial_type":"image-keyboard-response","trial_index":66,"time_elapsed":1759081,"internal_node_id":"0.0-13.0-2.3","match_key":"a","participant_id":"COGS219_2020_10","correct":true},{"rt":null,"stimulus":"Sounds/correct.wav","key_press":null,"block":1,"trial_type":"audio-keyboard-response","trial_index":67,"time_elapsed":1761085,"internal_node_id":"0.0-13.0-3.3","match_key":"a","participant_id":"COGS219_2020_10"},{"rt":null,"stimulus":"Sounds/whistle_sound.wav","key_press":null,"block":1,"trial_type":"audio-keyboard-response","trial_index":68,"time_elapsed":1761790,"internal_node_id":"0.0-13.0-0.4","match_key":"a","participant_id":"COGS219_2020_10"},{"rt":null,"stimulus":"<p style=\"font-size: 48px;\">+</p>","key_press":null,"block":1,"trial_type":"html-keyboard-response","trial_index":69,"time_elapsed":1762797,"internal_node_id":"0.0-13.0-1.4","match_key":"a","participant_id":"COGS219_2020_10"},{"rt":1083.434999999823,"stimulus":"Images/gun_orig.png","key_press":76,"stim_onset":1581562011854,"block":1,"match_type":"non-match","image_category":"gun","sound_category":"whistle","audio_type":"sound","phase":"test","trial_type":"image-keyboard-response","trial_index":70,"time_elapsed":1763881,"internal_node_id":"0.0-13.0-2.4","match_key":"a","participant_id":"COGS219_2020_10","correct":true},{"rt":null,"stimulus":"Sounds/correct.wav","key_press":null,"block":1,"trial_type":"audio-keyboard-response","trial_index":71,"time_elapsed":1765889,"internal_node_id":"0.0-13.0-3.4","match_key":"a","participant_id":"COGS219_2020_10"},{"rt":null,"stimulus":"Sounds/gun_sound.wav","key_press":null,"block":1,"trial_type":"audio-keyboard-response","trial_index":72,"time_elapsed":1766470,"internal_node_id":"0.0-13.0-0.5","match_key":"a","participant_id":"COGS219_2020_10"},{"rt":null,"stimulus":"<p style=\"font-size: 48px;\">+</p>","key_press":null,"block":1,"trial_type":"html-keyboard-response","trial_index":73,"time_elapsed":1767464,"internal_node_id":"0.0-13.0-1.5","match_key":"a","participant_id":"COGS219_2020_10"},{"rt":1760.4200000001583,"stimulus":"Images/train_3.png","key_press":76,"stim_onset":1581562016521,"block":1,"match_type":"non-match","image_category":"train","sound_category":"gun","audio_type":"sound","phase":"test","trial_type":"image-keyboard-response","trial_index":74,"time_elapsed":1769225,"internal_node_id":"0.0-13.0-2.5","match_key":"a","participant_id":"COGS219_2020_10","correct":true},{"rt":null,"stimulus":"Sounds/correct.wav","key_press":null,"block":1,"trial_type":"audio-keyboard-response","trial_index":75,"time_elapsed":1771236,"internal_node_id":"0.0-13.0-3.5","match_key":"a","participant_id":"COGS219_2020_10"},{"rt":null,"stimulus":"Sounds/cat_label.wav","key_press":null,"block":1,"trial_type":"audio-keyboard-response","trial_index":76,"time_elapsed":1772069,"internal_node_id":"0.0-13.0-0.6","match_key":"a","participant_id":"COGS219_2020_10"},{"rt":null,"stimulus":"<p style=\"font-size: 48px;\">+</p>","key_press":null,"block":1,"trial_type":"html-keyboard-response","trial_index":77,"time_elapsed":1773064,"internal_node_id":"0.0-13.0-1.6","match_key":"a","participant_id":"COGS219_2020_10"},{"rt":632.5750000001863,"stimulus":"Images/cat_orig.png","key_press":65,"stim_onset":1581562022121,"block":1,"match_type":"match","image_category":"cat","sound_category":"cat","audio_type":"label","phase":"test","trial_type":"image-keyboard-response","trial_index":78,"time_elapsed":1773697,"internal_node_id":"0.0-13.0-2.6","match_key":"a","participant_id":"COGS219_2020_10","correct":true},{"rt":null,"stimulus":"Sounds/correct.wav","key_press":null,"block":1,"trial_type":"audio-keyboard-response","trial_index":79,"time_elapsed":1775703,"internal_node_id":"0.0-13.0-3.6","match_key":"a","participant_id":"COGS219_2020_10"},{"rt":null,"stimulus":"Sounds/motorcycle_label.wav","key_press":null,"block":1,"trial_type":"audio-keyboard-response","trial_index":80,"time_elapsed":1776849,"internal_node_id":"0.0-13.0-0.7","match_key":"a","participant_id":"COGS219_2020_10"},{"rt":null,"stimulus":"<p style=\"font-size: 48px;\">+</p>","key_press":null,"block":1,"trial_type":"html-keyboard-response","trial_index":81,"time_elapsed":1777847,"internal_node_id":"0.0-13.0-1.7","match_key":"a","participant_id":"COGS219_2020_10"},{"rt":1137.2000000001863,"stimulus":"Images/motorcycle_cartoon.png","key_press":65,"stim_onset":1581562026904,"block":1,"match_type":"match","image_category":"motorcycle","sound_category":"motorcycle","audio_type":"label","phase":"test","trial_type":"image-keyboard-response","trial_index":82,"time_elapsed":1778985,"internal_node_id":"0.0-13.0-2.7","match_key":"a","participant_id":"COGS219_2020_10","correct":true},{"rt":null,"stimulus":"Sounds/correct.wav","key_press":null,"block":1,"trial_type":"audio-keyboard-response","trial_index":83,"time_elapsed":1781001,"internal_node_id":"0.0-13.0-3.7","match_key":"a","participant_id":"COGS219_2020_10"},{"rt":null,"stimulus":"Sounds/dog_label.wav","key_press":null,"block":1,"trial_type":"audio-keyboard-response","trial_index":84,"time_elapsed":1781670,"internal_node_id":"0.0-13.0-0.8","match_key":"a","participant_id":"COGS219_2020_10"},{"rt":null,"stimulus":"<p style=\"font-size: 48px;\">+</p>","key_press":null,"block":1,"trial_type":"html-keyboard-response","trial_index":85,"time_elapsed":1782664,"internal_node_id":"0.0-13.0-1.8","match_key":"a","participant_id":"COGS219_2020_10"},{"rt":584.2599999997765,"stimulus":"Images/dog_2.png","key_press":65,"stim_onset":1581562031721,"block":1,"match_type":"match","image_category":"dog","sound_category":"dog","audio_type":"label","phase":"test","trial_type":"image-keyboard-response","trial_index":86,"time_elapsed":1783249,"internal_node_id":"0.0-13.0-2.8","match_key":"a","participant_id":"COGS219_2020_10","correct":true},{"rt":null,"stimulus":"Sounds/correct.wav","key_press":null,"block":1,"trial_type":"audio-keyboard-response","trial_index":87,"time_elapsed":1785252,"internal_node_id":"0.0-13.0-3.8","match_key":"a","participant_id":"COGS219_2020_10"},{"rt":null,"stimulus":"Sounds/rooster_label.wav","key_press":null,"block":1,"trial_type":"audio-keyboard-response","trial_index":88,"time_elapsed":1785950,"internal_node_id":"0.0-13.0-0.9","match_key":"a","participant_id":"COGS219_2020_10"},{"rt":null,"stimulus":"<p style=\"font-size: 48px;\">+</p>","key_press":null,"block":1,"trial_type":"html-keyboard-response","trial_index":89,"time_elapsed":1786947,"internal_node_id":"0.0-13.0-1.9","match_key":"a","participant_id":"COGS219_2020_10"},{"rt":725.1599999999162,"stimulus":"Images/dog_cartoon.png","key_press":76,"stim_onset":1581562036004,"block":1,"match_type":"non-match","image_category":"dog","sound_category":"rooster","audio_type":"label","phase":"test","trial_type":"image-keyboard-response","trial_index":90,"time_elapsed":1787673,"internal_node_id":"0.0-13.0-2.9","match_key":"a","participant_id":"COGS219_2020_10","correct":true},{"rt":null,"stimulus":"Sounds/correct.wav","key_press":null,"block":1,"trial_type":"audio-keyboard-response","trial_index":91,"time_elapsed":1789688,"internal_node_id":"0.0-13.0-3.9","match_key":"a","participant_id":"COGS219_2020_10"},{"rt":null,"stimulus":"Sounds/cat_label.wav","key_press":null,"block":1,"trial_type":"audio-keyboard-response","trial_index":92,"time_elapsed":1790510,"internal_node_id":"0.0-13.0-0.10","match_key":"a","participant_id":"COGS219_2020_10"},{"rt":null,"stimulus":"<p style=\"font-size: 48px;\">+</p>","key_press":null,"block":1,"trial_type":"html-keyboard-response","trial_index":93,"time_elapsed":1791514,"internal_node_id":"0.0-13.0-1.10","match_key":"a","participant_id":"COGS219_2020_10"},{"rt":646.285000000149,"stimulus":"Images/motorcycle_cartoon.png","key_press":76,"stim_onset":1581562040571,"block":1,"match_type":"non-match","image_category":"motorcycle","sound_category":"cat","audio_type":"label","phase":"test","trial_type":"image-keyboard-response","trial_index":94,"time_elapsed":1792161,"internal_node_id":"0.0-13.0-2.10","match_key":"a","participant_id":"COGS219_2020_10","correct":true},{"rt":null,"stimulus":"Sounds/correct.wav","key_press":null,"block":1,"trial_type":"audio-keyboard-response","trial_index":95,"time_elapsed":1794169,"internal_node_id":"0.0-13.0-3.10","match_key":"a","participant_id":"COGS219_2020_10"},{"rt":null,"stimulus":"Sounds/whistle_sound.wav","key_press":null,"block":1,"trial_type":"audio-keyboard-response","trial_index":96,"time_elapsed":1794850,"internal_node_id":"0.0-13.0-0.11","match_key":"a","participant_id":"COGS219_2020_10"},{"rt":null,"stimulus":"<p style=\"font-size: 48px;\">+</p>","key_press":null,"block":1,"trial_type":"html-keyboard-response","trial_index":97,"time_elapsed":1795847,"internal_node_id":"0.0-13.0-1.11","match_key":"a","participant_id":"COGS219_2020_10"},{"rt":2424.8700000001118,"stimulus":"Images/whistle_3.png","key_press":65,"stim_onset":1581562044904,"block":1,"match_type":"match","image_category":"whistle","sound_category":"whistle","audio_type":"sound","phase":"test","trial_type":"image-keyboard-response","trial_index":98,"time_elapsed":1798273,"internal_node_id":"0.0-13.0-2.11","match_key":"a","participant_id":"COGS219_2020_10","correct":true},{"rt":null,"stimulus":"Sounds/correct.wav","key_press":null,"block":1,"trial_type":"audio-keyboard-response","trial_index":99,"time_elapsed":1800286,"internal_node_id":"0.0-13.0-3.11","match_key":"a","participant_id":"COGS219_2020_10"},{"rt":null,"stimulus":"Sounds/cat_label.wav","key_press":null,"block":1,"trial_type":"audio-keyboard-response","trial_index":100,"time_elapsed":1801090,"internal_node_id":"0.0-13.0-0.12","match_key":"a","participant_id":"COGS219_2020_10"},{"rt":null,"stimulus":"<p style=\"font-size: 48px;\">+</p>","key_press":null,"block":1,"trial_type":"html-keyboard-response","trial_index":101,"time_elapsed":1802081,"internal_node_id":"0.0-13.0-1.12","match_key":"a","participant_id":"COGS219_2020_10"},{"rt":727.6549999997951,"stimulus":"Images/cow_2.png","key_press":76,"stim_onset":1581562051138,"block":1,"match_type":"non-match","image_category":"cow","sound_category":"cat","audio_type":"label","phase":"test","trial_type":"image-keyboard-response","trial_index":102,"time_elapsed":1802809,"internal_node_id":"0.0-13.0-2.12","match_key":"a","participant_id":"COGS219_2020_10","correct":true},{"rt":null,"stimulus":"Sounds/correct.wav","key_press":null,"block":1,"trial_type":"audio-keyboard-response","trial_index":103,"time_elapsed":1804822,"internal_node_id":"0.0-13.0-3.12","match_key":"a","participant_id":"COGS219_2020_10"},{"rt":null,"stimulus":"Sounds/cow_label.wav","key_press":null,"block":1,"trial_type":"audio-keyboard-response","trial_index":104,"time_elapsed":1805850,"internal_node_id":"0.0-13.0-0.13","match_key":"a","participant_id":"COGS219_2020_10"},{"rt":null,"stimulus":"<p style=\"font-size: 48px;\">+</p>","key_press":null,"block":1,"trial_type":"html-keyboard-response","trial_index":105,"time_elapsed":1806847,"internal_node_id":"0.0-13.0-1.13","match_key":"a","participant_id":"COGS219_2020_10"},{"rt":873.9300000001676,"stimulus":"Images/rooster_orig.png","key_press":65,"stim_onset":1581562055905,"block":1,"match_type":"non-match","image_category":"rooster","sound_category":"cow","audio_type":"label","phase":"test","trial_type":"image-keyboard-response","trial_index":106,"time_elapsed":1807722,"internal_node_id":"0.0-13.0-2.13","match_key":"a","participant_id":"COGS219_2020_10","correct":false},{"rt":null,"stimulus":"Sounds/incorrect.wav","key_press":null,"block":1,"trial_type":"audio-keyboard-response","trial_index":107,"time_elapsed":1809734,"internal_node_id":"0.0-13.0-3.13","match_key":"a","participant_id":"COGS219_2020_10"},{"rt":null,"stimulus":"Sounds/cow_sound.wav","key_press":null,"block":1,"trial_type":"audio-keyboard-response","trial_index":108,"time_elapsed":1810749,"internal_node_id":"0.0-13.0-0.14","match_key":"a","participant_id":"COGS219_2020_10"},{"rt":null,"stimulus":"<p style=\"font-size: 48px;\">+</p>","key_press":null,"block":1,"trial_type":"html-keyboard-response","trial_index":109,"time_elapsed":1811747,"internal_node_id":"0.0-13.0-1.14","match_key":"a","participant_id":"COGS219_2020_10"},{"rt":1020.7099999999627,"stimulus":"Images/cat_orig.png","key_press":76,"stim_onset":1581562060804,"block":1,"match_type":"non-match","image_category":"cat","sound_category":"cow","audio_type":"sound","phase":"test","trial_type":"image-keyboard-response","trial_index":110,"time_elapsed":1812769,"internal_node_id":"0.0-13.0-2.14","match_key":"a","participant_id":"COGS219_2020_10","correct":true},{"rt":null,"stimulus":"Sounds/correct.wav","key_press":null,"block":1,"trial_type":"audio-keyboard-response","trial_index":111,"time_elapsed":1814773,"internal_node_id":"0.0-13.0-3.14","match_key":"a","participant_id":"COGS219_2020_10"},{"rt":null,"stimulus":"Sounds/dog_label.wav","key_press":null,"block":1,"trial_type":"audio-keyboard-response","trial_index":112,"time_elapsed":1815429,"internal_node_id":"0.0-13.0-0.15","match_key":"a","participant_id":"COGS219_2020_10"},{"rt":null,"stimulus":"<p style=\"font-size: 48px;\">+</p>","key_press":null,"block":1,"trial_type":"html-keyboard-response","trial_index":113,"time_elapsed":1816464,"internal_node_id":"0.0-13.0-1.15","match_key":"a","participant_id":"COGS219_2020_10"},{"rt":704.0799999998417,"stimulus":"Images/dog_1.png","key_press":65,"stim_onset":1581562065521,"block":1,"match_type":"match","image_category":"dog","sound_category":"dog","audio_type":"label","phase":"test","trial_type":"image-keyboard-response","trial_index":114,"time_elapsed":1817169,"internal_node_id":"0.0-13.0-2.15","match_key":"a","participant_id":"COGS219_2020_10","correct":true},{"rt":null,"stimulus":"Sounds/correct.wav","key_press":null,"block":1,"trial_type":"audio-keyboard-response","trial_index":115,"time_elapsed":1819185,"internal_node_id":"0.0-13.0-3.15","match_key":"a","participant_id":"COGS219_2020_10"},{"rt":null,"stimulus":"Sounds/rooster_label.wav","key_press":null,"block":1,"trial_type":"audio-keyboard-response","trial_index":116,"time_elapsed":1819889,"internal_node_id":"0.0-13.0-0.16","match_key":"a","participant_id":"COGS219_2020_10"},{"rt":null,"stimulus":"<p style=\"font-size: 48px;\">+</p>","key_press":null,"block":1,"trial_type":"html-keyboard-response","trial_index":117,"time_elapsed":1820881,"internal_node_id":"0.0-13.0-1.16","match_key":"a","participant_id":"COGS219_2020_10"},{"rt":919.4200000001583,"stimulus":"Images/rooster_1.png","key_press":65,"stim_onset":1581562069938,"block":1,"match_type":"match","image_category":"rooster","sound_category":"rooster","audio_type":"label","phase":"test","trial_type":"image-keyboard-response","trial_index":118,"time_elapsed":1821801,"internal_node_id":"0.0-13.0-2.16","match_key":"a","participant_id":"COGS219_2020_10","correct":true},{"rt":null,"stimulus":"Sounds/correct.wav","key_press":null,"block":1,"trial_type":"audio-keyboard-response","trial_index":119,"time_elapsed":1823818,"internal_node_id":"0.0-13.0-3.16","match_key":"a","participant_id":"COGS219_2020_10"},{"rt":null,"stimulus":"Sounds/frog_sound.wav","key_press":null,"block":1,"trial_type":"audio-keyboard-response","trial_index":120,"time_elapsed":1824729,"internal_node_id":"0.0-13.0-0.17","match_key":"a","participant_id":"COGS219_2020_10"},{"rt":null,"stimulus":"<p style=\"font-size: 48px;\">+</p>","key_press":null,"block":1,"trial_type":"html-keyboard-response","trial_index":121,"time_elapsed":1825747,"internal_node_id":"0.0-13.0-1.17","match_key":"a","participant_id":"COGS219_2020_10"},{"rt":636.5,"stimulus":"Images/frog_2.png","key_press":65,"stim_onset":1581562074805,"block":1,"match_type":"match","image_category":"frog","sound_category":"frog","audio_type":"sound","phase":"test","trial_type":"image-keyboard-response","trial_index":122,"time_elapsed":1826385,"internal_node_id":"0.0-13.0-2.17","match_key":"a","participant_id":"COGS219_2020_10","correct":true},{"rt":null,"stimulus":"Sounds/correct.wav","key_press":null,"block":1,"trial_type":"audio-keyboard-response","trial_index":123,"time_elapsed":1828402,"internal_node_id":"0.0-13.0-3.17","match_key":"a","participant_id":"COGS219_2020_10"},{"rt":null,"stimulus":"Sounds/motorcycle_sound.wav","key_press":null,"block":1,"trial_type":"audio-keyboard-response","trial_index":124,"time_elapsed":1829529,"internal_node_id":"0.0-13.0-0.18","match_key":"a","participant_id":"COGS219_2020_10"},{"rt":null,"stimulus":"<p style=\"font-size: 48px;\">+</p>","key_press":null,"block":1,"trial_type":"html-keyboard-response","trial_index":125,"time_elapsed":1830547,"internal_node_id":"0.0-13.0-1.18","match_key":"a","participant_id":"COGS219_2020_10"},{"rt":1404.719999999972,"stimulus":"Images/train_1.png","key_press":76,"stim_onset":1581562079605,"block":1,"match_type":"non-match","image_category":"train","sound_category":"motorcycle","audio_type":"sound","phase":"test","trial_type":"image-keyboard-response","trial_index":126,"time_elapsed":1831953,"internal_node_id":"0.0-13.0-2.18","match_key":"a","participant_id":"COGS219_2020_10","correct":true},{"rt":null,"stimulus":"Sounds/correct.wav","key_press":null,"block":1,"trial_type":"audio-keyboard-response","trial_index":127,"time_elapsed":1833971,"internal_node_id":"0.0-13.0-3.18","match_key":"a","participant_id":"COGS219_2020_10"},{"rt":null,"stimulus":"Sounds/gun_sound.wav","key_press":null,"block":1,"trial_type":"audio-keyboard-response","trial_index":128,"time_elapsed":1834549,"internal_node_id":"0.0-13.0-0.19","match_key":"a","participant_id":"COGS219_2020_10"},{"rt":null,"stimulus":"<p style=\"font-size: 48px;\">+</p>","key_press":null,"block":1,"trial_type":"html-keyboard-response","trial_index":129,"time_elapsed":1835548,"internal_node_id":"0.0-13.0-1.19","match_key":"a","participant_id":"COGS219_2020_10"},{"rt":660.4249999998137,"stimulus":"Images/whistle_1.png","key_press":76,"stim_onset":1581562084605,"block":1,"match_type":"non-match","image_category":"whistle","sound_category":"gun","audio_type":"sound","phase":"test","trial_type":"image-keyboard-response","trial_index":130,"time_elapsed":1836209,"internal_node_id":"0.0-13.0-2.19","match_key":"a","participant_id":"COGS219_2020_10","correct":true},{"rt":null,"stimulus":"Sounds/correct.wav","key_press":null,"block":1,"trial_type":"audio-keyboard-response","trial_index":131,"time_elapsed":1838217,"internal_node_id":"0.0-13.0-3.19","match_key":"a","participant_id":"COGS219_2020_10"},{"rt":null,"stimulus":"Sounds/whistle_label.wav","key_press":null,"block":1,"trial_type":"audio-keyboard-response","trial_index":132,"time_elapsed":1838909,"internal_node_id":"0.0-13.0-0.20","match_key":"a","participant_id":"COGS219_2020_10"},{"rt":null,"stimulus":"<p style=\"font-size: 48px;\">+</p>","key_press":null,"block":1,"trial_type":"html-keyboard-response","trial_index":133,"time_elapsed":1839898,"internal_node_id":"0.0-13.0-1.20","match_key":"a","participant_id":"COGS219_2020_10"},{"rt":598.2899999998044,"stimulus":"Images/whistle_1.png","key_press":65,"stim_onset":1581562088955,"block":1,"match_type":"match","image_category":"whistle","sound_category":"whistle","audio_type":"label","phase":"test","trial_type":"image-keyboard-response","trial_index":134,"time_elapsed":1840497,"internal_node_id":"0.0-13.0-2.20","match_key":"a","participant_id":"COGS219_2020_10","correct":true},{"rt":null,"stimulus":"Sounds/correct.wav","key_press":null,"block":1,"trial_type":"audio-keyboard-response","trial_index":135,"time_elapsed":1842503,"internal_node_id":"0.0-13.0-3.20","match_key":"a","participant_id":"COGS219_2020_10"},{"rt":null,"stimulus":"Sounds/cat_label.wav","key_press":null,"block":1,"trial_type":"audio-keyboard-response","trial_index":136,"time_elapsed":1843349,"internal_node_id":"0.0-13.0-0.21","match_key":"a","participant_id":"COGS219_2020_10"},{"rt":null,"stimulus":"<p style=\"font-size: 48px;\">+</p>","key_press":null,"block":1,"trial_type":"html-keyboard-response","trial_index":137,"time_elapsed":1844348,"internal_node_id":"0.0-13.0-1.21","match_key":"a","participant_id":"COGS219_2020_10"},{"rt":780.6550000000279,"stimulus":"Images/dog_2.png","key_press":76,"stim_onset":1581562093405,"block":1,"match_type":"non-match","image_category":"dog","sound_category":"cat","audio_type":"label","phase":"test","trial_type":"image-keyboard-response","trial_index":138,"time_elapsed":1845129,"internal_node_id":"0.0-13.0-2.21","match_key":"a","participant_id":"COGS219_2020_10","correct":true},{"rt":null,"stimulus":"Sounds/correct.wav","key_press":null,"block":1,"trial_type":"audio-keyboard-response","trial_index":139,"time_elapsed":1847139,"internal_node_id":"0.0-13.0-3.21","match_key":"a","participant_id":"COGS219_2020_10"},{"rt":null,"stimulus":"Sounds/frog_label.wav","key_press":null,"block":1,"trial_type":"audio-keyboard-response","trial_index":140,"time_elapsed":1848029,"internal_node_id":"0.0-13.0-0.22","match_key":"a","participant_id":"COGS219_2020_10"},{"rt":null,"stimulus":"<p style=\"font-size: 48px;\">+</p>","key_press":null,"block":1,"trial_type":"html-keyboard-response","trial_index":141,"time_elapsed":1849048,"internal_node_id":"0.0-13.0-1.22","match_key":"a","participant_id":"COGS219_2020_10"},{"rt":3232.3000000000466,"stimulus":"Images/frog_3.png","key_press":65,"stim_onset":1581562098105,"block":1,"match_type":"match","image_category":"frog","sound_category":"frog","audio_type":"label","phase":"test","trial_type":"image-keyboard-response","trial_index":142,"time_elapsed":1852281,"internal_node_id":"0.0-13.0-2.22","match_key":"a","participant_id":"COGS219_2020_10","correct":true},{"rt":null,"stimulus":"Sounds/correct.wav","key_press":null,"block":1,"trial_type":"audio-keyboard-response","trial_index":143,"time_elapsed":1854288,"internal_node_id":"0.0-13.0-3.22","match_key":"a","participant_id":"COGS219_2020_10"},{"rt":null,"stimulus":"Sounds/train_sound.wav","key_press":null,"block":1,"trial_type":"audio-keyboard-response","trial_index":144,"time_elapsed":1855589,"internal_node_id":"0.0-13.0-0.23","match_key":"a","participant_id":"COGS219_2020_10"},{"rt":null,"stimulus":"<p style=\"font-size: 48px;\">+</p>","key_press":null,"block":1,"trial_type":"html-keyboard-response","trial_index":145,"time_elapsed":1856581,"internal_node_id":"0.0-13.0-1.23","match_key":"a","participant_id":"COGS219_2020_10"},{"rt":699.1350000000093,"stimulus":"Images/dog_orig.png","key_press":76,"stim_onset":1581562105638,"block":1,"match_type":"non-match","image_category":"dog","sound_category":"train","audio_type":"sound","phase":"test","trial_type":"image-keyboard-response","trial_index":146,"time_elapsed":1857281,"internal_node_id":"0.0-13.0-2.23","match_key":"a","participant_id":"COGS219_2020_10","correct":true},{"rt":null,"stimulus":"Sounds/correct.wav","key_press":null,"block":1,"trial_type":"audio-keyboard-response","trial_index":147,"time_elapsed":1859286,"internal_node_id":"0.0-13.0-3.23","match_key":"a","participant_id":"COGS219_2020_10"},{"rt":null,"stimulus":"Sounds/cow_label.wav","key_press":null,"block":1,"trial_type":"audio-keyboard-response","trial_index":148,"time_elapsed":1860309,"internal_node_id":"0.0-13.0-0.24","match_key":"a","participant_id":"COGS219_2020_10"},{"rt":null,"stimulus":"<p style=\"font-size: 48px;\">+</p>","key_press":null,"block":1,"trial_type":"html-keyboard-response","trial_index":149,"time_elapsed":1861315,"internal_node_id":"0.0-13.0-1.24","match_key":"a","participant_id":"COGS219_2020_10"},{"rt":589.4499999999534,"stimulus":"Images/cow_1.png","key_press":65,"stim_onset":1581562110372,"block":1,"match_type":"match","image_category":"cow","sound_category":"cow","audio_type":"label","phase":"test","trial_type":"image-keyboard-response","trial_index":150,"time_elapsed":1861905,"internal_node_id":"0.0-13.0-2.24","match_key":"a","participant_id":"COGS219_2020_10","correct":true},{"rt":null,"stimulus":"Sounds/correct.wav","key_press":null,"block":1,"trial_type":"audio-keyboard-response","trial_index":151,"time_elapsed":1863919,"internal_node_id":"0.0-13.0-3.24","match_key":"a","participant_id":"COGS219_2020_10"},{"rt":null,"stimulus":"Sounds/car_label.wav","key_press":null,"block":1,"trial_type":"audio-keyboard-response","trial_index":152,"time_elapsed":1864989,"internal_node_id":"0.0-13.0-0.25","match_key":"a","participant_id":"COGS219_2020_10"},{"rt":null,"stimulus":"<p style=\"font-size: 48px;\">+</p>","key_press":null,"block":1,"trial_type":"html-keyboard-response","trial_index":153,"time_elapsed":1865981,"internal_node_id":"0.0-13.0-1.25","match_key":"a","participant_id":"COGS219_2020_10"},{"rt":594.9050000002608,"stimulus":"Images/frog_2.png","key_press":76,"stim_onset":1581562115038,"block":1,"match_type":"non-match","image_category":"frog","sound_category":"car","audio_type":"label","phase":"test","trial_type":"image-keyboard-response","trial_index":154,"time_elapsed":1866577,"internal_node_id":"0.0-13.0-2.25","match_key":"a","participant_id":"COGS219_2020_10","correct":true},{"rt":null,"stimulus":"Sounds/correct.wav","key_press":null,"block":1,"trial_type":"audio-keyboard-response","trial_index":155,"time_elapsed":1868586,"internal_node_id":"0.0-13.0-3.25","match_key":"a","participant_id":"COGS219_2020_10"},{"rt":null,"stimulus":"Sounds/train_label.wav","key_press":null,"block":1,"trial_type":"audio-keyboard-response","trial_index":156,"time_elapsed":1869869,"internal_node_id":"0.0-13.0-0.26","match_key":"a","participant_id":"COGS219_2020_10"},{"rt":null,"stimulus":"<p style=\"font-size: 48px;\">+</p>","key_press":null,"block":1,"trial_type":"html-keyboard-response","trial_index":157,"time_elapsed":1870864,"internal_node_id":"0.0-13.0-1.26","match_key":"a","participant_id":"COGS219_2020_10"},{"rt":718.4700000002049,"stimulus":"Images/train_3.png","key_press":65,"stim_onset":1581562119921,"block":1,"match_type":"match","image_category":"train","sound_category":"train","audio_type":"label","phase":"test","trial_type":"image-keyboard-response","trial_index":158,"time_elapsed":1871585,"internal_node_id":"0.0-13.0-2.26","match_key":"a","participant_id":"COGS219_2020_10","correct":true},{"rt":null,"stimulus":"Sounds/correct.wav","key_press":null,"block":1,"trial_type":"audio-keyboard-response","trial_index":159,"time_elapsed":1873601,"internal_node_id":"0.0-13.0-3.26","match_key":"a","participant_id":"COGS219_2020_10"},{"rt":null,"stimulus":"Sounds/whistle_sound.wav","key_press":null,"block":1,"trial_type":"audio-keyboard-response","trial_index":160,"time_elapsed":1874309,"internal_node_id":"0.0-13.0-0.27","match_key":"a","participant_id":"COGS219_2020_10"},{"rt":null,"stimulus":"<p style=\"font-size: 48px;\">+</p>","key_press":null,"block":1,"trial_type":"html-keyboard-response","trial_index":161,"time_elapsed":1875298,"internal_node_id":"0.0-13.0-1.27","match_key":"a","participant_id":"COGS219_2020_10"},{"rt":773.9549999998417,"stimulus":"Images/cat_3.png","key_press":76,"stim_onset":1581562124355,"block":1,"match_type":"non-match","image_category":"cat","sound_category":"whistle","audio_type":"sound","phase":"test","trial_type":"image-keyboard-response","trial_index":162,"time_elapsed":1876073,"internal_node_id":"0.0-13.0-2.27","match_key":"a","participant_id":"COGS219_2020_10","correct":true},{"rt":null,"stimulus":"Sounds/correct.wav","key_press":null,"block":1,"trial_type":"audio-keyboard-response","trial_index":163,"time_elapsed":1878085,"internal_node_id":"0.0-13.0-3.27","match_key":"a","participant_id":"COGS219_2020_10"},{"rt":null,"stimulus":"Sounds/rooster_sound.wav","key_press":null,"block":1,"trial_type":"audio-keyboard-response","trial_index":164,"time_elapsed":1878789,"internal_node_id":"0.0-13.0-0.28","match_key":"a","participant_id":"COGS219_2020_10"},{"rt":null,"stimulus":"<p style=\"font-size: 48px;\">+</p>","key_press":null,"block":1,"trial_type":"html-keyboard-response","trial_index":165,"time_elapsed":1879781,"internal_node_id":"0.0-13.0-1.28","match_key":"a","participant_id":"COGS219_2020_10"},{"rt":1154.7250000000931,"stimulus":"Images/rooster_3.png","key_press":65,"stim_onset":1581562128838,"block":1,"match_type":"match","image_category":"rooster","sound_category":"rooster","audio_type":"sound","phase":"test","trial_type":"image-keyboard-response","trial_index":166,"time_elapsed":1880937,"internal_node_id":"0.0-13.0-2.28","match_key":"a","participant_id":"COGS219_2020_10","correct":true},{"rt":null,"stimulus":"Sounds/correct.wav","key_press":null,"block":1,"trial_type":"audio-keyboard-response","trial_index":167,"time_elapsed":1882941,"internal_node_id":"0.0-13.0-3.28","match_key":"a","participant_id":"COGS219_2020_10"},{"rt":null,"stimulus":"Sounds/motorcycle_sound.wav","key_press":null,"block":1,"trial_type":"audio-keyboard-response","trial_index":168,"time_elapsed":1884069,"internal_node_id":"0.0-13.0-0.29","match_key":"a","participant_id":"COGS219_2020_10"},{"rt":null,"stimulus":"<p style=\"font-size: 48px;\">+</p>","key_press":null,"block":1,"trial_type":"html-keyboard-response","trial_index":169,"time_elapsed":1885064,"internal_node_id":"0.0-13.0-1.29","match_key":"a","participant_id":"COGS219_2020_10"},{"rt":871.5600000000559,"stimulus":"Images/motorcycle_2.png","key_press":76,"stim_onset":1581562134121,"block":1,"match_type":"match","image_category":"motorcycle","sound_category":"motorcycle","audio_type":"sound","phase":"test","trial_type":"image-keyboard-response","trial_index":170,"time_elapsed":1885937,"internal_node_id":"0.0-13.0-2.29","match_key":"a","participant_id":"COGS219_2020_10","correct":false},{"rt":null,"stimulus":"Sounds/incorrect.wav","key_press":null,"block":1,"trial_type":"audio-keyboard-response","trial_index":171,"time_elapsed":1887952,"internal_node_id":"0.0-13.0-3.29","match_key":"a","participant_id":"COGS219_2020_10"},{"rt":null,"stimulus":"Sounds/cat_label.wav","key_press":null,"block":1,"trial_type":"audio-keyboard-response","trial_index":172,"time_elapsed":1888789,"internal_node_id":"0.0-13.0-0.30","match_key":"a","participant_id":"COGS219_2020_10"},{"rt":null,"stimulus":"<p style=\"font-size: 48px;\">+</p>","key_press":null,"block":1,"trial_type":"html-keyboard-response","trial_index":173,"time_elapsed":1889781,"internal_node_id":"0.0-13.0-1.30","match_key":"a","participant_id":"COGS219_2020_10"},{"rt":754.6999999999534,"stimulus":"Images/cat_1.png","key_press":65,"stim_onset":1581562138838,"block":1,"match_type":"match","image_category":"cat","sound_category":"cat","audio_type":"label","phase":"test","trial_type":"image-keyboard-response","trial_index":174,"time_elapsed":1890537,"internal_node_id":"0.0-13.0-2.30","match_key":"a","participant_id":"COGS219_2020_10","correct":true},{"rt":null,"stimulus":"Sounds/correct.wav","key_press":null,"block":1,"trial_type":"audio-keyboard-response","trial_index":175,"time_elapsed":1892554,"internal_node_id":"0.0-13.0-3.30","match_key":"a","participant_id":"COGS219_2020_10"},{"rt":null,"stimulus":"Sounds/whistle_label.wav","key_press":null,"block":1,"trial_type":"audio-keyboard-response","trial_index":176,"time_elapsed":1893249,"internal_node_id":"0.0-13.0-0.31","match_key":"a","participant_id":"COGS219_2020_10"},{"rt":null,"stimulus":"<p style=\"font-size: 48px;\">+</p>","key_press":null,"block":1,"trial_type":"html-keyboard-response","trial_index":177,"time_elapsed":1894248,"internal_node_id":"0.0-13.0-1.31","match_key":"a","participant_id":"COGS219_2020_10"},{"rt":1023.8449999999721,"stimulus":"Images/train_cartoon.png","key_press":76,"stim_onset":1581562143305,"block":1,"match_type":"non-match","image_category":"train","sound_category":"whistle","audio_type":"label","phase":"test","trial_type":"image-keyboard-response","trial_index":178,"time_elapsed":1895273,"internal_node_id":"0.0-13.0-2.31","match_key":"a","participant_id":"COGS219_2020_10","correct":true},{"rt":null,"stimulus":"Sounds/correct.wav","key_press":null,"block":1,"trial_type":"audio-keyboard-response","trial_index":179,"time_elapsed":1897284,"internal_node_id":"0.0-13.0-3.31","match_key":"a","participant_id":"COGS219_2020_10"},{"rt":null,"stimulus":"Sounds/rooster_label.wav","key_press":null,"block":1,"trial_type":"audio-keyboard-response","trial_index":180,"time_elapsed":1897989,"internal_node_id":"0.0-13.0-0.32","match_key":"a","participant_id":"COGS219_2020_10"},{"rt":null,"stimulus":"<p style=\"font-size: 48px;\">+</p>","key_press":null,"block":1,"trial_type":"html-keyboard-response","trial_index":181,"time_elapsed":1898981,"internal_node_id":"0.0-13.0-1.32","match_key":"a","participant_id":"COGS219_2020_10"},{"rt":834.8349999999627,"stimulus":"Images/train_orig.png","key_press":76,"stim_onset":1581562148038,"block":1,"match_type":"non-match","image_category":"train","sound_category":"rooster","audio_type":"label","phase":"test","trial_type":"image-keyboard-response","trial_index":182,"time_elapsed":1899817,"internal_node_id":"0.0-13.0-2.32","match_key":"a","participant_id":"COGS219_2020_10","correct":true},{"rt":null,"stimulus":"Sounds/correct.wav","key_press":null,"block":1,"trial_type":"audio-keyboard-response","trial_index":183,"time_elapsed":1901820,"internal_node_id":"0.0-13.0-3.32","match_key":"a","participant_id":"COGS219_2020_10"},{"rt":null,"stimulus":"Sounds/frog_label.wav","key_press":null,"block":1,"trial_type":"audio-keyboard-response","trial_index":184,"time_elapsed":1902729,"internal_node_id":"0.0-13.0-0.33","match_key":"a","participant_id":"COGS219_2020_10"},{"rt":null,"stimulus":"<p style=\"font-size: 48px;\">+</p>","key_press":null,"block":1,"trial_type":"html-keyboard-response","trial_index":185,"time_elapsed":1903731,"internal_node_id":"0.0-13.0-1.33","match_key":"a","participant_id":"COGS219_2020_10"},{"rt":732.4350000002887,"stimulus":"Images/cow_orig.png","key_press":76,"stim_onset":1581562152789,"block":1,"match_type":"non-match","image_category":"cow","sound_category":"frog","audio_type":"label","phase":"test","trial_type":"image-keyboard-response","trial_index":186,"time_elapsed":1904465,"internal_node_id":"0.0-13.0-2.33","match_key":"a","participant_id":"COGS219_2020_10","correct":true},{"rt":null,"stimulus":"Sounds/correct.wav","key_press":null,"block":1,"trial_type":"audio-keyboard-response","trial_index":187,"time_elapsed":1906470,"internal_node_id":"0.0-13.0-3.33","match_key":"a","participant_id":"COGS219_2020_10"},{"rt":null,"stimulus":"Sounds/rooster_sound.wav","key_press":null,"block":1,"trial_type":"audio-keyboard-response","trial_index":188,"time_elapsed":1907169,"internal_node_id":"0.0-13.0-0.34","match_key":"a","participant_id":"COGS219_2020_10"},{"rt":null,"stimulus":"<p style=\"font-size: 48px;\">+</p>","key_press":null,"block":1,"trial_type":"html-keyboard-response","trial_index":189,"time_elapsed":1908165,"internal_node_id":"0.0-13.0-1.34","match_key":"a","participant_id":"COGS219_2020_10"},{"rt":4483.415000000037,"stimulus":"Images/rooster_2.png","key_press":65,"stim_onset":1581562157222,"block":1,"match_type":"match","image_category":"rooster","sound_category":"rooster","audio_type":"sound","phase":"test","trial_type":"image-keyboard-response","trial_index":190,"time_elapsed":1912649,"internal_node_id":"0.0-13.0-2.34","match_key":"a","participant_id":"COGS219_2020_10","correct":true},{"rt":null,"stimulus":"Sounds/correct.wav","key_press":null,"block":1,"trial_type":"audio-keyboard-response","trial_index":191,"time_elapsed":1914657,"internal_node_id":"0.0-13.0-3.34","match_key":"a","participant_id":"COGS219_2020_10"},{"rt":null,"stimulus":"Sounds/train_sound.wav","key_press":null,"block":1,"trial_type":"audio-keyboard-response","trial_index":192,"time_elapsed":1915949,"internal_node_id":"0.0-13.0-0.35","match_key":"a","participant_id":"COGS219_2020_10"},{"rt":null,"stimulus":"<p style=\"font-size: 48px;\">+</p>","key_press":null,"block":1,"trial_type":"html-keyboard-response","trial_index":193,"time_elapsed":1916948,"internal_node_id":"0.0-13.0-1.35","match_key":"a","participant_id":"COGS219_2020_10"},{"rt":835.4749999998603,"stimulus":"Images/frog_3.png","key_press":76,"stim_onset":1581562166005,"block":1,"match_type":"non-match","image_category":"frog","sound_category":"train","audio_type":"sound","phase":"test","trial_type":"image-keyboard-response","trial_index":194,"time_elapsed":1917785,"internal_node_id":"0.0-13.0-2.35","match_key":"a","participant_id":"COGS219_2020_10","correct":true},{"rt":null,"stimulus":"Sounds/correct.wav","key_press":null,"block":1,"trial_type":"audio-keyboard-response","trial_index":195,"time_elapsed":1919787,"internal_node_id":"0.0-13.0-3.35","match_key":"a","participant_id":"COGS219_2020_10"},{"rt":null,"stimulus":"Sounds/train_label.wav","key_press":null,"block":1,"trial_type":"audio-keyboard-response","trial_index":196,"time_elapsed":1921069,"internal_node_id":"0.0-13.0-0.36","match_key":"a","participant_id":"COGS219_2020_10"},{"rt":null,"stimulus":"<p style=\"font-size: 48px;\">+</p>","key_press":null,"block":1,"trial_type":"html-keyboard-response","trial_index":197,"time_elapsed":1922065,"internal_node_id":"0.0-13.0-1.36","match_key":"a","participant_id":"COGS219_2020_10"},{"rt":983.0200000002515,"stimulus":"Images/train_1.png","key_press":65,"stim_onset":1581562171122,"block":1,"match_type":"match","image_category":"train","sound_category":"train","audio_type":"label","phase":"test","trial_type":"image-keyboard-response","trial_index":198,"time_elapsed":1923049,"internal_node_id":"0.0-13.0-2.36","match_key":"a","participant_id":"COGS219_2020_10","correct":true},{"rt":null,"stimulus":"Sounds/correct.wav","key_press":null,"block":1,"trial_type":"audio-keyboard-response","trial_index":199,"time_elapsed":1925053,"internal_node_id":"0.0-13.0-3.36","match_key":"a","participant_id":"COGS219_2020_10"},{"rt":null,"stimulus":"Sounds/cat_label.wav","key_press":null,"block":1,"trial_type":"audio-keyboard-response","trial_index":200,"time_elapsed":1925889,"internal_node_id":"0.0-13.0-0.37","match_key":"a","participant_id":"COGS219_2020_10"},{"rt":null,"stimulus":"<p style=\"font-size: 48px;\">+</p>","key_press":null,"block":1,"trial_type":"html-keyboard-response","trial_index":201,"time_elapsed":1926881,"internal_node_id":"0.0-13.0-1.37","match_key":"a","participant_id":"COGS219_2020_10"},{"rt":542.2800000000279,"stimulus":"Images/frog_1.png","key_press":76,"stim_onset":1581562175939,"block":1,"match_type":"non-match","image_category":"frog","sound_category":"cat","audio_type":"label","phase":"test","trial_type":"image-keyboard-response","trial_index":202,"time_elapsed":1927425,"internal_node_id":"0.0-13.0-2.37","match_key":"a","participant_id":"COGS219_2020_10","correct":true},{"rt":null,"stimulus":"Sounds/correct.wav","key_press":null,"block":1,"trial_type":"audio-keyboard-response","trial_index":203,"time_elapsed":1929429,"internal_node_id":"0.0-13.0-3.37","match_key":"a","participant_id":"COGS219_2020_10"},{"rt":null,"stimulus":"Sounds/frog_label.wav","key_press":null,"block":1,"trial_type":"audio-keyboard-response","trial_index":204,"time_elapsed":1930329,"internal_node_id":"0.0-13.0-0.38","match_key":"a","participant_id":"COGS219_2020_10"},{"rt":null,"stimulus":"<p style=\"font-size: 48px;\">+</p>","key_press":null,"block":1,"trial_type":"html-keyboard-response","trial_index":205,"time_elapsed":1931332,"internal_node_id":"0.0-13.0-1.38","match_key":"a","participant_id":"COGS219_2020_10"},{"rt":812.1350000000093,"stimulus":"Images/car_2.png","key_press":76,"stim_onset":1581562180389,"block":1,"match_type":"non-match","image_category":"car","sound_category":"frog","audio_type":"label","phase":"test","trial_type":"image-keyboard-response","trial_index":206,"time_elapsed":1932145,"internal_node_id":"0.0-13.0-2.38","match_key":"a","participant_id":"COGS219_2020_10","correct":true},{"rt":null,"stimulus":"Sounds/correct.wav","key_press":null,"block":1,"trial_type":"audio-keyboard-response","trial_index":207,"time_elapsed":1934154,"internal_node_id":"0.0-13.0-3.38","match_key":"a","participant_id":"COGS219_2020_10"},{"rt":null,"stimulus":"Sounds/cow_sound.wav","key_press":null,"block":1,"trial_type":"audio-keyboard-response","trial_index":208,"time_elapsed":1935169,"internal_node_id":"0.0-13.0-0.39","match_key":"a","participant_id":"COGS219_2020_10"},{"rt":null,"stimulus":"<p style=\"font-size: 48px;\">+</p>","key_press":null,"block":1,"trial_type":"html-keyboard-response","trial_index":209,"time_elapsed":1936165,"internal_node_id":"0.0-13.0-1.39","match_key":"a","participant_id":"COGS219_2020_10"},{"rt":2315.20999999973,"stimulus":"Images/cow_3.png","key_press":76,"stim_onset":1581562185222,"block":1,"match_type":"match","image_category":"cow","sound_category":"cow","audio_type":"sound","phase":"test","trial_type":"image-keyboard-response","trial_index":210,"time_elapsed":1938481,"internal_node_id":"0.0-13.0-2.39","match_key":"a","participant_id":"COGS219_2020_10","correct":false},{"rt":null,"stimulus":"Sounds/incorrect.wav","key_press":null,"block":1,"trial_type":"audio-keyboard-response","trial_index":211,"time_elapsed":1940493,"internal_node_id":"0.0-13.0-3.39","match_key":"a","participant_id":"COGS219_2020_10"},{"rt":null,"stimulus":"Sounds/motorcycle_sound.wav","key_press":null,"block":1,"trial_type":"audio-keyboard-response","trial_index":212,"time_elapsed":1941609,"internal_node_id":"0.0-13.0-0.40","match_key":"a","participant_id":"COGS219_2020_10"},{"rt":null,"stimulus":"<p style=\"font-size: 48px;\">+</p>","key_press":null,"block":1,"trial_type":"html-keyboard-response","trial_index":213,"time_elapsed":1942615,"internal_node_id":"0.0-13.0-1.40","match_key":"a","participant_id":"COGS219_2020_10"},{"rt":632.589999999851,"stimulus":"Images/whistle_2.png","key_press":76,"stim_onset":1581562191672,"block":1,"match_type":"non-match","image_category":"whistle","sound_category":"motorcycle","audio_type":"sound","phase":"test","trial_type":"image-keyboard-response","trial_index":214,"time_elapsed":1943249,"internal_node_id":"0.0-13.0-2.40","match_key":"a","participant_id":"COGS219_2020_10","correct":true},{"rt":null,"stimulus":"Sounds/correct.wav","key_press":null,"block":1,"trial_type":"audio-keyboard-response","trial_index":215,"time_elapsed":1945255,"internal_node_id":"0.0-13.0-3.40","match_key":"a","participant_id":"COGS219_2020_10"},{"rt":null,"stimulus":"Sounds/train_label.wav","key_press":null,"block":1,"trial_type":"audio-keyboard-response","trial_index":216,"time_elapsed":1946529,"internal_node_id":"0.0-13.0-0.41","match_key":"a","participant_id":"COGS219_2020_10"},{"rt":null,"stimulus":"<p style=\"font-size: 48px;\">+</p>","key_press":null,"block":1,"trial_type":"html-keyboard-response","trial_index":217,"time_elapsed":1947532,"internal_node_id":"0.0-13.0-1.41","match_key":"a","participant_id":"COGS219_2020_10"},{"rt":1340.255000000121,"stimulus":"Images/car_3.png","key_press":76,"stim_onset":1581562196589,"block":1,"match_type":"non-match","image_category":"car","sound_category":"train","audio_type":"label","phase":"test","trial_type":"image-keyboard-response","trial_index":218,"time_elapsed":1948873,"internal_node_id":"0.0-13.0-2.41","match_key":"a","participant_id":"COGS219_2020_10","correct":true},{"rt":null,"stimulus":"Sounds/correct.wav","key_press":null,"block":1,"trial_type":"audio-keyboard-response","trial_index":219,"time_elapsed":1950890,"internal_node_id":"0.0-13.0-3.41","match_key":"a","participant_id":"COGS219_2020_10"},{"rt":null,"stimulus":"Sounds/car_sound.wav","key_press":null,"block":1,"trial_type":"audio-keyboard-response","trial_index":220,"time_elapsed":1951969,"internal_node_id":"0.0-13.0-0.42","match_key":"a","participant_id":"COGS219_2020_10"},{"rt":null,"stimulus":"<p style=\"font-size: 48px;\">+</p>","key_press":null,"block":1,"trial_type":"html-keyboard-response","trial_index":221,"time_elapsed":1952965,"internal_node_id":"0.0-13.0-1.42","match_key":"a","participant_id":"COGS219_2020_10"},{"rt":538.5900000000838,"stimulus":"Images/car_orig.png","key_press":65,"stim_onset":1581562202022,"block":1,"match_type":"match","image_category":"car","sound_category":"car","audio_type":"sound","phase":"test","trial_type":"image-keyboard-response","trial_index":222,"time_elapsed":1953505,"internal_node_id":"0.0-13.0-2.42","match_key":"a","participant_id":"COGS219_2020_10","correct":true},{"rt":null,"stimulus":"Sounds/correct.wav","key_press":null,"block":1,"trial_type":"audio-keyboard-response","trial_index":223,"time_elapsed":1955519,"internal_node_id":"0.0-13.0-3.42","match_key":"a","participant_id":"COGS219_2020_10"},{"rt":null,"stimulus":"Sounds/car_sound.wav","key_press":null,"block":1,"trial_type":"audio-keyboard-response","trial_index":224,"time_elapsed":1956569,"internal_node_id":"0.0-13.0-0.43","match_key":"a","participant_id":"COGS219_2020_10"},{"rt":null,"stimulus":"<p style=\"font-size: 48px;\">+</p>","key_press":null,"block":1,"trial_type":"html-keyboard-response","trial_index":225,"time_elapsed":1957565,"internal_node_id":"0.0-13.0-1.43","match_key":"a","participant_id":"COGS219_2020_10"},{"rt":634.6199999998789,"stimulus":"Images/car_3.png","key_press":65,"stim_onset":1581562206622,"block":1,"match_type":"match","image_category":"car","sound_category":"car","audio_type":"sound","phase":"test","trial_type":"image-keyboard-response","trial_index":226,"time_elapsed":1958201,"internal_node_id":"0.0-13.0-2.43","match_key":"a","participant_id":"COGS219_2020_10","correct":true},{"rt":null,"stimulus":"Sounds/correct.wav","key_press":null,"block":1,"trial_type":"audio-keyboard-response","trial_index":227,"time_elapsed":1960204,"internal_node_id":"0.0-13.0-3.43","match_key":"a","participant_id":"COGS219_2020_10"},{"rt":null,"stimulus":"Sounds/whistle_sound.wav","key_press":null,"block":1,"trial_type":"audio-keyboard-response","trial_index":228,"time_elapsed":1960909,"internal_node_id":"0.0-13.0-0.44","match_key":"a","participant_id":"COGS219_2020_10"},{"rt":null,"stimulus":"<p style=\"font-size: 48px;\">+</p>","key_press":null,"block":1,"trial_type":"html-keyboard-response","trial_index":229,"time_elapsed":1961899,"internal_node_id":"0.0-13.0-1.44","match_key":"a","participant_id":"COGS219_2020_10"},{"rt":1213.355000000447,"stimulus":"Images/dog_1.png","key_press":76,"stim_onset":1581562210956,"block":1,"match_type":"non-match","image_category":"dog","sound_category":"whistle","audio_type":"sound","phase":"test","trial_type":"image-keyboard-response","trial_index":230,"time_elapsed":1963113,"internal_node_id":"0.0-13.0-2.44","match_key":"a","participant_id":"COGS219_2020_10","correct":true},{"rt":null,"stimulus":"Sounds/correct.wav","key_press":null,"block":1,"trial_type":"audio-keyboard-response","trial_index":231,"time_elapsed":1965128,"internal_node_id":"0.0-13.0-3.44","match_key":"a","participant_id":"COGS219_2020_10"},{"rt":null,"stimulus":"Sounds/car_label.wav","key_press":null,"block":1,"trial_type":"audio-keyboard-response","trial_index":232,"time_elapsed":1966209,"internal_node_id":"0.0-13.0-0.45","match_key":"a","participant_id":"COGS219_2020_10"},{"rt":null,"stimulus":"<p style=\"font-size: 48px;\">+</p>","key_press":null,"block":1,"trial_type":"html-keyboard-response","trial_index":233,"time_elapsed":1967215,"internal_node_id":"0.0-13.0-1.45","match_key":"a","participant_id":"COGS219_2020_10"},{"rt":1184.1650000000373,"stimulus":"Images/train_2.png","key_press":76,"stim_onset":1581562216272,"block":1,"match_type":"non-match","image_category":"train","sound_category":"car","audio_type":"label","phase":"test","trial_type":"image-keyboard-response","trial_index":234,"time_elapsed":1968401,"internal_node_id":"0.0-13.0-2.45","match_key":"a","participant_id":"COGS219_2020_10","correct":true},{"rt":null,"stimulus":"Sounds/correct.wav","key_press":null,"block":1,"trial_type":"audio-keyboard-response","trial_index":235,"time_elapsed":1970405,"internal_node_id":"0.0-13.0-3.45","match_key":"a","participant_id":"COGS219_2020_10"},{"rt":null,"stimulus":"Sounds/car_label.wav","key_press":null,"block":1,"trial_type":"audio-keyboard-response","trial_index":236,"time_elapsed":1971449,"internal_node_id":"0.0-13.0-0.46","match_key":"a","participant_id":"COGS219_2020_10"},{"rt":null,"stimulus":"<p style=\"font-size: 48px;\">+</p>","key_press":null,"block":1,"trial_type":"html-keyboard-response","trial_index":237,"time_elapsed":1972449,"internal_node_id":"0.0-13.0-1.46","match_key":"a","participant_id":"COGS219_2020_10"},{"rt":983.3699999998789,"stimulus":"Images/cow_1.png","key_press":76,"stim_onset":1581562221506,"block":1,"match_type":"non-match","image_category":"cow","sound_category":"car","audio_type":"label","phase":"test","trial_type":"image-keyboard-response","trial_index":238,"time_elapsed":1973433,"internal_node_id":"0.0-13.0-2.46","match_key":"a","participant_id":"COGS219_2020_10","correct":true},{"rt":null,"stimulus":"Sounds/correct.wav","key_press":null,"block":1,"trial_type":"audio-keyboard-response","trial_index":239,"time_elapsed":1975439,"internal_node_id":"0.0-13.0-3.46","match_key":"a","participant_id":"COGS219_2020_10"},{"rt":null,"stimulus":"Sounds/gun_label.wav","key_press":null,"block":1,"trial_type":"audio-keyboard-response","trial_index":240,"time_elapsed":1976029,"internal_node_id":"0.0-13.0-0.47","match_key":"a","participant_id":"COGS219_2020_10"},{"rt":null,"stimulus":"<p style=\"font-size: 48px;\">+</p>","key_press":null,"block":1,"trial_type":"html-keyboard-response","trial_index":241,"time_elapsed":1977032,"internal_node_id":"0.0-13.0-1.47","match_key":"a","participant_id":"COGS219_2020_10"},{"rt":791.6849999995902,"stimulus":"Images/gun_3.png","key_press":65,"stim_onset":1581562226089,"block":1,"match_type":"match","image_category":"gun","sound_category":"gun","audio_type":"label","phase":"test","trial_type":"image-keyboard-response","trial_index":242,"time_elapsed":1977825,"internal_node_id":"0.0-13.0-2.47","match_key":"a","participant_id":"COGS219_2020_10","correct":true},{"rt":null,"stimulus":"Sounds/correct.wav","key_press":null,"block":1,"trial_type":"audio-keyboard-response","trial_index":243,"time_elapsed":1979835,"internal_node_id":"0.0-13.0-3.47","match_key":"a","participant_id":"COGS219_2020_10"},{"rt":null,"stimulus":"Sounds/train_sound.wav","key_press":null,"block":1,"trial_type":"audio-keyboard-response","trial_index":244,"time_elapsed":1981129,"internal_node_id":"0.0-13.0-0.48","match_key":"a","participant_id":"COGS219_2020_10"},{"rt":null,"stimulus":"<p style=\"font-size: 48px;\">+</p>","key_press":null,"block":1,"trial_type":"html-keyboard-response","trial_index":245,"time_elapsed":1982132,"internal_node_id":"0.0-13.0-1.48","match_key":"a","participant_id":"COGS219_2020_10"},{"rt":1900.0100000000093,"stimulus":"Images/train_cartoon.png","key_press":65,"stim_onset":1581562231189,"block":1,"match_type":"match","image_category":"train","sound_category":"train","audio_type":"sound","phase":"test","trial_type":"image-keyboard-response","trial_index":246,"time_elapsed":1984033,"internal_node_id":"0.0-13.0-2.48","match_key":"a","participant_id":"COGS219_2020_10","correct":true},{"rt":null,"stimulus":"Sounds/correct.wav","key_press":null,"block":1,"trial_type":"audio-keyboard-response","trial_index":247,"time_elapsed":1986038,"internal_node_id":"0.0-13.0-3.48","match_key":"a","participant_id":"COGS219_2020_10"},{"rt":null,"stimulus":"Sounds/rooster_sound.wav","key_press":null,"block":1,"trial_type":"audio-keyboard-response","trial_index":248,"time_elapsed":1986729,"internal_node_id":"0.0-13.0-0.49","match_key":"a","participant_id":"COGS219_2020_10"},{"rt":null,"stimulus":"<p style=\"font-size: 48px;\">+</p>","key_press":null,"block":1,"trial_type":"html-keyboard-response","trial_index":249,"time_elapsed":1987732,"internal_node_id":"0.0-13.0-1.49","match_key":"a","participant_id":"COGS219_2020_10"},{"rt":835.6499999999069,"stimulus":"Images/gun_cartoon.png","key_press":76,"stim_onset":1581562236789,"block":1,"match_type":"non-match","image_category":"gun","sound_category":"rooster","audio_type":"sound","phase":"test","trial_type":"image-keyboard-response","trial_index":250,"time_elapsed":1988569,"internal_node_id":"0.0-13.0-2.49","match_key":"a","participant_id":"COGS219_2020_10","correct":true},{"rt":null,"stimulus":"Sounds/correct.wav","key_press":null,"block":1,"trial_type":"audio-keyboard-response","trial_index":251,"time_elapsed":1990571,"internal_node_id":"0.0-13.0-3.49","match_key":"a","participant_id":"COGS219_2020_10"},{"rt":null,"stimulus":"Sounds/gun_sound.wav","key_press":null,"block":1,"trial_type":"audio-keyboard-response","trial_index":252,"time_elapsed":1991148,"internal_node_id":"0.0-13.0-0.50","match_key":"a","participant_id":"COGS219_2020_10"},{"rt":null,"stimulus":"<p style=\"font-size: 48px;\">+</p>","key_press":null,"block":1,"trial_type":"html-keyboard-response","trial_index":253,"time_elapsed":1992148,"internal_node_id":"0.0-13.0-1.50","match_key":"a","participant_id":"COGS219_2020_10"},{"rt":2779.1400000001304,"stimulus":"Images/gun_1.png","key_press":65,"stim_onset":1581562241205,"block":1,"match_type":"match","image_category":"gun","sound_category":"gun","audio_type":"sound","phase":"test","trial_type":"image-keyboard-response","trial_index":254,"time_elapsed":1994928,"internal_node_id":"0.0-13.0-2.50","match_key":"a","participant_id":"COGS219_2020_10","correct":true},{"rt":null,"stimulus":"Sounds/correct.wav","key_press":null,"block":1,"trial_type":"audio-keyboard-response","trial_index":255,"time_elapsed":1996942,"internal_node_id":"0.0-13.0-3.50","match_key":"a","participant_id":"COGS219_2020_10"},{"rt":null,"stimulus":"Sounds/cat_sound.wav","key_press":null,"block":1,"trial_type":"audio-keyboard-response","trial_index":256,"time_elapsed":1997788,"internal_node_id":"0.0-13.0-0.51","match_key":"a","participant_id":"COGS219_2020_10"},{"rt":null,"stimulus":"<p style=\"font-size: 48px;\">+</p>","key_press":null,"block":1,"trial_type":"html-keyboard-response","trial_index":257,"time_elapsed":1998782,"internal_node_id":"0.0-13.0-1.51","match_key":"a","participant_id":"COGS219_2020_10"},{"rt":2033.3949999997858,"stimulus":"Images/cat_cartoon.png","key_press":65,"stim_onset":1581562247839,"block":1,"match_type":"match","image_category":"cat","sound_category":"cat","audio_type":"sound","phase":"test","trial_type":"image-keyboard-response","trial_index":258,"time_elapsed":2000816,"internal_node_id":"0.0-13.0-2.51","match_key":"a","participant_id":"COGS219_2020_10","correct":true},{"rt":null,"stimulus":"Sounds/correct.wav","key_press":null,"block":1,"trial_type":"audio-keyboard-response","trial_index":259,"time_elapsed":2002821,"internal_node_id":"0.0-13.0-3.51","match_key":"a","participant_id":"COGS219_2020_10"},{"rt":null,"stimulus":"Sounds/dog_label.wav","key_press":null,"block":1,"trial_type":"audio-keyboard-response","trial_index":260,"time_elapsed":2003489,"internal_node_id":"0.0-13.0-0.52","match_key":"a","participant_id":"COGS219_2020_10"},{"rt":null,"stimulus":"<p style=\"font-size: 48px;\">+</p>","key_press":null,"block":1,"trial_type":"html-keyboard-response","trial_index":261,"time_elapsed":2004482,"internal_node_id":"0.0-13.0-1.52","match_key":"a","participant_id":"COGS219_2020_10"},{"rt":821.5150000001304,"stimulus":"Images/car_cartoon.png","key_press":76,"stim_onset":1581562253539,"block":1,"match_type":"non-match","image_category":"car","sound_category":"dog","audio_type":"label","phase":"test","trial_type":"image-keyboard-response","trial_index":262,"time_elapsed":2005304,"internal_node_id":"0.0-13.0-2.52","match_key":"a","participant_id":"COGS219_2020_10","correct":true},{"rt":null,"stimulus":"Sounds/correct.wav","key_press":null,"block":1,"trial_type":"audio-keyboard-response","trial_index":263,"time_elapsed":2007309,"internal_node_id":"0.0-13.0-3.52","match_key":"a","participant_id":"COGS219_2020_10"},{"rt":null,"stimulus":"Sounds/cow_label.wav","key_press":null,"block":1,"trial_type":"audio-keyboard-response","trial_index":264,"time_elapsed":2008308,"internal_node_id":"0.0-13.0-0.53","match_key":"a","participant_id":"COGS219_2020_10"},{"rt":null,"stimulus":"<p style=\"font-size: 48px;\">+</p>","key_press":null,"block":1,"trial_type":"html-keyboard-response","trial_index":265,"time_elapsed":2009298,"internal_node_id":"0.0-13.0-1.53","match_key":"a","participant_id":"COGS219_2020_10"},{"rt":724.5750000001863,"stimulus":"Images/frog_orig.png","key_press":76,"stim_onset":1581562258355,"block":1,"match_type":"non-match","image_category":"frog","sound_category":"cow","audio_type":"label","phase":"test","trial_type":"image-keyboard-response","trial_index":266,"time_elapsed":2010024,"internal_node_id":"0.0-13.0-2.53","match_key":"a","participant_id":"COGS219_2020_10","correct":true},{"rt":null,"stimulus":"Sounds/correct.wav","key_press":null,"block":1,"trial_type":"audio-keyboard-response","trial_index":267,"time_elapsed":2012035,"internal_node_id":"0.0-13.0-3.53","match_key":"a","participant_id":"COGS219_2020_10"},{"rt":null,"stimulus":"Sounds/dog_sound.wav","key_press":null,"block":1,"trial_type":"audio-keyboard-response","trial_index":268,"time_elapsed":2012748,"internal_node_id":"0.0-13.0-0.54","match_key":"a","participant_id":"COGS219_2020_10"},{"rt":null,"stimulus":"<p style=\"font-size: 48px;\">+</p>","key_press":null,"block":1,"trial_type":"html-keyboard-response","trial_index":269,"time_elapsed":2013748,"internal_node_id":"0.0-13.0-1.54","match_key":"a","participant_id":"COGS219_2020_10"},{"rt":1146.5949999997392,"stimulus":"Images/cat_1.png","key_press":76,"stim_onset":1581562262806,"block":1,"match_type":"non-match","image_category":"cat","sound_category":"dog","audio_type":"sound","phase":"test","trial_type":"image-keyboard-response","trial_index":270,"time_elapsed":2014896,"internal_node_id":"0.0-13.0-2.54","match_key":"a","participant_id":"COGS219_2020_10","correct":true},{"rt":null,"stimulus":"Sounds/correct.wav","key_press":null,"block":1,"trial_type":"audio-keyboard-response","trial_index":271,"time_elapsed":2016903,"internal_node_id":"0.0-13.0-3.54","match_key":"a","participant_id":"COGS219_2020_10"},{"rt":null,"stimulus":"Sounds/gun_sound.wav","key_press":null,"block":1,"trial_type":"audio-keyboard-response","trial_index":272,"time_elapsed":2017488,"internal_node_id":"0.0-13.0-0.55","match_key":"a","participant_id":"COGS219_2020_10"},{"rt":null,"stimulus":"<p style=\"font-size: 48px;\">+</p>","key_press":null,"block":1,"trial_type":"html-keyboard-response","trial_index":273,"time_elapsed":2018482,"internal_node_id":"0.0-13.0-1.55","match_key":"a","participant_id":"COGS219_2020_10"},{"rt":981.5849999999627,"stimulus":"Images/motorcycle_3.png","key_press":76,"stim_onset":1581562267539,"block":1,"match_type":"non-match","image_category":"motorcycle","sound_category":"gun","audio_type":"sound","phase":"test","trial_type":"image-keyboard-response","trial_index":274,"time_elapsed":2019464,"internal_node_id":"0.0-13.0-2.55","match_key":"a","participant_id":"COGS219_2020_10","correct":true},{"rt":null,"stimulus":"Sounds/correct.wav","key_press":null,"block":1,"trial_type":"audio-keyboard-response","trial_index":275,"time_elapsed":2021470,"internal_node_id":"0.0-13.0-3.55","match_key":"a","participant_id":"COGS219_2020_10"},{"rt":null,"stimulus":"Sounds/gun_label.wav","key_press":null,"block":1,"trial_type":"audio-keyboard-response","trial_index":276,"time_elapsed":2022048,"internal_node_id":"0.0-13.0-0.56","match_key":"a","participant_id":"COGS219_2020_10"},{"rt":null,"stimulus":"<p style=\"font-size: 48px;\">+</p>","key_press":null,"block":1,"trial_type":"html-keyboard-response","trial_index":277,"time_elapsed":2023048,"internal_node_id":"0.0-13.0-1.56","match_key":"a","participant_id":"COGS219_2020_10"},{"rt":966.7450000001118,"stimulus":"Images/gun_orig.png","key_press":65,"stim_onset":1581562272106,"block":1,"match_type":"match","image_category":"gun","sound_category":"gun","audio_type":"label","phase":"test","trial_type":"image-keyboard-response","trial_index":278,"time_elapsed":2024016,"internal_node_id":"0.0-13.0-2.56","match_key":"a","participant_id":"COGS219_2020_10","correct":true},{"rt":null,"stimulus":"Sounds/correct.wav","key_press":null,"block":1,"trial_type":"audio-keyboard-response","trial_index":279,"time_elapsed":2026020,"internal_node_id":"0.0-13.0-3.56","match_key":"a","participant_id":"COGS219_2020_10"},{"rt":null,"stimulus":"Sounds/whistle_label.wav","key_press":null,"block":1,"trial_type":"audio-keyboard-response","trial_index":280,"time_elapsed":2026708,"internal_node_id":"0.0-13.0-0.57","match_key":"a","participant_id":"COGS219_2020_10"},{"rt":null,"stimulus":"<p style=\"font-size: 48px;\">+</p>","key_press":null,"block":1,"trial_type":"html-keyboard-response","trial_index":281,"time_elapsed":2027698,"internal_node_id":"0.0-13.0-1.57","match_key":"a","participant_id":"COGS219_2020_10"},{"rt":660.5949999999721,"stimulus":"Images/whistle_cartoon.png","key_press":76,"stim_onset":1581562276756,"block":1,"match_type":"match","image_category":"whistle","sound_category":"whistle","audio_type":"label","phase":"test","trial_type":"image-keyboard-response","trial_index":282,"time_elapsed":2028360,"internal_node_id":"0.0-13.0-2.57","match_key":"a","participant_id":"COGS219_2020_10","correct":false},{"rt":null,"stimulus":"Sounds/incorrect.wav","key_press":null,"block":1,"trial_type":"audio-keyboard-response","trial_index":283,"time_elapsed":2030369,"internal_node_id":"0.0-13.0-3.57","match_key":"a","participant_id":"COGS219_2020_10"},{"rt":null,"stimulus":"Sounds/car_sound.wav","key_press":null,"block":1,"trial_type":"audio-keyboard-response","trial_index":284,"time_elapsed":2031449,"internal_node_id":"0.0-13.0-0.58","match_key":"a","participant_id":"COGS219_2020_10"},{"rt":null,"stimulus":"<p style=\"font-size: 48px;\">+</p>","key_press":null,"block":1,"trial_type":"html-keyboard-response","trial_index":285,"time_elapsed":2032449,"internal_node_id":"0.0-13.0-1.58","match_key":"a","participant_id":"COGS219_2020_10"},{"rt":692.9599999997299,"stimulus":"Images/cat_cartoon.png","key_press":76,"stim_onset":1581562281506,"block":1,"match_type":"non-match","image_category":"cat","sound_category":"car","audio_type":"sound","phase":"test","trial_type":"image-keyboard-response","trial_index":286,"time_elapsed":2033144,"internal_node_id":"0.0-13.0-2.58","match_key":"a","participant_id":"COGS219_2020_10","correct":true},{"rt":null,"stimulus":"Sounds/correct.wav","key_press":null,"block":1,"trial_type":"audio-keyboard-response","trial_index":287,"time_elapsed":2035154,"internal_node_id":"0.0-13.0-3.58","match_key":"a","participant_id":"COGS219_2020_10"},{"rt":null,"stimulus":"Sounds/dog_sound.wav","key_press":null,"block":1,"trial_type":"audio-keyboard-response","trial_index":288,"time_elapsed":2035869,"internal_node_id":"0.0-13.0-0.59","match_key":"a","participant_id":"COGS219_2020_10"},{"rt":null,"stimulus":"<p style=\"font-size: 48px;\">+</p>","key_press":null,"block":1,"trial_type":"html-keyboard-response","trial_index":289,"time_elapsed":2036865,"internal_node_id":"0.0-13.0-1.59","match_key":"a","participant_id":"COGS219_2020_10"},{"rt":981.9900000002235,"stimulus":"Images/dog_cartoon.png","key_press":65,"stim_onset":1581562285922,"block":1,"match_type":"match","image_category":"dog","sound_category":"dog","audio_type":"sound","phase":"test","trial_type":"image-keyboard-response","trial_index":290,"time_elapsed":2037848,"internal_node_id":"0.0-13.0-2.59","match_key":"a","participant_id":"COGS219_2020_10","correct":true},{"rt":null,"stimulus":"Sounds/correct.wav","key_press":null,"block":1,"trial_type":"audio-keyboard-response","trial_index":291,"time_elapsed":2039857,"internal_node_id":"0.0-13.0-3.59","match_key":"a","participant_id":"COGS219_2020_10"},{"rt":null,"stimulus":"Sounds/frog_sound.wav","key_press":null,"block":1,"trial_type":"audio-keyboard-response","trial_index":292,"time_elapsed":2040768,"internal_node_id":"0.0-13.0-0.60","match_key":"a","participant_id":"COGS219_2020_10"},{"rt":null,"stimulus":"<p style=\"font-size: 48px;\">+</p>","key_press":null,"block":1,"trial_type":"html-keyboard-response","trial_index":293,"time_elapsed":2041765,"internal_node_id":"0.0-13.0-1.60","match_key":"a","participant_id":"COGS219_2020_10"},{"rt":1433.7399999997579,"stimulus":"Images/frog_orig.png","key_press":65,"stim_onset":1581562290822,"block":1,"match_type":"match","image_category":"frog","sound_category":"frog","audio_type":"sound","phase":"test","trial_type":"image-keyboard-response","trial_index":294,"time_elapsed":2043200,"internal_node_id":"0.0-13.0-2.60","match_key":"a","participant_id":"COGS219_2020_10","correct":true},{"rt":null,"stimulus":"Sounds/correct.wav","key_press":null,"block":1,"trial_type":"audio-keyboard-response","trial_index":295,"time_elapsed":2045207,"internal_node_id":"0.0-13.0-3.60","match_key":"a","participant_id":"COGS219_2020_10"},{"rt":null,"stimulus":"Sounds/rooster_sound.wav","key_press":null,"block":1,"trial_type":"audio-keyboard-response","trial_index":296,"time_elapsed":2045908,"internal_node_id":"0.0-13.0-0.61","match_key":"a","participant_id":"COGS219_2020_10"},{"rt":null,"stimulus":"<p style=\"font-size: 48px;\">+</p>","key_press":null,"block":1,"trial_type":"html-keyboard-response","trial_index":297,"time_elapsed":2046899,"internal_node_id":"0.0-13.0-1.61","match_key":"a","participant_id":"COGS219_2020_10"},{"rt":548.4300000001676,"stimulus":"Images/rooster_orig.png","key_press":65,"stim_onset":1581562295956,"block":1,"match_type":"match","image_category":"rooster","sound_category":"rooster","audio_type":"sound","phase":"test","trial_type":"image-keyboard-response","trial_index":298,"time_elapsed":2047448,"internal_node_id":"0.0-13.0-2.61","match_key":"a","participant_id":"COGS219_2020_10","correct":true},{"rt":null,"stimulus":"Sounds/correct.wav","key_press":null,"block":1,"trial_type":"audio-keyboard-response","trial_index":299,"time_elapsed":2049455,"internal_node_id":"0.0-13.0-3.61","match_key":"a","participant_id":"COGS219_2020_10"},{"rt":null,"stimulus":"Sounds/rooster_label.wav","key_press":null,"block":1,"trial_type":"audio-keyboard-response","trial_index":300,"time_elapsed":2050148,"internal_node_id":"0.0-13.0-0.62","match_key":"a","participant_id":"COGS219_2020_10"},{"rt":null,"stimulus":"<p style=\"font-size: 48px;\">+</p>","key_press":null,"block":1,"trial_type":"html-keyboard-response","trial_index":301,"time_elapsed":2051149,"internal_node_id":"0.0-13.0-1.62","match_key":"a","participant_id":"COGS219_2020_10"},{"rt":794.1350000000093,"stimulus":"Images/whistle_3.png","key_press":76,"stim_onset":1581562300206,"block":1,"match_type":"non-match","image_category":"whistle","sound_category":"rooster","audio_type":"label","phase":"test","trial_type":"image-keyboard-response","trial_index":302,"time_elapsed":2051944,"internal_node_id":"0.0-13.0-2.62","match_key":"a","participant_id":"COGS219_2020_10","correct":true},{"rt":null,"stimulus":"Sounds/correct.wav","key_press":null,"block":1,"trial_type":"audio-keyboard-response","trial_index":303,"time_elapsed":2053956,"internal_node_id":"0.0-13.0-3.62","match_key":"a","participant_id":"COGS219_2020_10"},{"rt":null,"stimulus":"Sounds/gun_sound.wav","key_press":null,"block":1,"trial_type":"audio-keyboard-response","trial_index":304,"time_elapsed":2054528,"internal_node_id":"0.0-13.0-0.63","match_key":"a","participant_id":"COGS219_2020_10"},{"rt":null,"stimulus":"<p style=\"font-size: 48px;\">+</p>","key_press":null,"block":1,"trial_type":"html-keyboard-response","trial_index":305,"time_elapsed":2055532,"internal_node_id":"0.0-13.0-1.63","match_key":"a","participant_id":"COGS219_2020_10"},{"rt":811.195000000298,"stimulus":"Images/cat_2.png","key_press":76,"stim_onset":1581562304590,"block":1,"match_type":"non-match","image_category":"cat","sound_category":"gun","audio_type":"sound","phase":"test","trial_type":"image-keyboard-response","trial_index":306,"time_elapsed":2056344,"internal_node_id":"0.0-13.0-2.63","match_key":"a","participant_id":"COGS219_2020_10","correct":true},{"rt":null,"stimulus":"Sounds/correct.wav","key_press":null,"block":1,"trial_type":"audio-keyboard-response","trial_index":307,"time_elapsed":2058355,"internal_node_id":"0.0-13.0-3.63","match_key":"a","participant_id":"COGS219_2020_10"},{"rt":null,"stimulus":"Sounds/motorcycle_sound.wav","key_press":null,"block":1,"trial_type":"audio-keyboard-response","trial_index":308,"time_elapsed":2059468,"internal_node_id":"0.0-13.0-0.64","match_key":"a","participant_id":"COGS219_2020_10"},{"rt":null,"stimulus":"<p style=\"font-size: 48px;\">+</p>","key_press":null,"block":1,"trial_type":"html-keyboard-response","trial_index":309,"time_elapsed":2060466,"internal_node_id":"0.0-13.0-1.64","match_key":"a","participant_id":"COGS219_2020_10"},{"rt":1085.1350000002421,"stimulus":"Images/motorcycle_orig.png","key_press":65,"stim_onset":1581562309523,"block":1,"match_type":"match","image_category":"motorcycle","sound_category":"motorcycle","audio_type":"sound","phase":"test","trial_type":"image-keyboard-response","trial_index":310,"time_elapsed":2061552,"internal_node_id":"0.0-13.0-2.64","match_key":"a","participant_id":"COGS219_2020_10","correct":true},{"rt":null,"stimulus":"Sounds/correct.wav","key_press":null,"block":1,"trial_type":"audio-keyboard-response","trial_index":311,"time_elapsed":2063554,"internal_node_id":"0.0-13.0-3.64","match_key":"a","participant_id":"COGS219_2020_10"},{"rt":null,"stimulus":"Sounds/motorcycle_sound.wav","key_press":null,"block":1,"trial_type":"audio-keyboard-response","trial_index":312,"time_elapsed":2064648,"internal_node_id":"0.0-13.0-0.65","match_key":"a","participant_id":"COGS219_2020_10"},{"rt":null,"stimulus":"<p style=\"font-size: 48px;\">+</p>","key_press":null,"block":1,"trial_type":"html-keyboard-response","trial_index":313,"time_elapsed":2065649,"internal_node_id":"0.0-13.0-1.65","match_key":"a","participant_id":"COGS219_2020_10"},{"rt":1598.4099999994505,"stimulus":"Images/car_1.png","key_press":65,"stim_onset":1581562314706,"block":1,"match_type":"non-match","image_category":"car","sound_category":"motorcycle","audio_type":"sound","phase":"test","trial_type":"image-keyboard-response","trial_index":314,"time_elapsed":2067248,"internal_node_id":"0.0-13.0-2.65","match_key":"a","participant_id":"COGS219_2020_10","correct":false},{"rt":null,"stimulus":"Sounds/incorrect.wav","key_press":null,"block":1,"trial_type":"audio-keyboard-response","trial_index":315,"time_elapsed":2069259,"internal_node_id":"0.0-13.0-3.65","match_key":"a","participant_id":"COGS219_2020_10"},{"rt":null,"stimulus":"Sounds/motorcycle_label.wav","key_press":null,"block":1,"trial_type":"audio-keyboard-response","trial_index":316,"time_elapsed":2070388,"internal_node_id":"0.0-13.0-0.66","match_key":"a","participant_id":"COGS219_2020_10"},{"rt":null,"stimulus":"<p style=\"font-size: 48px;\">+</p>","key_press":null,"block":1,"trial_type":"html-keyboard-response","trial_index":317,"time_elapsed":2071382,"internal_node_id":"0.0-13.0-1.66","match_key":"a","participant_id":"COGS219_2020_10"},{"rt":624.730000000447,"stimulus":"Images/motorcycle_3.png","key_press":65,"stim_onset":1581562320439,"block":1,"match_type":"match","image_category":"motorcycle","sound_category":"motorcycle","audio_type":"label","phase":"test","trial_type":"image-keyboard-response","trial_index":318,"time_elapsed":2072008,"internal_node_id":"0.0-13.0-2.66","match_key":"a","participant_id":"COGS219_2020_10","correct":true},{"rt":null,"stimulus":"Sounds/correct.wav","key_press":null,"block":1,"trial_type":"audio-keyboard-response","trial_index":319,"time_elapsed":2074020,"internal_node_id":"0.0-13.0-3.66","match_key":"a","participant_id":"COGS219_2020_10"},{"rt":null,"stimulus":"Sounds/train_label.wav","key_press":null,"block":1,"trial_type":"audio-keyboard-response","trial_index":320,"time_elapsed":2075288,"internal_node_id":"0.0-13.0-0.67","match_key":"a","participant_id":"COGS219_2020_10"},{"rt":null,"stimulus":"<p style=\"font-size: 48px;\">+</p>","key_press":null,"block":1,"trial_type":"html-keyboard-response","trial_index":321,"time_elapsed":2076282,"internal_node_id":"0.0-13.0-1.67","match_key":"a","participant_id":"COGS219_2020_10"},{"rt":660.6400000001304,"stimulus":"Images/rooster_3.png","key_press":76,"stim_onset":1581562325339,"block":1,"match_type":"non-match","image_category":"rooster","sound_category":"train","audio_type":"label","phase":"test","trial_type":"image-keyboard-response","trial_index":322,"time_elapsed":2076944,"internal_node_id":"0.0-13.0-2.67","match_key":"a","participant_id":"COGS219_2020_10","correct":true},{"rt":null,"stimulus":"Sounds/correct.wav","key_press":null,"block":1,"trial_type":"audio-keyboard-response","trial_index":323,"time_elapsed":2078958,"internal_node_id":"0.0-13.0-3.67","match_key":"a","participant_id":"COGS219_2020_10"},{"rt":null,"stimulus":"Sounds/frog_label.wav","key_press":null,"block":1,"trial_type":"audio-keyboard-response","trial_index":324,"time_elapsed":2079848,"internal_node_id":"0.0-13.0-0.68","match_key":"a","participant_id":"COGS219_2020_10"},{"rt":null,"stimulus":"<p style=\"font-size: 48px;\">+</p>","key_press":null,"block":1,"trial_type":"html-keyboard-response","trial_index":325,"time_elapsed":2080849,"internal_node_id":"0.0-13.0-1.68","match_key":"a","participant_id":"COGS219_2020_10"},{"rt":870.1799999999348,"stimulus":"Images/rooster_cartoon.png","key_press":76,"stim_onset":1581562329906,"block":1,"match_type":"non-match","image_category":"rooster","sound_category":"frog","audio_type":"label","phase":"test","trial_type":"image-keyboard-response","trial_index":326,"time_elapsed":2081720,"internal_node_id":"0.0-13.0-2.68","match_key":"a","participant_id":"COGS219_2020_10","correct":true},{"rt":null,"stimulus":"Sounds/correct.wav","key_press":null,"block":1,"trial_type":"audio-keyboard-response","trial_index":327,"time_elapsed":2083736,"internal_node_id":"0.0-13.0-3.68","match_key":"a","participant_id":"COGS219_2020_10"},{"rt":null,"stimulus":"Sounds/whistle_sound.wav","key_press":null,"block":1,"trial_type":"audio-keyboard-response","trial_index":328,"time_elapsed":2084428,"internal_node_id":"0.0-13.0-0.69","match_key":"a","participant_id":"COGS219_2020_10"},{"rt":null,"stimulus":"<p style=\"font-size: 48px;\">+</p>","key_press":null,"block":1,"trial_type":"html-keyboard-response","trial_index":329,"time_elapsed":2085433,"internal_node_id":"0.0-13.0-1.69","match_key":"a","participant_id":"COGS219_2020_10"},{"rt":782.6649999995716,"stimulus":"Images/whistle_orig.png","key_press":65,"stim_onset":1581562334489,"block":1,"match_type":"match","image_category":"whistle","sound_category":"whistle","audio_type":"sound","phase":"test","trial_type":"image-keyboard-response","trial_index":330,"time_elapsed":2086216,"internal_node_id":"0.0-13.0-2.69","match_key":"a","participant_id":"COGS219_2020_10","correct":true},{"rt":null,"stimulus":"Sounds/correct.wav","key_press":null,"block":1,"trial_type":"audio-keyboard-response","trial_index":331,"time_elapsed":2088222,"internal_node_id":"0.0-13.0-3.69","match_key":"a","participant_id":"COGS219_2020_10"},{"rt":null,"stimulus":"Sounds/rooster_sound.wav","key_press":null,"block":1,"trial_type":"audio-keyboard-response","trial_index":332,"time_elapsed":2088908,"internal_node_id":"0.0-13.0-0.70","match_key":"a","participant_id":"COGS219_2020_10"},{"rt":null,"stimulus":"<p style=\"font-size: 48px;\">+</p>","key_press":null,"block":1,"trial_type":"html-keyboard-response","trial_index":333,"time_elapsed":2089899,"internal_node_id":"0.0-13.0-1.70","match_key":"a","participant_id":"COGS219_2020_10"},{"rt":475.72500000032596,"stimulus":"Images/car_orig.png","key_press":76,"stim_onset":1581562338956,"block":1,"match_type":"non-match","image_category":"car","sound_category":"rooster","audio_type":"sound","phase":"test","trial_type":"image-keyboard-response","trial_index":334,"time_elapsed":2090376,"internal_node_id":"0.0-13.0-2.70","match_key":"a","participant_id":"COGS219_2020_10","correct":true},{"rt":null,"stimulus":"Sounds/correct.wav","key_press":null,"block":1,"trial_type":"audio-keyboard-response","trial_index":335,"time_elapsed":2092385,"internal_node_id":"0.0-13.0-3.70","match_key":"a","participant_id":"COGS219_2020_10"},{"rt":null,"stimulus":"Sounds/cat_label.wav","key_press":null,"block":1,"trial_type":"audio-keyboard-response","trial_index":336,"time_elapsed":2093228,"internal_node_id":"0.0-13.0-0.71","match_key":"a","participant_id":"COGS219_2020_10"},{"rt":null,"stimulus":"<p style=\"font-size: 48px;\">+</p>","key_press":null,"block":1,"trial_type":"html-keyboard-response","trial_index":337,"time_elapsed":2094233,"internal_node_id":"0.0-13.0-1.71","match_key":"a","participant_id":"COGS219_2020_10"},{"rt":566.3800000001211,"stimulus":"Images/rooster_2.png","key_press":76,"stim_onset":1581562343289,"block":1,"match_type":"non-match","image_category":"rooster","sound_category":"cat","audio_type":"label","phase":"test","trial_type":"image-keyboard-response","trial_index":338,"time_elapsed":2094800,"internal_node_id":"0.0-13.0-2.71","match_key":"a","participant_id":"COGS219_2020_10","correct":true},{"rt":null,"stimulus":"Sounds/correct.wav","key_press":null,"block":1,"trial_type":"audio-keyboard-response","trial_index":339,"time_elapsed":2096806,"internal_node_id":"0.0-13.0-3.71","match_key":"a","participant_id":"COGS219_2020_10"},{"rt":null,"stimulus":"Sounds/car_label.wav","key_press":null,"block":1,"trial_type":"audio-keyboard-response","trial_index":340,"time_elapsed":2097888,"internal_node_id":"0.0-13.0-0.72","match_key":"a","participant_id":"COGS219_2020_10"},{"rt":null,"stimulus":"<p style=\"font-size: 48px;\">+</p>","key_press":null,"block":1,"trial_type":"html-keyboard-response","trial_index":341,"time_elapsed":2098882,"internal_node_id":"0.0-13.0-1.72","match_key":"a","participant_id":"COGS219_2020_10"},{"rt":644.6850000005215,"stimulus":"Images/gun_2.png","key_press":76,"stim_onset":1581562347940,"block":1,"match_type":"non-match","image_category":"gun","sound_category":"car","audio_type":"label","phase":"test","trial_type":"image-keyboard-response","trial_index":342,"time_elapsed":2099528,"internal_node_id":"0.0-13.0-2.72","match_key":"a","participant_id":"COGS219_2020_10","correct":true},{"rt":null,"stimulus":"Sounds/correct.wav","key_press":null,"block":1,"trial_type":"audio-keyboard-response","trial_index":343,"time_elapsed":2101538,"internal_node_id":"0.0-13.0-3.72","match_key":"a","participant_id":"COGS219_2020_10"},{"rt":null,"stimulus":"Sounds/cow_sound.wav","key_press":null,"block":1,"trial_type":"audio-keyboard-response","trial_index":344,"time_elapsed":2102549,"internal_node_id":"0.0-13.0-0.73","match_key":"a","participant_id":"COGS219_2020_10"},{"rt":null,"stimulus":"<p style=\"font-size: 48px;\">+</p>","key_press":null,"block":1,"trial_type":"html-keyboard-response","trial_index":345,"time_elapsed":2103549,"internal_node_id":"0.0-13.0-1.73","match_key":"a","participant_id":"COGS219_2020_10"},{"rt":513.6400000001304,"stimulus":"Images/motorcycle_1.png","key_press":76,"stim_onset":1581562352607,"block":1,"match_type":"non-match","image_category":"motorcycle","sound_category":"cow","audio_type":"sound","phase":"test","trial_type":"image-keyboard-response","trial_index":346,"time_elapsed":2104064,"internal_node_id":"0.0-13.0-2.73","match_key":"a","participant_id":"COGS219_2020_10","correct":true},{"rt":null,"stimulus":"Sounds/correct.wav","key_press":null,"block":1,"trial_type":"audio-keyboard-response","trial_index":347,"time_elapsed":2106071,"internal_node_id":"0.0-13.0-3.73","match_key":"a","participant_id":"COGS219_2020_10"},{"rt":null,"stimulus":"Sounds/car_sound.wav","key_press":null,"block":1,"trial_type":"audio-keyboard-response","trial_index":348,"time_elapsed":2107148,"internal_node_id":"0.0-13.0-0.74","match_key":"a","participant_id":"COGS219_2020_10"},{"