"rt","responses","trial_type","trial_index","time_elapsed","internal_node_id","match_key","participant_id","stimulus","key_press","block","stim_onset","match_type","image_category","sound_category","audio_type","phase","correct"
"28298.12499997206","{""Q0"":""COGS219_2020_07""}","survey-text","0","28332","0.0-0.0","l","COGS219_2020_07","","","","","","","","","",""
"34709.6550000133","","html-keyboard-response","1","63044","0.0-1.0","l","COGS219_2020_07","<p>Use KEYBOARD 1 (match RIGHT)</p><p>Press MATCH to continue.</p>","76","","","","","","","",""
"1979648.290000041","","html-keyboard-response","2","2041868","0.0-2.0","l","COGS219_2020_07","<p>Welcome to the experiment.</p>","13","","","","","","","",""
"10044.485000078566","","html-keyboard-response","3","2051915","0.0-3.0","l","COGS219_2020_07","<p>Thank you for agreeing to participate in this study.</p><p>If during any part of the procedure you must stop for any reason, please inform the researcher that you do not wish to continue.</p>","13","","","","","","","",""
"19423.64500008989","","html-keyboard-response","4","2071348","0.0-4.0","l","COGS219_2020_07","<p>In this experiment, you will hear various words or sounds and see pictures of various animals and objects.</p><p>Most of the images will be of common everyday objects, such as cars, cats, cows, firearms, frogs, chickens, whistles, trains, motorcycles, and dogs.</p><p>Some of the images will be real-life stills, while others will be cartoons.</p>","13","","","","","","","",""
"25407.264999928884","","html-keyboard-response","5","2096756","0.0-5.0","l","COGS219_2020_07","<p>Sometimes, the word/sound will match the picture, for example you'll hear a meowing sound and see a cat.</p><p>Other times, the picture will not match the sound or word.</p><p>Your task is to decide as quickly as possible if the word/sound matches the picture or not. </p>","13","","","","","","","",""
"14479.099999996834","","html-keyboard-response","6","2111236","0.0-6.0","l","COGS219_2020_07","<p>For example, if you hear the word ""cat"" or hear a meowing sound, and then see a picture of a cat, you should press the MATCH key.</p><p> If the sound and image do not match, press the NOT-MATCH key to indicate that there is not a match.</p>","13","","","","","","","",""
"12143.284999998286","","html-keyboard-response","7","2123380","0.0-7.0","l","COGS219_2020_07","<p>If you make a mistake, you will hear a buzzing sound instead of a more pleasant sound.</p><p> Try to respond as quickly as possible, while making as few errors as possible. If you are making mistakes, you are probably rushing.</p>","13","","","","","","","",""
"11823.205000022426","","html-keyboard-response","8","2135209","0.0-8.0","l","COGS219_2020_07","<p>Please try to not move or blink your eyes during the presentation of the images. You can move and blink between images.</p><p>During the experiment there will be some breaks during which you can rest your eyes.</p>","13","","","","","","","",""
"11151.979999965988","","html-keyboard-response","9","2146362","0.0-9.0","l","COGS219_2020_07","<p>We will begin with 10 practice trials. Please let the experimenter know if you have any questions.</p>","13","","","","","","","",""
"null","","audio-keyboard-response","10","2147137","0.0-10.0-0.0","l","COGS219_2020_07","Sounds/dog_sound.wav","null","0","","","","","","",""
"null","","html-keyboard-response","11","2148133","0.0-10.0-1.0","l","COGS219_2020_07","<p style=""font-size: 48px;"">+</p>","null","0","","","","","","",""
"546.3349999627098","","image-keyboard-response","12","2148681","0.0-10.0-2.0","l","COGS219_2020_07","Images/dog_3.png","76","0","1581468264937","match","dog","dog","sound","practice","true"
"null","","audio-keyboard-response","13","2150691","0.0-10.0-3.0","l","COGS219_2020_07","Sounds/correct.wav","null","0","","","","","","",""
"null","","audio-keyboard-response","14","2151396","0.0-10.0-0.1","l","COGS219_2020_07","Sounds/whistle_label.wav","null","0","","","","","","",""
"null","","html-keyboard-response","15","2152399","0.0-10.0-1.1","l","COGS219_2020_07","<p style=""font-size: 48px;"">+</p>","null","0","","","","","","",""
"792.1499999938533","","image-keyboard-response","16","2153193","0.0-10.0-2.1","l","COGS219_2020_07","Images/gun_3.png","65","0","1581468269203","non-match","gun","whistle","label","practice","true"
"null","","audio-keyboard-response","17","2155205","0.0-10.0-3.1","l","COGS219_2020_07","Sounds/correct.wav","null","0","","","","","","",""
"null","","audio-keyboard-response","18","2156116","0.0-10.0-0.2","l","COGS219_2020_07","Sounds/frog_sound.wav","null","0","","","","","","",""
"null","","html-keyboard-response","19","2157116","0.0-10.0-1.2","l","COGS219_2020_07","<p style=""font-size: 48px;"">+</p>","null","0","","","","","","",""
"459.8900000564754","","image-keyboard-response","20","2157577","0.0-10.0-2.2","l","COGS219_2020_07","Images/frog_2.png","76","0","1581468273920","match","frog","frog","sound","practice","true"
"null","","audio-keyboard-response","21","2159586","0.0-10.0-3.2","l","COGS219_2020_07","Sounds/correct.wav","null","0","","","","","","",""
"null","","audio-keyboard-response","22","2160276","0.0-10.0-0.3","l","COGS219_2020_07","Sounds/rooster_sound.wav","null","0","","","","","","",""
"null","","html-keyboard-response","23","2161266","0.0-10.0-1.3","l","COGS219_2020_07","<p style=""font-size: 48px;"">+</p>","null","0","","","","","","",""
"1109.6050000051036","","image-keyboard-response","24","2162377","0.0-10.0-2.3","l","COGS219_2020_07","Images/whistle_3.png","65","0","1581468278070","non-match","whistle","rooster","sound","practice","true"
"null","","audio-keyboard-response","25","2164383","0.0-10.0-3.3","l","COGS219_2020_07","Sounds/correct.wav","null","0","","","","","","",""
"null","","audio-keyboard-response","26","2165656","0.0-10.0-0.4","l","COGS219_2020_07","Sounds/train_label.wav","null","0","","","","","","",""
"null","","html-keyboard-response","27","2166649","0.0-10.0-1.4","l","COGS219_2020_07","<p style=""font-size: 48px;"">+</p>","null","0","","","","","","",""
"574.0950000472367","","image-keyboard-response","28","2167225","0.0-10.0-2.4","l","COGS219_2020_07","Images/train_1.png","76","0","1581468283454","match","train","train","label","practice","true"
"null","","audio-keyboard-response","29","2169239","0.0-10.0-3.4","l","COGS219_2020_07","Sounds/correct.wav","null","0","","","","","","",""
"null","","audio-keyboard-response","30","2169936","0.0-10.0-0.5","l","COGS219_2020_07","Sounds/whistle_label.wav","null","0","","","","","","",""
"null","","html-keyboard-response","31","2170933","0.0-10.0-1.5","l","COGS219_2020_07","<p style=""font-size: 48px;"">+</p>","null","0","","","","","","",""
"531.1499999370426","","image-keyboard-response","32","2171465","0.0-10.0-2.5","l","COGS219_2020_07","Images/whistle_3.png","65","0","1581468287737","match","whistle","whistle","label","practice","false"
"null","","audio-keyboard-response","33","2173476","0.0-10.0-3.5","l","COGS219_2020_07","Sounds/incorrect.wav","null","0","","","","","","",""
"null","","audio-keyboard-response","34","2174176","0.0-10.0-0.6","l","COGS219_2020_07","Sounds/dog_sound.wav","null","0","","","","","","",""
"null","","html-keyboard-response","35","2175166","0.0-10.0-1.6","l","COGS219_2020_07","<p style=""font-size: 48px;"">+</p>","null","0","","","","","","",""
"857.3449999094009","","image-keyboard-response","36","2176025","0.0-10.0-2.6","l","COGS219_2020_07","Images/gun_orig.png","65","0","1581468291970","non-match","gun","dog","sound","practice","true"
"null","","audio-keyboard-response","37","2178035","0.0-10.0-3.6","l","COGS219_2020_07","Sounds/correct.wav","null","0","","","","","","",""
"null","","audio-keyboard-response","38","2178616","0.0-10.0-0.7","l","COGS219_2020_07","Sounds/gun_sound.wav","null","0","","","","","","",""
"null","","html-keyboard-response","39","2179616","0.0-10.0-1.7","l","COGS219_2020_07","<p style=""font-size: 48px;"">+</p>","null","0","","","","","","",""
"487.3399999924004","","image-keyboard-response","40","2180105","0.0-10.0-2.7","l","COGS219_2020_07","Images/gun_cartoon.png","76","0","1581468296420","match","gun","gun","sound","practice","true"
"null","","audio-keyboard-response","41","2182111","0.0-10.0-3.7","l","COGS219_2020_07","Sounds/correct.wav","null","0","","","","","","",""
"null","","audio-keyboard-response","42","2183136","0.0-10.0-0.8","l","COGS219_2020_07","Sounds/cow_sound.wav","null","0","","","","","","",""
"null","","html-keyboard-response","43","2184133","0.0-10.0-1.8","l","COGS219_2020_07","<p style=""font-size: 48px;"">+</p>","null","0","","","","","","",""
"515.0249999715015","","image-keyboard-response","44","2184649","0.0-10.0-2.8","l","COGS219_2020_07","Images/train_3.png","65","0","1581468300937","non-match","train","cow","sound","practice","true"
"null","","audio-keyboard-response","45","2186659","0.0-10.0-3.8","l","COGS219_2020_07","Sounds/correct.wav","null","0","","","","","","",""
"null","","audio-keyboard-response","46","2187516","0.0-10.0-0.9","l","COGS219_2020_07","Sounds/cat_label.wav","null","0","","","","","","",""
"null","","html-keyboard-response","47","2188516","0.0-10.0-1.9","l","COGS219_2020_07","<p style=""font-size: 48px;"">+</p>","null","0","","","","","","",""
"563.2900000782683","","image-keyboard-response","48","2189081","0.0-10.0-2.9","l","COGS219_2020_07","Images/rooster_1.png","65","0","1581468305320","non-match","rooster","cat","label","practice","true"
"null","","audio-keyboard-response","49","2191089","0.0-10.0-3.9","l","COGS219_2020_07","Sounds/correct.wav","null","0","","","","","","",""
"20263.78499995917","","html-keyboard-response","50","2211370","0.0-11.0","l","COGS219_2020_07","<p>The rest of the experiment is divided into five blocks with 100 trials in each block. It will take about 45 minutes to complete.</p><p>The experimenter will be in the outer room and you can communicate with them through the monitor if you have any questions or wish to stop the experiment.</p>","13","","","","","","","",""
"49439.510000054725","","html-keyboard-response","51","2260810","0.0-12.0","l","COGS219_2020_07","<p>Remember, please try not to move or blink your eyes during the presentation of the images. </p><p>At the end of the experiment, we will show you your scores on the task so you can see how you did.</p><p>The experiment will start on the next screen.</p>","76","","","","","","","",""
"null","","audio-keyboard-response","52","2263502","0.0-13.0-0.0","l","COGS219_2020_07","Sounds/dog_label.wav","null","1","","","","","","",""
"null","","html-keyboard-response","53","2264506","0.0-13.0-1.0","l","COGS219_2020_07","<p style=""font-size: 48px;"">+</p>","null","1","","","","","","",""
"595.6799999112263","","image-keyboard-response","54","2265103","0.0-13.0-2.0","l","COGS219_2020_07","Images/cow_3.png","65","1","1581468381310","non-match","cow","dog","label","test","true"
"null","","audio-keyboard-response","55","2267110","0.0-13.0-3.0","l","COGS219_2020_07","Sounds/correct.wav","null","1","","","","","","",""
"null","","audio-keyboard-response","56","2268183","0.0-13.0-0.1","l","COGS219_2020_07","Sounds/car_sound.wav","null","1","","","","","","",""
"null","","html-keyboard-response","57","2269173","0.0-13.0-1.1","l","COGS219_2020_07","<p style=""font-size: 48px;"">+</p>","null","1","","","","","","",""
"617.0949999941513","","image-keyboard-response","58","2269791","0.0-13.0-2.1","l","COGS219_2020_07","Images/car_1.png","76","1","1581468385976","match","car","car","sound","test","true"
"null","","audio-keyboard-response","59","2271794","0.0-13.0-3.1","l","COGS219_2020_07","Sounds/correct.wav","null","1","","","","","","",""
"null","","audio-keyboard-response","60","2273102","0.0-13.0-0.2","l","COGS219_2020_07","Sounds/train_sound.wav","null","1","","","","","","",""
"null","","html-keyboard-response","61","2274106","0.0-13.0-1.2","l","COGS219_2020_07","<p style=""font-size: 48px;"">+</p>","null","1","","","","","","",""
"740.0299999862909","","image-keyboard-response","62","2274847","0.0-13.0-2.2","l","COGS219_2020_07","Images/car_2.png","65","1","1581468390910","non-match","car","train","sound","test","true"
"null","","audio-keyboard-response","63","2276863","0.0-13.0-3.2","l","COGS219_2020_07","Sounds/correct.wav","null","1","","","","","","",""
"null","","audio-keyboard-response","64","2277922","0.0-13.0-0.3","l","COGS219_2020_07","Sounds/car_sound.wav","null","1","","","","","","",""
"null","","html-keyboard-response","65","2278922","0.0-13.0-1.3","l","COGS219_2020_07","<p style=""font-size: 48px;"">+</p>","null","1","","","","","","",""
"659.1449999250472","","image-keyboard-response","66","2279583","0.0-13.0-2.3","l","COGS219_2020_07","Images/train_1.png","65","1","1581468395727","non-match","train","car","sound","test","true"
"null","","audio-keyboard-response","67","2281588","0.0-13.0-3.3","l","COGS219_2020_07","Sounds/correct.wav","null","1","","","","","","",""
"null","","audio-keyboard-response","68","2282282","0.0-13.0-0.4","l","COGS219_2020_07","Sounds/whistle_label.wav","null","1","","","","","","",""
"null","","html-keyboard-response","69","2283289","0.0-13.0-1.4","l","COGS219_2020_07","<p style=""font-size: 48px;"">+</p>","null","1","","","","","","",""
"596.155000035651","","image-keyboard-response","70","2283887","0.0-13.0-2.4","l","COGS219_2020_07","Images/gun_cartoon.png","65","1","1581468400093","non-match","gun","whistle","label","test","true"
"null","","audio-keyboard-response","71","2285893","0.0-13.0-3.4","l","COGS219_2020_07","Sounds/correct.wav","null","1","","","","","","",""
"null","","audio-keyboard-response","72","2286962","0.0-13.0-0.5","l","COGS219_2020_07","Sounds/car_label.wav","null","1","","","","","","",""
"null","","html-keyboard-response","73","2287956","0.0-13.0-1.5","l","COGS219_2020_07","<p style=""font-size: 48px;"">+</p>","null","1","","","","","","",""
"489.99000003095716","","image-keyboard-response","74","2288447","0.0-13.0-2.5","l","COGS219_2020_07","Images/cow_1.png","65","1","1581468404760","non-match","cow","car","label","test","true"
"null","","audio-keyboard-response","75","2290451","0.0-13.0-3.5","l","COGS219_2020_07","Sounds/correct.wav","null","1","","","","","","",""
"null","","audio-keyboard-response","76","2291502","0.0-13.0-0.6","l","COGS219_2020_07","Sounds/car_sound.wav","null","1","","","","","","",""
"null","","html-keyboard-response","77","2292506","0.0-13.0-1.6","l","COGS219_2020_07","<p style=""font-size: 48px;"">+</p>","null","1","","","","","","",""
"531.6400000592694","","image-keyboard-response","78","2293039","0.0-13.0-2.6","l","COGS219_2020_07","Images/whistle_orig.png","65","1","1581468409310","non-match","whistle","car","sound","test","true"
"null","","audio-keyboard-response","79","2295049","0.0-13.0-3.6","l","COGS219_2020_07","Sounds/correct.wav","null","1","","","","","","",""
"null","","audio-keyboard-response","80","2296322","0.0-13.0-0.7","l","COGS219_2020_07","Sounds/train_label.wav","null","1","","","","","","",""
"null","","html-keyboard-response","81","2297339","0.0-13.0-1.7","l","COGS219_2020_07","<p style=""font-size: 48px;"">+</p>","null","1","","","","","","",""
"722.1099999733269","","image-keyboard-response","82","2298063","0.0-13.0-2.7","l","COGS219_2020_07","Images/train_orig.png","76","1","1581468414144","match","train","train","label","test","true"
"null","","audio-keyboard-response","83","2300066","0.0-13.0-3.7","l","COGS219_2020_07","Sounds/correct.wav","null","1","","","","","","",""
"null","","audio-keyboard-response","84","2301362","0.0-13.0-0.8","l","COGS219_2020_07","Sounds/train_sound.wav","null","1","","","","","","",""
"null","","html-keyboard-response","85","2302356","0.0-13.0-1.8","l","COGS219_2020_07","<p style=""font-size: 48px;"">+</p>","null","1","","","","","","",""
"441.5949999820441","","image-keyboard-response","86","2302799","0.0-13.0-2.8","l","COGS219_2020_07","Images/train_2.png","76","1","1581468419160","match","train","train","sound","test","true"
"null","","audio-keyboard-response","87","2304805","0.0-13.0-3.8","l","COGS219_2020_07","Sounds/correct.wav","null","1","","","","","","",""
"null","","audio-keyboard-response","88","2306062","0.0-13.0-0.9","l","COGS219_2020_07","Sounds/train_label.wav","null","1","","","","","","",""
"null","","html-keyboard-response","89","2307056","0.0-13.0-1.9","l","COGS219_2020_07","<p style=""font-size: 48px;"">+</p>","null","1","","","","","","",""
"444.6999999927357","","image-keyboard-response","90","2307503","0.0-13.0-2.9","l","COGS219_2020_07","Images/frog_orig.png","65","1","1581468423860","non-match","frog","train","label","test","true"
"null","","audio-keyboard-response","91","2309520","0.0-13.0-3.9","l","COGS219_2020_07","Sounds/correct.wav","null","1","","","","","","",""
"null","","audio-keyboard-response","92","2310542","0.0-13.0-0.10","l","COGS219_2020_07","Sounds/cow_sound.wav","null","1","","","","","","",""
"null","","html-keyboard-response","93","2311540","0.0-13.0-1.10","l","COGS219_2020_07","<p style=""font-size: 48px;"">+</p>","null","1","","","","","","",""
"426.1549999937415","","image-keyboard-response","94","2311967","0.0-13.0-2.10","l","COGS219_2020_07","Images/motorcycle_orig.png","65","1","1581468428344","non-match","motorcycle","cow","sound","test","true"
"null","","audio-keyboard-response","95","2313974","0.0-13.0-3.10","l","COGS219_2020_07","Sounds/correct.wav","null","1","","","","","","",""
"null","","audio-keyboard-response","96","2314662","0.0-13.0-0.11","l","COGS219_2020_07","Sounds/whistle_sound.wav","null","1","","","","","","",""
"null","","html-keyboard-response","97","2315656","0.0-13.0-1.11","l","COGS219_2020_07","<p style=""font-size: 48px;"">+</p>","null","1","","","","","","",""
"389.62499995250255","","image-keyboard-response","98","2316047","0.0-13.0-2.11","l","COGS219_2020_07","Images/dog_cartoon.png","65","1","1581468432460","non-match","dog","whistle","sound","test","true"
"null","","audio-keyboard-response","99","2318059","0.0-13.0-3.11","l","COGS219_2020_07","Sounds/correct.wav","null","1","","","","","","",""
"null","","audio-keyboard-response","100","2318762","0.0-13.0-0.12","l","COGS219_2020_07","Sounds/rooster_sound.wav","null","1","","","","","","",""
"null","","html-keyboard-response","101","2319756","0.0-13.0-1.12","l","COGS219_2020_07","<p style=""font-size: 48px;"">+</p>","null","1","","","","","","",""
"385.32999996095896","","image-keyboard-response","102","2320143","0.0-13.0-2.12","l","COGS219_2020_07","Images/rooster_1.png","76","1","1581468436560","match","rooster","rooster","sound","test","true"
"null","","audio-keyboard-response","103","2322160","0.0-13.0-3.12","l","COGS219_2020_07","Sounds/correct.wav","null","1","","","","","","",""
"null","","audio-keyboard-response","104","2323062","0.0-13.0-0.13","l","COGS219_2020_07","Sounds/frog_sound.wav","null","1","","","","","","",""
"null","","html-keyboard-response","105","2324057","0.0-13.0-1.13","l","COGS219_2020_07","<p style=""font-size: 48px;"">+</p>","null","1","","","","","","",""
"405.48499999567866","","image-keyboard-response","106","2324463","0.0-13.0-2.13","l","COGS219_2020_07","Images/frog_2.png","76","1","1581468440861","match","frog","frog","sound","test","true"
"null","","audio-keyboard-response","107","2326475","0.0-13.0-3.13","l","COGS219_2020_07","Sounds/correct.wav","null","1","","","","","","",""
"null","","audio-keyboard-response","108","2327782","0.0-13.0-0.14","l","COGS219_2020_07","Sounds/train_sound.wav","null","1","","","","","","",""
"null","","html-keyboard-response","109","2328773","0.0-13.0-1.14","l","COGS219_2020_07","<p style=""font-size: 48px;"">+</p>","null","1","","","","","","",""
"632.9000000841916","","image-keyboard-response","110","2329407","0.0-13.0-2.14","l","COGS219_2020_07","Images/rooster_1.png","65","1","1581468445578","non-match","rooster","train","sound","test","true"
"null","","audio-keyboard-response","111","2331425","0.0-13.0-3.14","l","COGS219_2020_07","Sounds/correct.wav","null","1","","","","","","",""
"null","","audio-keyboard-response","112","2332322","0.0-13.0-0.15","l","COGS219_2020_07","Sounds/frog_sound.wav","null","1","","","","","","",""
"null","","html-keyboard-response","113","2333340","0.0-13.0-1.15","l","COGS219_2020_07","<p style=""font-size: 48px;"">+</p>","null","1","","","","","","",""
"385.92999998945743","","image-keyboard-response","114","2333727","0.0-13.0-2.15","l","COGS219_2020_07","Images/frog_cartoon.png","76","1","1581468450144","match","frog","frog","sound","test","true"
"null","","audio-keyboard-response","115","2335741","0.0-13.0-3.15","l","COGS219_2020_07","Sounds/correct.wav","null","1","","","","","","",""
"null","","audio-keyboard-response","116","2336582","0.0-13.0-0.16","l","COGS219_2020_07","Sounds/cat_sound.wav","null","1","","","","","","",""
"null","","html-keyboard-response","117","2337574","0.0-13.0-1.16","l","COGS219_2020_07","<p style=""font-size: 48px;"">+</p>","null","1","","","","","","",""
"456.19499997701496","","image-keyboard-response","118","2338031","0.0-13.0-2.16","l","COGS219_2020_07","Images/motorcycle_2.png","65","1","1581468454377","non-match","motorcycle","cat","sound","test","true"
"null","","audio-keyboard-response","119","2340037","0.0-13.0-3.16","l","COGS219_2020_07","Sounds/correct.wav","null","1","","","","","","",""
"null","","audio-keyboard-response","120","2340702","0.0-13.0-0.17","l","COGS219_2020_07","Sounds/dog_label.wav","null","1","","","","","","",""
"null","","html-keyboard-response","121","2341690","0.0-13.0-1.17","l","COGS219_2020_07","<p style=""font-size: 48px;"">+</p>","null","1","","","","","","",""
"499.9499999685213","","image-keyboard-response","122","2342191","0.0-13.0-2.17","l","COGS219_2020_07","Images/motorcycle_3.png","65","1","1581468458494","non-match","motorcycle","dog","label","test","true"
"null","","audio-keyboard-response","123","2344201","0.0-13.0-3.17","l","COGS219_2020_07","Sounds/correct.wav","null","1","","","","","","",""
"null","","audio-keyboard-response","124","2345102","0.0-13.0-0.18","l","COGS219_2020_07","Sounds/frog_label.wav","null","1","","","","","","",""
"null","","html-keyboard-response","125","2346090","0.0-13.0-1.18","l","COGS219_2020_07","<p style=""font-size: 48px;"">+</p>","null","1","","","","","","",""
"435.8400000492111","","image-keyboard-response","126","2346527","0.0-13.0-2.18","l","COGS219_2020_07","Images/gun_3.png","65","1","1581468462895","non-match","gun","frog","label","test","true"
"null","","audio-keyboard-response","127","2348540","0.0-13.0-3.18","l","COGS219_2020_07","Sounds/correct.wav","null","1","","","","","","",""
"null","","audio-keyboard-response","128","2349242","0.0-13.0-0.19","l","COGS219_2020_07","Sounds/rooster_sound.wav","null","1","","","","","","",""
"null","","html-keyboard-response","129","2350240","0.0-13.0-1.19","l","COGS219_2020_07","<p style=""font-size: 48px;"">+</p>","null","1","","","","","","",""
"621.8700000317767","","image-keyboard-response","130","2350863","0.0-13.0-2.19","l","COGS219_2020_07","Images/whistle_2.png","65","1","1581468467044","non-match","whistle","rooster","sound","test","true"
"null","","audio-keyboard-response","131","2352875","0.0-13.0-3.19","l","COGS219_2020_07","Sounds/correct.wav","null","1","","","","","","",""
"null","","audio-keyboard-response","132","2353702","0.0-13.0-0.20","l","COGS219_2020_07","Sounds/cat_label.wav","null","1","","","","","","",""
"null","","html-keyboard-response","133","2354707","0.0-13.0-1.20","l","COGS219_2020_07","<p style=""font-size: 48px;"">+</p>","null","1","","","","","","",""
"667.1249999199063","","image-keyboard-response","134","2355375","0.0-13.0-2.20","l","COGS219_2020_07","Images/cat_orig.png","76","1","1581468471511","match","cat","cat","label","test","true"
"null","","audio-keyboard-response","135","2357379","0.0-13.0-3.20","l","COGS219_2020_07","Sounds/correct.wav","null","1","","","","","","",""
"null","","audio-keyboard-response","136","2358682","0.0-13.0-0.21","l","COGS219_2020_07","Sounds/train_sound.wav","null","1","","","","","","",""
"null","","html-keyboard-response","137","2359674","0.0-13.0-1.21","l","COGS219_2020_07","<p style=""font-size: 48px;"">+</p>","null","1","","","","","","",""
"564.3400000408292","","image-keyboard-response","138","2360239","0.0-13.0-2.21","l","COGS219_2020_07","Images/train_cartoon.png","76","1","1581468476478","match","train","train","sound","test","true"
"null","","audio-keyboard-response","139","2362247","0.0-13.0-3.21","l","COGS219_2020_07","Sounds/correct.wav","null","1","","","","","","",""
"null","","audio-keyboard-response","140","2363142","0.0-13.0-0.22","l","COGS219_2020_07","Sounds/frog_label.wav","null","1","","","","","","",""
"null","","html-keyboard-response","141","2364140","0.0-13.0-1.22","l","COGS219_2020_07","<p style=""font-size: 48px;"">+</p>","null","1","","","","","","",""
"609.7250001039356","","image-keyboard-response","142","2364751","0.0-13.0-2.22","l","COGS219_2020_07","Images/frog_3.png","76","1","1581468480945","match","frog","frog","label","test","true"
"null","","audio-keyboard-response","143","2366761","0.0-13.0-3.22","l","COGS219_2020_07","Sounds/correct.wav","null","1","","","","","","",""
"null","","audio-keyboard-response","144","2367902","0.0-13.0-0.23","l","COGS219_2020_07","Sounds/motorcycle_label.wav","null","1","","","","","","",""
"null","","html-keyboard-response","145","2368907","0.0-13.0-1.23","l","COGS219_2020_07","<p style=""font-size: 48px;"">+</p>","null","1","","","","","","",""
"386.8800000054762","","image-keyboard-response","146","2369295","0.0-13.0-2.23","l","COGS219_2020_07","Images/motorcycle_orig.png","76","1","1581468485711","match","motorcycle","motorcycle","label","test","true"
"null","","audio-keyboard-response","147","2371309","0.0-13.0-3.23","l","COGS219_2020_07","Sounds/correct.wav","null","1","","","","","","",""
"null","","audio-keyboard-response","148","2372002","0.0-13.0-0.24","l","COGS219_2020_07","Sounds/rooster_sound.wav","null","1","","","","","","",""
"null","","html-keyboard-response","149","2372990","0.0-13.0-1.24","l","COGS219_2020_07","<p style=""font-size: 48px;"">+</p>","null","1","","","","","","",""
"893.999999971129","","image-keyboard-response","150","2373887","0.0-13.0-2.24","l","COGS219_2020_07","Images/rooster_3.png","76","1","1581468489795","match","rooster","rooster","sound","test","true"
"null","","audio-keyboard-response","151","2375890","0.0-13.0-3.24","l","COGS219_2020_07","Sounds/correct.wav","null","1","","","","","","",""
"null","","audio-keyboard-response","152","2376902","0.0-13.0-0.25","l","COGS219_2020_07","Sounds/cow_sound.wav","null","1","","","","","","",""
"null","","html-keyboard-response","153","2377907","0.0-13.0-1.25","l","COGS219_2020_07","<p style=""font-size: 48px;"">+</p>","null","1","","","","","","",""
"362.5200000824407","","image-keyboard-response","154","2378271","0.0-13.0-2.25","l","COGS219_2020_07","Images/cow_1.png","76","1","1581468494711","match","cow","cow","sound","test","true"
"null","","audio-keyboard-response","155","2380278","0.0-13.0-3.25","l","COGS219_2020_07","Sounds/correct.wav","null","1","","","","","","",""
"null","","audio-keyboard-response","156","2381362","0.0-13.0-0.26","l","COGS219_2020_07","Sounds/car_label.wav","null","1","","","","","","",""
"null","","html-keyboard-response","157","2382357","0.0-13.0-1.26","l","COGS219_2020_07","<p style=""font-size: 48px;"">+</p>","null","1","","","","","","",""
"488.8749999227002","","image-keyboard-response","158","2382847","0.0-13.0-2.26","l","COGS219_2020_07","Images/cat_orig.png","65","1","1581468499162","non-match","cat","car","label","test","true"
"null","","audio-keyboard-response","159","2384852","0.0-13.0-3.26","l","COGS219_2020_07","Sounds/correct.wav","null","1","","","","","","",""
"null","","audio-keyboard-response","160","2385542","0.0-13.0-0.27","l","COGS219_2020_07","Sounds/rooster_label.wav","null","1","","","","","","",""
"null","","html-keyboard-response","161","2386540","0.0-13.0-1.27","l","COGS219_2020_07","<p style=""font-size: 48px;"">+</p>","null","1","","","","","","",""
"433.30000003334135","","image-keyboard-response","162","2386975","0.0-13.0-2.27","l","COGS219_2020_07","Images/rooster_orig.png","76","1","1581468503345","match","rooster","rooster","label","test","true"
"null","","audio-keyboard-response","163","2388990","0.0-13.0-3.27","l","COGS219_2020_07","Sounds/correct.wav","null","1","","","","","","",""
"null","","audio-keyboard-response","164","2389882","0.0-13.0-0.28","l","COGS219_2020_07","Sounds/frog_label.wav","null","1","","","","","","",""
"null","","html-keyboard-response","165","2390874","0.0-13.0-1.28","l","COGS219_2020_07","<p style=""font-size: 48px;"">+</p>","null","1","","","","","","",""
"531.7250000080094","","image-keyboard-response","166","2391407","0.0-13.0-2.28","l","COGS219_2020_07","Images/rooster_2.png","65","1","1581468507678","non-match","rooster","frog","label","test","true"
"null","","audio-keyboard-response","167","2393415","0.0-13.0-3.28","l","COGS219_2020_07","Sounds/correct.wav","null","1","","","","","","",""
"null","","audio-keyboard-response","168","2394082","0.0-13.0-0.29","l","COGS219_2020_07","Sounds/dog_label.wav","null","1","","","","","","",""
"null","","html-keyboard-response","169","2395074","0.0-13.0-1.29","l","COGS219_2020_07","<p style=""font-size: 48px;"">+</p>","null","1","","","","","","",""
"412.03000000678","","image-keyboard-response","170","2395487","0.0-13.0-2.29","l","COGS219_2020_07","Images/dog_1.png","76","1","1581468511878","match","dog","dog","label","test","true"
"null","","audio-keyboard-response","171","2397494","0.0-13.0-3.29","l","COGS219_2020_07","Sounds/correct.wav","null","1","","","","","","",""
"null","","audio-keyboard-response","172","2398162","0.0-13.0-0.30","l","COGS219_2020_07","Sounds/rooster_label.wav","null","1","","","","","","",""
"null","","html-keyboard-response","173","2399157","0.0-13.0-1.30","l","COGS219_2020_07","<p style=""font-size: 48px;"">+</p>","null","1","","","","","","",""
"472.66499989200383","","image-keyboard-response","174","2399631","0.0-13.0-2.30","l","COGS219_2020_07","Images/dog_orig.png","65","1","1581468515961","non-match","dog","rooster","label","test","true"
"null","","audio-keyboard-response","175","2401644","0.0-13.0-3.30","l","COGS219_2020_07","Sounds/correct.wav","null","1","","","","","","",""
"null","","audio-keyboard-response","176","2402222","0.0-13.0-0.31","l","COGS219_2020_07","Sounds/gun_sound.wav","null","1","","","","","","",""
"null","","html-keyboard-response","177","2403224","0.0-13.0-1.31","l","COGS219_2020_07","<p style=""font-size: 48px;"">+</p>","null","1","","","","","","",""
"405.9400000842288","","image-keyboard-response","178","2403631","0.0-13.0-2.31","l","COGS219_2020_07","Images/gun_3.png","76","1","1581468520028","match","gun","gun","sound","test","true"
"null","","audio-keyboard-response","179","2405642","0.0-13.0-3.31","l","COGS219_2020_07","Sounds/correct.wav","null","1","","","","","","",""
"null","","audio-keyboard-response","180","2406922","0.0-13.0-0.32","l","COGS219_2020_07","Sounds/train_label.wav","null","1","","","","","","",""
"null","","html-keyboard-response","181","2407924","0.0-13.0-1.32","l","COGS219_2020_07","<p style=""font-size: 48px;"">+</p>","null","1","","","","","","",""
"554.1100000264123","","image-keyboard-response","182","2408479","0.0-13.0-2.32","l","COGS219_2020_07","Images/whistle_cartoon.png","65","1","1581468524728","non-match","whistle","train","label","test","true"
"null","","audio-keyboard-response","183","2410497","0.0-13.0-3.32","l","COGS219_2020_07","Sounds/correct.wav","null","1","","","","","","",""
"null","","audio-keyboard-response","184","2411582","0.0-13.0-0.33","l","COGS219_2020_07","Sounds/car_sound.wav","null","1","","","","","","",""
"null","","html-keyboard-response","185","2412574","0.0-13.0-1.33","l","COGS219_2020_07","<p style=""font-size: 48px;"">+</p>","null","1","","","","","","",""
"447.6400000276044","","image-keyboard-response","186","2413023","0.0-13.0-2.33","l","COGS219_2020_07","Images/gun_orig.png","65","1","1581468529378","non-match","gun","car","sound","test","true"
"null","","audio-keyboard-response","187","2415038","0.0-13.0-3.33","l","COGS219_2020_07","Sounds/correct.wav","null","1","","","","","","",""
"null","","audio-keyboard-response","188","2416182","0.0-13.0-0.34","l","COGS219_2020_07","Sounds/motorcycle_label.wav","null","1","","","","","","",""
"null","","html-keyboard-response","189","2417174","0.0-13.0-1.34","l","COGS219_2020_07","<p style=""font-size: 48px;"">+</p>","null","1","","","","","","",""
"471.69999999459833","","image-keyboard-response","190","2417647","0.0-13.0-2.34","l","COGS219_2020_07","Images/motorcycle_3.png","76","1","1581468533978","match","motorcycle","motorcycle","label","test","true"
"null","","audio-keyboard-response","191","2419654","0.0-13.0-3.34","l","COGS219_2020_07","Sounds/correct.wav","null","1","","","","","","",""
"null","","audio-keyboard-response","192","2420662","0.0-13.0-0.35","l","COGS219_2020_07","Sounds/cow_sound.wav","null","1","","","","","","",""
"null","","html-keyboard-response","193","2421657","0.0-13.0-1.35","l","COGS219_2020_07","<p style=""font-size: 48px;"">+</p>","null","1","","","","","","",""
"740.4699999606237","","image-keyboard-response","194","2422399","0.0-13.0-2.35","l","COGS219_2020_07","Images/cow_cartoon.png","76","1","1581468538461","match","cow","cow","sound","test","true"
"null","","audio-keyboard-response","195","2424416","0.0-13.0-3.35","l","COGS219_2020_07","Sounds/correct.wav","null","1","","","","","","",""
"null","","audio-keyboard-response","196","2425402","0.0-13.0-0.36","l","COGS219_2020_07","Sounds/cow_sound.wav","null","1","","","","","","",""
"null","","html-keyboard-response","197","2426407","0.0-13.0-1.36","l","COGS219_2020_07","<p style=""font-size: 48px;"">+</p>","null","1","","","","","","",""
"518.1899999734014","","image-keyboard-response","198","2426927","0.0-13.0-2.36","l","COGS219_2020_07","Images/cat_2.png","65","1","1581468543212","non-match","cat","cow","sound","test","true"
"null","","audio-keyboard-response","199","2428933","0.0-13.0-3.36","l","COGS219_2020_07","Sounds/correct.wav","null","1","","","","","","",""
"null","","audio-keyboard-response","200","2430002","0.0-13.0-0.37","l","COGS219_2020_07","Sounds/car_sound.wav","null","1","","","","","","",""
"null","","html-keyboard-response","201","2431008","0.0-13.0-1.37","l","COGS219_2020_07","<p style=""font-size: 48px;"">+</p>","null","1","","","","","","",""
"574.1249999264255","","image-keyboard-response","202","2431583","0.0-13.0-2.37","l","COGS219_2020_07","Images/car_cartoon.png","65","1","1581468547812","match","car","car","sound","test","false"
"null","","audio-keyboard-response","203","2433595","0.0-13.0-3.37","l","COGS219_2020_07","Sounds/incorrect.wav","null","1","","","","","","",""
"null","","audio-keyboard-response","204","2434262","0.0-13.0-0.38","l","COGS219_2020_07","Sounds/dog_label.wav","null","1","","","","","","",""
"null","","html-keyboard-response","205","2435257","0.0-13.0-1.38","l","COGS219_2020_07","<p style=""font-size: 48px;"">+</p>","null","1","","","","","","",""
"580.3900000173599","","image-keyboard-response","206","2435839","0.0-13.0-2.38","l","COGS219_2020_07","Images/rooster_cartoon.png","65","1","1581468552062","non-match","rooster","dog","label","test","true"
"null","","audio-keyboard-response","207","2437846","0.0-13.0-3.38","l","COGS219_2020_07","Sounds/correct.wav","null","1","","","","","","",""
"null","","audio-keyboard-response","208","2438542","0.0-13.0-0.39","l","COGS219_2020_07","Sounds/whistle_sound.wav","null","1","","","","","","",""
"null","","html-keyboard-response","209","2439541","0.0-13.0-1.39","l","COGS219_2020_07","<p style=""font-size: 48px;"">+</p>","null","1","","","","","","",""
"840.749999973923","","image-keyboard-response","210","2440383","0.0-13.0-2.39","l","COGS219_2020_07","Images/train_3.png","76","1","1581468556345","non-match","train","whistle","sound","test","false"
"null","","audio-keyboard-response","211","2442393","0.0-13.0-3.39","l","COGS219_2020_07","Sounds/incorrect.wav","null","1","","","","","","",""
"null","","audio-keyboard-response","212","2443102","0.0-13.0-0.40","l","COGS219_2020_07","Sounds/rooster_label.wav","null","1","","","","","","",""
"null","","html-keyboard-response","213","2444091","0.0-13.0-1.40","l","COGS219_2020_07","<p style=""font-size: 48px;"">+</p>","null","1","","","","","","",""
"450.51500003319234","","image-keyboard-response","214","2444543","0.0-13.0-2.40","l","COGS219_2020_07","Images/rooster_2.png","76","1","1581468560895","match","rooster","rooster","label","test","true"
"null","","audio-keyboard-response","215","2446556","0.0-13.0-3.40","l","COGS219_2020_07","Sounds/correct.wav","null","1","","","","","","",""
"null","","audio-keyboard-response","216","2447402","0.0-13.0-0.41","l","COGS219_2020_07","Sounds/cat_label.wav","null","1","","","","","","",""
"null","","html-keyboard-response","217","2448391","0.0-13.0-1.41","l","COGS219_2020_07","<p style=""font-size: 48px;"">+</p>","null","1","","","","","","",""
"438.8749999925494","","image-keyboard-response","218","2448831","0.0-13.0-2.41","l","COGS219_2020_07","Images/cat_1.png","76","1","1581468565195","match","cat","cat","label","test","true"
"null","","audio-keyboard-response","219","2450845","0.0-13.0-3.41","l","COGS219_2020_07","Sounds/correct.wav","null","1","","","","","","",""
"null","","audio-keyboard-response","220","2451562","0.0-13.0-0.42","l","COGS219_2020_07","Sounds/dog_sound.wav","null","1","","","","","","",""
"null","","html-keyboard-response","221","2452558","0.0-13.0-1.42","l","COGS219_2020_07","<p style=""font-size: 48px;"">+</p>","null","1","","","","","","",""
"464.05499998945743","","image-keyboard-response","222","2453023","0.0-13.0-2.42","l","COGS219_2020_07","Images/dog_2.png","76","1","1581468569362","match","dog","dog","sound","test","true"
"null","","audio-keyboard-response","223","2455037","0.0-13.0-3.42","l","COGS219_2020_07","Sounds/correct.wav","null","1","","","","","","",""
"null","","audio-keyboard-response","224","2456322","0.0-13.0-0.43","l","COGS219_2020_07","Sounds/train_label.wav","null","1","","","","","","",""
"null","","html-keyboard-response","225","2457324","0.0-13.0-1.43","l","COGS219_2020_07","<p style=""font-size: 48px;"">+</p>","null","1","","","","","","",""
"481.20499996002764","","image-keyboard-response","226","2457807","0.0-13.0-2.43","l","COGS219_2020_07","Images/train_3.png","76","1","1581468574129","match","train","train","label","test","true"
"null","","audio-keyboard-response","227","2459820","0.0-13.0-3.43","l","COGS219_2020_07","Sounds/correct.wav","null","1","","","","","","",""
"null","","audio-keyboard-response","228","2460482","0.0-13.0-0.44","l","COGS219_2020_07","Sounds/dog_label.wav","null","1","","","","","","",""
"null","","html-keyboard-response","229","2461475","0.0-13.0-1.44","l","COGS219_2020_07","<p style=""font-size: 48px;"">+</p>","null","1","","","","","","",""
"603.4450000151992","","image-keyboard-response","230","2462079","0.0-13.0-2.44","l","COGS219_2020_07","Images/frog_cartoon.png","65","1","1581468578279","non-match","frog","dog","label","test","true"
"null","","audio-keyboard-response","231","2464095","0.0-13.0-3.44","l","COGS219_2020_07","Sounds/correct.wav","null","1","","","","","","",""
"null","","audio-keyboard-response","232","2464682","0.0-13.0-0.45","l","COGS219_2020_07","Sounds/gun_label.wav","null","1","","","","","","",""
"null","","html-keyboard-response","233","2465675","0.0-13.0-1.45","l","COGS219_2020_07","<p style=""font-size: 48px;"">+</p>","null","1","","","","","","",""
"675.1699999440461","","image-keyboard-response","234","2466351","0.0-13.0-2.45","l","COGS219_2020_07","Images/gun_2.png","76","1","1581468582479","match","gun","gun","label","test","true"
"null","","audio-keyboard-response","235","2468355","0.0-13.0-3.45","l","COGS219_2020_07","Sounds/correct.wav","null","1","","","","","","",""
"null","","audio-keyboard-response","236","2468902","0.0-13.0-0.46","l","COGS219_2020_07","Sounds/gun_label.wav","null","1","","","","","","",""
"null","","html-keyboard-response","237","2469891","0.0-13.0-1.46","l","COGS219_2020_07","<p style=""font-size: 48px;"">+</p>","null","1","","","","","","",""
"458.50499998778105","","image-keyboard-response","238","2470351","0.0-13.0-2.46","l","COGS219_2020_07","Images/gun_1.png","76","1","1581468586695","match","gun","gun","label","test","true"
"null","","audio-keyboard-response","239","2472358","0.0-13.0-3.46","l","COGS219_2020_07","Sounds/correct.wav","null","1","","","","","","",""
"null","","audio-keyboard-response","240","2473482","0.0-13.0-0.47","l","COGS219_2020_07","Sounds/motorcycle_sound.wav","null","1","","","","","","",""
"null","","html-keyboard-response","241","2474475","0.0-13.0-1.47","l","COGS219_2020_07","<p style=""font-size: 48px;"">+</p>","null","1","","","","","","",""
"563.4999999310821","","image-keyboard-response","242","2475039","0.0-13.0-2.47","l","COGS219_2020_07","Images/motorcycle_2.png","76","1","1581468591279","match","motorcycle","motorcycle","sound","test","true"
"null","","audio-keyboard-response","243","2477048","0.0-13.0-3.47","l","COGS219_2020_07","Sounds/correct.wav","null","1","","","","","","",""
"null","","audio-keyboard-response","244","2477742","0.0-13.0-0.48","l","COGS219_2020_07","Sounds/whistle_sound.wav","null","1","","","","","","",""
"null","","html-keyboard-response","245","2478741","0.0-13.0-1.48","l","COGS219_2020_07","<p style=""font-size: 48px;"">+</p>","null","1","","","","","","",""
"440.3799999272451","","image-keyboard-response","246","2479183","0.0-13.0-2.48","l","COGS219_2020_07","Images/whistle_2.png","76","1","1581468595545","match","whistle","whistle","sound","test","true"
"null","","audio-keyboard-response","247","2481195","0.0-13.0-3.48","l","COGS219_2020_07","Sounds/correct.wav","null","1","","","","","","",""
"null","","audio-keyboard-response","248","2482082","0.0-13.0-0.49","l","COGS219_2020_07","Sounds/frog_label.wav","null","1","","","","","","",""
"null","","html-keyboard-response","249","2483075","0.0-13.0-1.49","l","COGS219_2020_07","<p style=""font-size: 48px;"">+</p>","null","1","","","","","","",""
"555.1549999509007","","image-keyboard-response","250","2483631","0.0-13.0-2.49","l","COGS219_2020_07","Images/cat_1.png","65","1","1581468599879","non-match","cat","frog","label","test","true"
"null","","audio-keyboard-response","251","2485634","0.0-13.0-3.49","l","COGS219_2020_07","Sounds/correct.wav","null","1","","","","","","",""
"null","","audio-keyboard-response","252","2486722","0.0-13.0-0.50","l","COGS219_2020_07","Sounds/motorcycle_sound.wav","null","1","","","","","","",""
"null","","html-keyboard-response","253","2487725","0.0-13.0-1.50","l","COGS219_2020_07","<p style=""font-size: 48px;"">+</p>","null","1","","","","","","",""
"673.3050000621006","","image-keyboard-response","254","2488399","0.0-13.0-2.50","l","COGS219_2020_07","Images/train_cartoon.png","65","1","1581468604529","non-match","train","motorcycle","sound","test","true"
"null","","audio-keyboard-response","255","2490407","0.0-13.0-3.50","l","COGS219_2020_07","Sounds/correct.wav","null","1","","","","","","",""
"null","","audio-keyboard-response","256","2491682","0.0-13.0-0.51","l","COGS219_2020_07","Sounds/train_label.wav","null","1","","","","","","",""
"null","","html-keyboard-response","257","2492675","0.0-13.0-1.51","l","COGS219_2020_07","<p style=""font-size: 48px;"">+</p>","null","1","","","","","","",""
"474.72499997820705","","image-keyboard-response","258","2493151","0.0-13.0-2.51","l","COGS219_2020_07","Images/train_1.png","76","1","1581468609479","match","train","train","label","test","true"
"null","","audio-keyboard-response","259","2495154","0.0-13.0-3.51","l","COGS219_2020_07","Sounds/correct.wav","null","1","","","","","","",""
"null","","audio-keyboard-response","260","2495842","0.0-13.0-0.52","l","COGS219_2020_07","Sounds/whistle_sound.wav","null","1","","","","","","",""
"null","","html-keyboard-response","261","2496842","0.0-13.0-1.52","l","COGS219_2020_07","<p style=""font-size: 48px;"">+</p>","null","1","","","","","","",""
"628.1850000377744","","image-keyboard-response","262","2497471","0.0-13.0-2.52","l","COGS219_2020_07","Images/whistle_1.png","76","1","1581468613646","match","whistle","whistle","sound","test","true"
"null","","audio-keyboard-response","263","2499480","0.0-13.0-3.52","l","COGS219_2020_07","Sounds/correct.wav","null","1","","","","","","",""
"null","","audio-keyboard-response","264","2500502","0.0-13.0-0.53","l","COGS219_2020_07","Sounds/cow_sound.wav","null","1","","","","","","",""
"null","","html-keyboard-response","265","2501492","0.0-13.0-1.53","l","COGS219_2020_07","<p style=""font-size: 48px;"">+</p>","null","1","","","","","","",""
"570.4050000058487","","image-keyboard-response","266","2502063","0.0-13.0-2.53","l","COGS219_2020_07","Images/car_cartoon.png","65","1","1581468618296","non-match","car","cow","sound","test","true"
"null","","audio-keyboard-response","267","2504068","0.0-13.0-3.53","l","COGS219_2020_07","Sounds/correct.wav","null","1","","","","","","",""
"null","","audio-keyboard-response","268","2505142","0.0-13.0-0.54","l","COGS219_2020_07","Sounds/car_label.wav","null","1","","","","","","",""
"null","","html-keyboard-response","269","2506142","0.0-13.0-1.54","l","COGS219_2020_07","<p style=""font-size: 48px;"">+</p>","null","1","","","","","","",""
"432.3350000195205","","image-keyboard-response","270","2506575","0.0-13.0-2.54","l","COGS219_2020_07","Images/car_3.png","76","1","1581468622946","match","car","car","label","test","true"
"null","","audio-keyboard-response","271","2508590","0.0-13.0-3.54","l","COGS219_2020_07","Sounds/correct.wav","null","1","","","","","","",""
"null","","audio-keyboard-response","272","2509262","0.0-13.0-0.55","l","COGS219_2020_07","Sounds/whistle_sound.wav","null","1","","","","","","",""
"null","","html-keyboard-response","273","2510258","0.0-13.0-1.55","l","COGS219_2020_07","<p style=""font-size: 48px;"">+</p>","null","1","","","","","","",""
"667.2799999359995","","image-keyboard-response","274","2510927","0.0-13.0-2.55","l","COGS219_2020_07","Images/whistle_orig.png","76","1","1581468627063","match","whistle","whistle","sound","test","true"
"null","","audio-keyboard-response","275","2512939","0.0-13.0-3.55","l","COGS219_2020_07","Sounds/correct.wav","null","1","","","","","","",""
"null","","audio-keyboard-response","276","2514082","0.0-13.0-0.56","l","COGS219_2020_07","Sounds/motorcycle_label.wav","null","1","","","","","","",""
"null","","html-keyboard-response","277","2515075","0.0-13.0-1.56","l","COGS219_2020_07","<p style=""font-size: 48px;"">+</p>","null","1","","","","","","",""
"490.8300000242889","","image-keyboard-response","278","2515567","0.0-13.0-2.56","l","COGS219_2020_07","Images/motorcycle_cartoon.png","76","1","1581468631879","match","motorcycle","motorcycle","label","test","true"
"null","","audio-keyboard-response","279","2517571","0.0-13.0-3.56","l","COGS219_2020_07","Sounds/correct.wav","null","1","","","","","","",""
"null","","audio-keyboard-response","280","2518582","0.0-13.0-0.57","l","COGS219_2020_07","Sounds/cow_label.wav","null","1","","","","","","",""
"null","","html-keyboard-response","281","2519575","0.0-13.0-1.57","l","COGS219_2020_07","<p style=""font-size: 48px;"">+</p>","null","1","","","","","","",""
"486.6349999792874","","image-keyboard-response","282","2520063","0.0-13.0-2.57","l","COGS219_2020_07","Images/gun_1.png","65","1","1581468636379","non-match","gun","cow","label","test","true"
"null","","audio-keyboard-response","283","2522070","0.0-13.0-3.57","l","COGS219_2020_07","Sounds/correct.wav","null","1","","","","","","",""
"null","","audio-keyboard-response","284","2522782","0.0-13.0-0.58","l","COGS219_2020_07","Sounds/dog_sound.wav","null","1","","","","","","",""
"null","","html-keyboard-response","285","2523775","0.0-13.0-1.58","l","COGS219_2020_07","<p style=""font-size: 48px;"">+</p>","null","1","","","","","","",""
"398.47499993629754","","image-keyboard-response","286","2524175","0.0-13.0-2.58","l","COGS219_2020_07","Images/dog_cartoon.png","76","1","1581468640579","match","dog","dog","sound","test","true"
"null","","audio-keyboard-response","287","2526179","0.0-13.0-3.58","l","COGS219_2020_07","Sounds/correct.wav","null","1","","","","","","",""
"null","","audio-keyboard-response","288","2527242","0.0-13.0-0.59","l","COGS219_2020_07","Sounds/car_label.wav","null","1","","","","","","",""
"null","","html-keyboard-response","289","2528242","0.0-13.0-1.59","l","COGS219_2020_07","<p style=""font-size: 48px;"">+</p>","null","1","","","","","","",""
"556.0250000562519","","image-keyboard-response","290","2528799","0.0-13.0-2.59","l","COGS219_2020_07","Images/frog_3.png","65","1","1581468645046","non-match","frog","car","label","test","true"
"null","","audio-keyboard-response","291","2530815","0.0-13.0-3.59","l","COGS219_2020_07","Sounds/correct.wav","null","1","","","","","","",""
"null","","audio-keyboard-response","292","2531502","0.0-13.0-0.60","l","COGS219_2020_07","Sounds/dog_sound.wav","null","1","","","","","","",""
"null","","html-keyboard-response","293","2532492","0.0-13.0-1.60","l","COGS219_2020_07","<p style=""font-size: 48px;"">+</p>","null","1","","","","","","",""
"641.7249999940395","","image-keyboard-response","294","2533135","0.0-13.0-2.60","l","COGS219_2020_07","Images/dog_3.png","76","1","1581468649296","match","dog","dog","sound","test","true"
"null","","audio-keyboard-response","295","2535146","0.0-13.0-3.60","l","COGS219_2020_07","Sounds/correct.wav","null","1","","","","","","",""
"null","","audio-keyboard-response","296","2536142","0.0-13.0-0.61","l","COGS219_2020_07","Sounds/cow_label.wav","null","1","","","","","","",""
"null","","html-keyboard-response","297","2537142","0.0-13.0-1.61","l","COGS219_2020_07","<p style=""font-size: 48px;"">+</p>","null","1","","","","","","",""
"455.4850000422448","","image-keyboard-response","298","2537599","0.0-13.0-2.61","l","COGS219_2020_07","Images/cow_orig.png","76","1","1581468653946","match","cow","cow","label","test","true"
"null","","audio-keyboard-response","299","2539606","0.0-13.0-3.61","l","COGS219_2020_07","Sounds/correct.wav","null","1","","","","","","",""
"null","","audio-keyboard-response","300","2540182","0.0-13.0-0.62","l","COGS219_2020_07","Sounds/gun_sound.wav","null","1","","","","","","",""
"null","","html-keyboard-response","301","2541175","0.0-13.0-1.62","l","COGS219_2020_07","<p style=""font-size: 48px;"">+</p>","null","1","","","","","","",""
"374.5549999875948","","image-keyboard-response","302","2541551","0.0-13.0-2.62","l","COGS219_2020_07","Images/motorcycle_cartoon.png","65","1","1581468657980","non-match","motorcycle","gun","sound","test","true"
"null","","audio-keyboard-response","303","2543563","0.0-13.0-3.62","l","COGS219_2020_07","Sounds/correct.wav","null","1","","","","","","",""
"null","","audio-keyboard-response","304","2544402","0.0-13.0-0.63","l","COGS219_2020_07","Sounds/cat_sound.wav","null","1","","","","","","",""
"null","","html-keyboard-response","305","2545392","0.0-13.0-1.63","l","COGS219_2020_07","<p style=""font-size: 48px;"">+</p>","null","1","","","","","","",""
"365.5600000638515","","image-keyboard-response","306","2545759","0.0-13.0-2.63","l","COGS219_2020_07","Images/cat_2.png","76","1","1581468662196","match","cat","cat","sound","test","true"
"null","","audio-keyboard-response","307","2547764","0.0-13.0-3.63","l","COGS219_2020_07","Sounds/correct.wav","null","1","","","","","","",""
"null","","audio-keyboard-response","308","2548462","0.0-13.0-0.64","l","COGS219_2020_07","Sounds/rooster_sound.wav","null","1","","","","","","",""
"null","","html-keyboard-response","309","2549459","0.0-13.0-1.64","l","COGS219_2020_07","<p style=""font-size: 48px;"">+</p>","null","1","","","","","","",""
"506.82999996934086","","image-keyboard-response","310","2549967","0.0-13.0-2.64","l","COGS219_2020_07","Images/cat_cartoon.png","65","1","1581468666263","non-match","cat","rooster","sound","test","true"
"null","","audio-keyboard-response","311","2551985","0.0-13.0-3.64","l","COGS219_2020_07","Sounds/correct.wav","null","1","","","","","","",""
"null","","audio-keyboard-response","312","2552642","0.0-13.0-0.65","l","COGS219_2020_07","Sounds/dog_label.wav","null","1","","","","","","",""
"null","","html-keyboard-response","313","2553642","0.0-13.0-1.65","l","COGS219_2020_07","<p style=""font-size: 48px;"">+</p>","null","1","","","","","","",""
"467.7849999861792","","image-keyboard-response","314","2554111","0.0-13.0-2.65","l","COGS219_2020_07","Images/car_orig.png","65","1","1581468670446","non-match","car","dog","label","test","true"
"null","","audio-keyboard-response","315","2556121","0.0-13.0-3.65","l","COGS219_2020_07","Sounds/correct.wav","null","1","","","","","","",""
"null","","audio-keyboard-response","316","2557242","0.0-13.0-0.66","l","COGS219_2020_07","Sounds/motorcycle_sound.wav","null","1","","","","","","",""
"null","","html-keyboard-response","317","2558242","0.0-13.0-1.66","l","COGS219_2020_07","<p style=""font-size: 48px;"">+</p>","null","1","","","","","","",""
"411.58000007271767","","image-keyboard-response","318","2558655","0.0-13.0-2.66","l","COGS219_2020_07","Images/dog_2.png","65","1","1581468675046","non-match","dog","motorcycle","sound","test","true"
"null","","audio-keyboard-response","319","2560664","0.0-13.0-3.66","l","COGS219_2020_07","Sounds/correct.wav","null","1","","","","","","",""
"null","","audio-keyboard-response","320","2561962","0.0-13.0-0.67","l","COGS219_2020_07","Sounds/train_sound.wav","null","1","","","","","","",""
"null","","html-keyboard-response","321","2562959","0.0-13.0-1.67","l","COGS219_2020_07","<p style=""font-size: 48px;"">+</p>","null","1","","","","","","",""
"558.8800000259653","","image-keyboard-response","322","2563519","0.0-13.0-2.67","l","COGS219_2020_07","Images/dog_1.png","65","1","1581468679763","non-match","dog","train","sound","test","true"
"null","","audio-keyboard-response","323","2565532","0.0-13.0-3.67","l","COGS219_2020_07","Sounds/correct.wav","null","1","","","","","","",""
"null","","audio-keyboard-response","324","2566242","0.0-13.0-0.68","l","COGS219_2020_07","Sounds/dog_sound.wav","null","1","","","","","","",""
"null","","html-keyboard-response","325","2567242","0.0-13.0-1.68","l","COGS219_2020_07","<p style=""font-size: 48px;"">+</p>","null","1","","","","","","",""
"515.5700000468642","","image-keyboard-response","326","2567759","0.0-13.0-2.68","l","COGS219_2020_07","Images/dog_orig.png","76","1","1581468684047","match","dog","dog","sound","test","true"
"null","","audio-keyboard-response","327","2569769","0.0-13.0-3.68","l","COGS219_2020_07","Sounds/correct.wav","null","1","","","","","","",""
"null","","audio-keyboard-response","328","2570462","0.0-13.0-0.69","l","COGS219_2020_07","Sounds/rooster_sound.wav","null","1","","","","","","",""
"null","","html-keyboard-response","329","2571459","0.0-13.0-1.69","l","COGS219_2020_07","<p style=""font-size: 48px;"">+</p>","null","1","","","","","","",""
"426.71000002883375","","image-keyboard-response","330","2571887","0.0-13.0-2.69","l","COGS219_2020_07","Images/train_orig.png","65","1","1581468688263","non-match","train","rooster","sound","test","true"
"null","","audio-keyboard-response","331","2573897","0.0-13.0-3.69","l","COGS219_2020_07","Sounds/correct.wav","null","1","","","","","","",""
"null","","audio-keyboard-response","332","2575042","0.0-13.0-0.70","l","COGS219_2020_07","Sounds/motorcycle_label.wav","null","1","","","","","","",""
"null","","html-keyboard-response","333","2576043","0.0-13.0-1.70","l","COGS219_2020_07","<p style=""font-size: 48px;"">+</p>","null","1","","","","","","",""
"370.28999999165535","","image-keyboard-response","334","2576415","0.0-13.0-2.70","l","COGS219_2020_07","Images/frog_2.png","65","1","1581468692847","non-match","frog","motorcycle","label","test","true"
"null","","audio-keyboard-response","335","2578431","0.0-13.0-3.70","l","COGS219_2020_07","Sounds/correct.wav","null","1","","","","","","",""
"null","","audio-keyboard-response","336","2579262","0.0-13.0-0.71","l","COGS219_2020_07","Sounds/cat_label.wav","null","1","","","","","","",""
"null","","html-keyboard-response","337","2580259","0.0-13.0-1.71","l","COGS219_2020_07","<p style=""font-size: 48px;"">+</p>","null","1","","","","","","",""
"522.705000010319","","image-keyboard-response","338","2580783","0.0-13.0-2.71","l","COGS219_2020_07","Images/rooster_orig.png","65","1","1581468697064","non-match","rooster","cat","label","test","true"
"null","","audio-keyboard-response","339","2582786","0.0-13.0-3.71","l","COGS219_2020_07","Sounds/correct.wav","null","1","","","","","","",""
"null","","audio-keyboard-response","340","2583482","0.0-13.0-0.72","l","COGS219_2020_07","Sounds/rooster_label.wav","null","1","","","","","","",""
"null","","html-keyboard-response","341","2584476","0.0-13.0-1.72","l","COGS219_2020_07","<p style=""font-size: 48px;"">+</p>","null","1","","","","","","",""
"465.7950000837445","","image-keyboard-response","342","2584943","0.0-13.0-2.72","l","COGS219_2020_07","Images/rooster_cartoon.png","76","1","1581468701280","match","rooster","rooster","label","test","true"
"null","","audio-keyboard-response","343","2586956","0.0-13.0-3.72","l","COGS219_2020_07","Sounds/correct.wav","null","1","","","","","","",""
"null","","audio-keyboard-response","344","2587662","0.0-13.0-0.73","l","COGS219_2020_07","Sounds/whistle_sound.wav","null","1","","","","","","",""
"null","","html-keyboard-response","345","2588659","0.0-13.0-1.73","l","COGS219_2020_07","<p style=""font-size: 48px;"">+</p>","null","1","","","","","","",""
"570.4449999611825","","image-keyboard-response","346","2589231","0.0-13.0-2.73","l","COGS219_2020_07","Images/whistle_cartoon.png","76","1","1581468705463","match","whistle","whistle","sound","test","true"
"null","","audio-keyboard-response","347","2591249","0.0-13.0-3.73","l","COGS219_2020_07","Sounds/correct.wav","null","1","","","","","","",""
"null","","audio-keyboard-response","348","2591922","0.0-13.0-0.74","l","COGS219_2020_07","Sounds/whistle_sound.wav","null","1","","","","","","",""
"null","","html-keyboard-response","349","2592926","0.0-13.0-1.74","l","COGS219_2020_07","<p style=""font-size: 48px;"">+</p>","null","1","","","","","","",""
"559.925000066869","","image-keyboard-response","350","2593487","0.0-13.0-2.74","l","COGS219_2020_07","Images/car_1.png","65","1","1581468709730","non-match","car","whistle","sound","test","true"
"null","","audio-keyboard-response","351","2595500","0.0-13.0-3.74","l","COGS219_2020_07","Sounds/correct.wav","null","1","","","","","","",""
"null","","audio-keyboard-response","352","2596522","0.0-13.0-0.75","l","COGS219_2020_07","Sounds/cow_sound.wav","null","1","","","","","","",""
"null","","html-keyboard-response","353","2597526","0.0-13.0-1.75","l","COGS219_2020_07","<p style=""font-size: 48px;"">+</p>","null","1","","","","","","",""
"439.6600000327453","","image-keyboard-response","354","2597967","0.0-13.0-2.75","l","COGS219_2020_07","Images/rooster_3.png","65","1","1581468714330","non-match","rooster","cow","sound","test","true"
"null","","audio-keyboard-response","355","2599975","0.0-13.0-3.75","l","COGS219_2020_07","Sounds/correct.wav","null","1","","","","","","",""
"null","","audio-keyboard-response","356","2600802","0.0-13.0-0.76","l","COGS219_2020_07","Sounds/cat_sound.wav","null","1","","","","","","",""
"null","","html-keyboard-response","357","2601793","0.0-13.0-1.76","l","COGS219_2020_07","<p style=""font-size: 48px;"">+</p>","null","1","","","","","","",""
"508.9250000892207","","image-keyboard-response","358","2602303","0.0-13.0-2.76","l","COGS219_2020_07","Images/dog_3.png","65","1","1581468718597","non-match","dog","cat","sound","test","true"
"null","","audio-keyboard-response","359","2604321","0.0-13.0-3.76","l","COGS219_2020_07","Sounds/correct.wav","null","1","","","","","","",""
"null","","audio-keyboard-response","360","2604902","0.0-13.0-0.77","l","COGS219_2020_07","Sounds/gun_label.wav","null","1","","","","","","",""
"null","","html-keyboard-response","361","2605893","0.0-13.0-1.77","l","COGS219_2020_07","<p style=""font-size: 48px;"">+</p>","null","1","","","","","","",""
"393.11500010080636","","image-keyboard-response","362","2606287","0.0-13.0-2.77","l","COGS219_2020_07","Images/gun_orig.png","76","1","1581468722697","match","gun","gun","label","test","true"
"null","","audio-keyboard-response","363","2608296","0.0-13.0-3.77","l","COGS219_2020_07","Sounds/correct.wav","null","1","","","","","","",""
"null","","audio-keyboard-response","364","2609442","0.0-13.0-0.78","l","COGS219_2020_07","Sounds/motorcycle_label.wav","null","1","","","","","","",""
"null","","html-keyboard-response","365","2610460","0.0-13.0-1.78","l","COGS219_2020_07","<p style=""font-size: 48px;"">+</p>","null","1","","","","","","",""
"498.1849999167025","","image-keyboard-response","366","2610959","0.0-13.0-2.78","l","COGS219_2020_07","Images/motorcycle_1.png","76","1","1581468727264","match","motorcycle","motorcycle","label","test","true"
"null","","audio-keyboard-response","367","2612969","0.0-13.0-3.78","l","COGS219_2020_07","Sounds/correct.wav","null","1","","","","","","",""
"null","","audio-keyboard-response","368","2614082","0.0-13.0-0.79","l","COGS219_2020_07","Sounds/motorcycle_sound.wav","null","1","","","","","","",""
"null","","html-keyboard-response","369","2615076","0.0-13.0-1.79","l","COGS219_2020_07","<p style=""font-size: 48px;"">+</p>","null","1","","","","","","",""
"457.6600000727922","","image-keyboard-response","370","2615535","0.0-13.0-2.79","l","COGS219_2020_07","Images/whistle_3.png","65","1","1581468731880","non-match","whistle","motorcycle","sound","test","true"
"null","","audio-keyboard-response","371","2617540","0.0-13.0-3.79","l","COGS219_2020_07","Sounds/correct.wav","null","1","","","","","","",""
"null","","audio-keyboard-response","372","2618642","0.0-13.0-0.80","l","COGS219_2020_07","Sounds/motorcycle_sound.wav","null","1","","","","","","",""
"null","","html-keyboard-response","373","2619660","0.0-13.0-1.80","l","COGS219_2020_07","<p style=""font-size: 48px;"">+</p>","null","1","","","","","","",""
"482.2900000726804","","image-keyboard-response","374","2620143","0.0-13.0-2.80","l","COGS219_2020_07","Images/cat_3.png","65","1","1581468736464","non-match","cat","motorcycle","sound","test","true"
"null","","audio-keyboard-response","375","2622154","0.0-13.0-3.80","l","COGS219_2020_07","Sounds/correct.wav","null","1","","","","","","",""
"null","","audio-keyboard-response","376","2623182","0.0-13.0-0.81","l","COGS219_2020_07","Sounds/cow_label.wav","null","1","","","","","","",""
"null","","html-keyboard-response","377","2624176","0.0-13.0-1.81","l","COGS219_2020_07","<p style=""font-size: 48px;"">+</p>","null","1","","","","","","",""
"509.5949999522418","","image-keyboard-response","378","2624687","0.0-13.0-2.81","l","COGS219_2020_07","Images/cow_2.png","76","1","1581468740981","match","cow","cow","label","test","true"
"null","","audio-keyboard-response","379","2626702","0.0-13.0-3.81","l","COGS219_2020_07","Sounds/correct.wav","null","1","","","","","","",""
"null","","audio-keyboard-response","380","2627602","0.0-13.0-0.82","l","COGS219_2020_07","Sounds/frog_sound.wav","null","1","","","","","","",""
"null","","html-keyboard-response","381","2628593","0.0-13.0-1.82","l","COGS219_2020_07","<p style=""font-size: 48px;"">+</p>","null","1","","","","","","",""
"412.7899999730289","","image-keyboard-response","382","2629007","0.0-13.0-2.82","l","COGS219_2020_07","Images/cow_2.png","65","1","1581468745397","non-match","cow","frog","sound","test","true"
"null","","audio-keyboard-response","383","2631015","0.0-13.0-3.82","l","COGS219_2020_07","Sounds/correct.wav","null","1","","","","","","",""
"null","","audio-keyboard-response","384","2631602","0.0-13.0-0.83","l","COGS219_2020_07","Sounds/gun_sound.wav","null","1","","","","","","",""
"null","","html-keyboard-response","385","2632593","0.0-13.0-1.83","l","COGS219_2020_07","<p style=""font-size: 48px;"">+</p>","null","1","","","","","","",""
"444.81500005349517","","image-keyboard-response","386","2633039","0.0-13.0-2.83","l","COGS219_2020_07","Images/gun_cartoon.png","76","1","1581468749397","match","gun","gun","sound","test","true"
"null","","audio-keyboard-response","387","2635058","0.0-13.0-3.83","l","COGS219_2020_07","Sounds/correct.wav","null","1","","","","","","",""
"null","","audio-keyboard-response","388","2636042","0.0-13.0-0.84","l","COGS219_2020_07","Sounds/cow_label.wav","null","1","","","","","","",""
"null","","html-keyboard-response","389","2637060","0.0-13.0-1.84","l","COGS219_2020_07","<p style=""font-size: 48px;"">+</p>","null","1","","","","","","",""
"681.8249999778345","","image-keyboard-response","390","2637743","0.0-13.0-2.84","l","COGS219_2020_07","Images/cow_3.png","76","1","1581468753864","match","cow","cow","label","test","true"
"null","","audio-keyboard-response","391","2639755","0.0-13.0-3.84","l","COGS219_2020_07","Sounds/correct.wav","null","1","","","","","","",""
"null","","audio-keyboard-response","392","2640602","0.0-13.0-0.85","l","COGS219_2020_07","Sounds/cat_label.wav","null","1","","","","","","",""
"null","","html-keyboard-response","393","2641593","0.0-13.0-1.85","l","COGS219_2020_07","<p style=""font-size: 48px;"">+</p>","null","1","","","","","","",""
"562.2899999143556","","image-keyboard-response","394","2642159","0.0-13.0-2.85","l","COGS219_2020_07","Images/gun_2.png","65","1","1581468758397","non-match","gun","cat","label","test","true"
"null","","audio-keyboard-response","395","2644167","0.0-13.0-3.85","l","COGS219_2020_07","Sounds/correct.wav","null","1","","","","","","",""
"null","","audio-keyboard-response","396","2645242","0.0-13.0-0.86","l","COGS219_2020_07","Sounds/car_label.wav","null","1","","","","","","",""
"null","","html-keyboard-response","397","2646260","0.0-13.0-1.86","l","COGS219_2020_07","<p style=""font-size: 48px;"">+</p>","null","1","","","","","","",""
"504.82500006910414","","image-keyboard-response","398","2646767","0.0-13.0-2.86","l","COGS219_2020_07","Images/car_orig.png","76","1","1581468763064","match","car","car","label","test","true"
"null","","audio-keyboard-response","399","2648784","0.0-13.0-3.86","l","COGS219_2020_07","Sounds/correct.wav","null","1","","","","","","",""
"null","","audio-keyboard-response","400","2649362","0.0-13.0-0.87","l","COGS219_2020_07","Sounds/gun_label.wav","null","1","","","","","","",""
"null","","html-keyboard-response","401","2650360","0.0-13.0-1.87","l","COGS219_2020_07","<p style=""font-size: 48px;"">+</p>","null","1","","","","","","",""
"357.87999990861863","","image-keyboard-response","402","2650719","0.0-13.0-2.87","l","COGS219_2020_07","Images/car_3.png","65","1","1581468767164","non-match","car","gun","label","test","true"
"null","","audio-keyboard-response","403","2652732","0.0-13.0-3.87","l","COGS219_2020_07","Sounds/correct.wav","null","1","","","","","","",""
"null","","audio-keyboard-response","404","2653542","0.0-13.0-0.88","l","COGS219_2020_07","Sounds/cat_label.wav","null","1","","","","","","",""
"null","","html-keyboard-response","405","2654560","0.0-13.0-1.88","l","COGS219_2020_07","<p style=""font-size: 48px;"">+</p>","null","1","","","","","","",""
"493.7649999046698","","image-keyboard-response","406","2655055","0.0-13.0-2.88","l","COGS219_2020_07","Images/cow_cartoon.png","65","1","1581468771364","non-match","cow","cat","label","test","true"
"null","","audio-keyboard-response","407","2657070","0.0-13.0-3.88","l","COGS219_2020_07","Sounds/correct.wav","null","1","","","","","","",""
"null","","audio-keyboard-response","408","2657962","0.0-13.0-0.89","l","COGS219_2020_07","Sounds/frog_label.wav","null","1","","","","","","",""
"null","","html-keyboard-response","409","2658960","0.0-13.0-1.89","l","COGS219_2020_07","<p style=""font-size: 48px;"">+</p>","null","1","","","","","","",""
"430.0400000065565","","image-keyboard-response","410","2659391","0.0-13.0-2.89","l","COGS219_2020_07","Images/frog_1.png","76","1","1581468775764","match","frog","frog","label","test","true"
"null","","audio-keyboard-response","411","2661408","0.0-13.0-3.89","l","COGS219_2020_07","Sounds/correct.wav","null","1","","","","","","",""
"null","","audio-keyboard-response","412","2662102","0.0-13.0-0.90","l","COGS219_2020_07","Sounds/rooster_sound.wav","null","1","","","","","","",""
"null","","html-keyboard-response","413","2663093","0.0-13.0-1.90","l","COGS219_2020_07","<p style=""font-size: 48px;"">+</p>","null","1","","","","","","",""
"488.429999910295","","image-keyboard-response","414","2663583","0.0-13.0-2.90","l","COGS219_2020_07","Images/frog_1.png","76","1","1581468779897","non-match","frog","rooster","sound","test","false"
"null","","audio-keyboard-response","415","2665588","0.0-13.0-3.90","l","COGS219_2020_07","Sounds/incorrect.wav","null","1","","","","","","",""
"null","","audio-keyboard-response","416","2666662","0.0-13.0-0.91","l","COGS219_2020_07","Sounds/car_label.wav","null","1","","","","","","",""
"null","","html-keyboard-response","417","2667660","0.0-13.0-1.91","l","COGS219_2020_07","<p style=""font-size: 48px;"">+</p>","null","1","","","","","","",""
"609.5300000160933","","image-keyboard-response","418","2668271","0.0-13.0-2.91","l","COGS219_2020_07","Images/car_2.png","76","1","1581468784464","match","car","car","label","test","true"
"null","","audio-keyboard-response","419","2670279","0.0-13.0-3.91","l","COGS219_2020_07","Sounds/correct.wav","null","1","","","","","","",""
"null","","audio-keyboard-response","420","2671122","0.0-13.0-0.92","l","COGS219_2020_07","Sounds/cat_sound.wav","null","1","","","","","","",""
"null","","html-keyboard-response","421","2672110","0.0-13.0-1.92","l","COGS219_2020_07","<p style=""font-size: 48px;"">+</p>","null","1","","","","","","",""
"415.7950000371784","","image-keyboard-response","422","2672527","0.0-13.0-2.92","l","COGS219_2020_07","Images/cat_3.png","76","1","1581468788914","match","cat","cat","sound","test","true"
"null","","audio-keyboard-response","423","2674533","0.0-13.0-3.92","l","COGS219_2020_07","Sounds/correct.wav","null","1","","","","","","",""
"null","","audio-keyboard-response","424","2675122","0.0-13.0-0.93","l","COGS219_2020_07","Sounds/gun_label.wav","null","1","","","","","","",""
"null","","html-keyboard-response","425","2676110","0.0-13.0-1.93","l","COGS219_2020_07","<p style=""font-size: 48px;"">+</p>","null","1","","","","","","",""
"415.5800000298768","","image-keyboard-response","426","2676527","0.0-13.0-2.93","l","COGS219_2020_07","Images/cow_orig.png","65","1","1581468792914","non-match","cow","gun","label","test","true"
"null","","audio-keyboard-response","427","2678530","0.0-13.0-3.93","l","COGS219_2020_07","Sounds/correct.wav","null","1","","","","","","",""
"null","","audio-keyboard-response","428","2679442","0.0-13.0-0.94","l","COGS219_2020_07","Sounds/frog_sound.wav","null","1","","","","","","",""
"null","","html-keyboard-response","429","2680460","0.0-13.0-1.94","l","COGS219_2020_07","<p style=""font-size: 48px;"">+</p>","null","1","","","","","","",""
"545.464999973774","","image-keyboard-response","430","2681007","0.0-13.0-2.94","l","COGS219_2020_07","Images/frog_orig.png","76","1","1581468797264","match","frog","frog","sound","test","true"
"null","","audio-keyboard-response","431","2683016","0.0-13.0-3.94","l","COGS219_2020_07","Sounds/correct.wav","null","1","","","","","","",""
"null","","audio-keyboard-response","432","2683562","0.0-13.0-0.95","l","COGS219_2020_07","Sounds/gun_label.wav","null","1","","","","","","",""
"null","","html-keyboard-response","433","2684560","0.0-13.0-1.95","l","COGS219_2020_07","<p style=""font-size: 48px;"">+</p>","null","1","","","","","","",""
"572.5500000407919","","image-keyboard-response","434","2685135","0.0-13.0-2.95","l","COGS219_2020_07","Images/whistle_1.png","65","1","1581468801365","non-match","whistle","gun","label","test","true"
"null","","audio-keyboard-response","435","2687150","0.0-13.0-3.95","l","COGS219_2020_07","Sounds/correct.wav","null","1","","","","","","",""
"null","","audio-keyboard-response","436","2687702","0.0-13.0-0.96","l","COGS219_2020_07","Sounds/gun_label.wav","null","1","","","","","","",""
"null","","html-keyboard-response","437","2688694","0.0-13.0-1.96","l","COGS219_2020_07","<p style=""font-size: 48px;"">+</p>","null","1","","","","","","",""
"504.04999998863786","","image-keyboard-response","438","2689199","0.0-13.0-2.96","l","COGS219_2020_07","Images/train_2.png","65","1","1581468805498","non-match","train","gun","label","test","true"
"null","","audio-keyboard-response","439","2691205","0.0-13.0-3.96","l","COGS219_2020_07","Sounds/correct.wav","null","1","","","","","","",""
"null","","audio-keyboard-response","440","2691902","0.0-13.0-0.97","l","COGS219_2020_07","Sounds/whistle_sound.wav","null","1","","","","","","",""
"null","","html-keyboard-response","441","2692894","0.0-13.0-1.97","l","COGS219_2020_07","<p style=""font-size: 48px;"">+</p>","null","1","","","","","","",""
"720.0699999229982","","image-keyboard-response","442","2693615","0.0-13.0-2.97","l","COGS219_2020_07","Images/whistle_3.png","76","1","1581468809698","match","whistle","whistle","sound","test","true"
"null","","audio-keyboard-response","443","2695622","0.0-13.0-3.97","l","COGS219_2020_07","Sounds/correct.wav","null","1","","","","","","",""
"null","","audio-keyboard-response","444","2696462","0.0-13.0-0.98","l","COGS219_2020_07","Sounds/cat_label.wav","null","1","","","","","","",""
"null","","html-keyboard-response","445","2697461","0.0-13.0-1.98","l","COGS219_2020_07","<p style=""font-size: 48px;"">+</p>","null","1","","","","","","",""
"569.495000061579","","image-keyboard-response","446","2698031","0.0-13.0-2.98","l","COGS219_2020_07","Images/cat_cartoon.png","76","1","1581468814265","match","cat","cat","label","test","true"
"null","","audio-keyboard-response","447","2700034","0.0-13.0-3.98","l","COGS219_2020_07","Sounds/correct.wav","null","1","","","","","","",""
"null","","audio-keyboard-response","448","2700922","0.0-13.0-0.99","l","COGS219_2020_07","Sounds/frog_label.wav","null","1","","","","","","",""
"null","","html-keyboard-response","449","2701911","0.0-13.0-1.99","l","COGS219_2020_07","<p style=""font-size: 48px;"">+</p>","null","1","","","","","","",""
"487.3549999902025","","image-keyboard-response","450","2702399","0.0-13.0-2.99","l","COGS219_2020_07","Images/motorcycle_1.png","65","1","1581468818715","non-match","motorcycle","frog","label","test","true"
"null","","audio-keyboard-response","451","2704406","0.0-13.0-3.99","l","COGS219_2020_07","Sounds/correct.wav","null","1","","","","","","",""
"28792.280000052415","","html-keyboard-response","452","2733199","0.0-14.0","l","COGS219_2020_07","<p>Please take this opportunity to rest your eyes before proceeding.</p><p>When ready, press the enter key to continue to the next set of trials.</p>","13","","","","","","","",""
"null","","audio-keyboard-response","453","2736067","0.0-15.0-0.0","l","COGS219_2020_07","Sounds/cat_sound.wav","null","2","","","","","","",""
"null","","html-keyboard-response","454","2737061","0.0-15.0-1.0","l","COGS219_2020_07","<p style=""font-size: 48px;"">+</p>","null","2","","","","","","",""
"408.8899999624118","","image-keyboard-response","455","2737471","0.0-15.0-2.0","l","COGS219_2020_07","Images/motorcycle_orig.png","65","2","1581468853865","non-match","motorcycle","cat","sound","test","true"
"null","","audio-keyboard-response","456","2739480","0.0-15.0-3.0","l","COGS219_2020_07","Sounds/correct.wav","null","2","","","","","","",""
"null","","audio-keyboard-response","457","2740567","0.0-15.0-0.1","l","COGS219_2020_07","Sounds/car_sound.wav","null","2","","","","","","",""
"null","","html-keyboard-response","458","2741561","0.0-15.0-1.1","l","COGS219_2020_07","<p style=""font-size: 48px;"">+</p>","null","2","","","","","","",""
"388.8599999481812","","image-keyboard-response","459","2741951","0.0-15.0-2.1","l","COGS219_2020_07","Images/car_1.png","76","2","1581468858365","match","car","car","sound","test","true"
"null","","audio-keyboard-response","460","2743964","0.0-15.0-3.1","l","COGS219_2020_07","Sounds/correct.wav","null","2","","","","","","",""
"null","","audio-keyboard-response","461","2744627","0.0-15.0-0.2","l","COGS219_2020_07","Sounds/dog_label.wav","null","2","","","","","","",""
"null","","html-keyboard-response","462","2745645","0.0-15.0-1.2","l","COGS219_2020_07","<p style=""font-size: 48px;"">+</p>","null","2","","","","","","",""
"449.41999996080995","","image-keyboard-response","463","2746095","0.0-15.0-2.2","l","COGS219_2020_07","Images/gun_1.png","65","2","1581468862449","non-match","gun","dog","label","test","true"
"null","","audio-keyboard-response","464","2748107","0.0-15.0-3.2","l","COGS219_2020_07","Sounds/correct.wav","null","2","","","","","","",""
"null","","audio-keyboard-response","465","2748806","0.0-15.0-0.3","l","COGS219_2020_07","Sounds/whistle_sound.wav","null","2","","","","","","",""
"null","","html-keyboard-response","466","2749811","0.0-15.0-1.3","l","COGS219_2020_07","<p style=""font-size: 48px;"">+</p>","null","2","","","","","","",""
"506.49499997962266","","image-keyboard-response","467","2750319","0.0-15.0-2.3","l","COGS219_2020_07","Images/motorcycle_3.png","65","2","1581468866615","non-match","motorcycle","whistle","sound","test","true"
"null","","audio-keyboard-response","468","2752335","0.0-15.0-3.3","l","COGS219_2020_07","Sounds/correct.wav","null","2","","","","","","",""
"null","","audio-keyboard-response","469","2753026","0.0-15.0-0.4","l","COGS219_2020_07","Sounds/rooster_sound.wav","null","2","","","","","","",""
"null","","html-keyboard-response","470","2754045","0.0-15.0-1.4","l","COGS219_2020_07","<p style=""font-size: 48px;"">+</p>","null","2","","","","","","",""
"401.04500006418675","","image-keyboard-response","471","2754447","0.0-15.0-2.4","l","COGS219_2020_07","Images/rooster_1.png","76","2","1581468870849","match","rooster","rooster","sound","test","true"
"null","","audio-keyboard-response","472","2756464","0.0-15.0-3.4","l","COGS219_2020_07","Sounds/correct.wav","null","2","","","","","","",""
"null","","audio-keyboard-response","473","2757546","0.0-15.0-0.5","l","COGS219_2020_07","Sounds/car_label.wav","null","2","","","","","","",""
"null","","html-keyboard-response","474","2758545","0.0-15.0-1.5","l","COGS219_2020_07","<p style=""font-size: 48px;"">+</p>","null","2","","","","","","",""
"413.54999993927777","","image-keyboard-response","475","2758959","0.0-15.0-2.5","l","COGS219_2020_07","Images/rooster_2.png","65","2","1581468875349","non-match","rooster","car","label","test","true"
"null","","audio-keyboard-response","476","2760968","0.0-15.0-3.5","l","COGS219_2020_07","Sounds/correct.wav","null","2","","","","","","",""
"null","","audio-keyboard-response","477","2762086","0.0-15.0-0.6","l","COGS219_2020_07","Sounds/motorcycle_sound.wav","null","2","","","","","","",""
"null","","html-keyboard-response","478","2763078","0.0-15.0-1.6","l","COGS219_2020_07","<p style=""font-size: 48px;"">+</p>","null","2","","","","","","",""
"632.1600000374019","","image-keyboard-response","479","2763711","0.0-15.0-2.6","l","COGS219_2020_07","Images/rooster_orig.png","65","2","1581468879882","non-match","rooster","motorcycle","sound","test","true"
"null","","audio-keyboard-response","480","2765729","0.0-15.0-3.6","l","COGS219_2020_07","Sounds/correct.wav","null","2","","","","","","",""
"null","","audio-keyboard-response","481","2766746","0.0-15.0-0.7","l","COGS219_2020_07","Sounds/cow_sound.wav","null","2","","","","","","",""
"null","","html-keyboard-response","482","2767745","0.0-15.0-1.7","l","COGS219_2020_07","<p style=""font-size: 48px;"">+</p>","null","2","","","","","","",""
"493.35499992594123","","image-keyboard-response","483","2768239","0.0-15.0-2.7","l","COGS219_2020_07","Images/frog_3.png","65","2","1581468884549","non-match","frog","cow","sound","test","true"
"null","","audio-keyboard-response","484","2770255","0.0-15.0-3.7","l","COGS219_2020_07","Sounds/correct.wav","null","2","","","","","","",""
"null","","audio-keyboard-response","485","2770946","0.0-15.0-0.8","l","COGS219_2020_07","Sounds/whistle_label.wav","null","2","","","","","","",""
"null","","html-keyboard-response","486","2771945","0.0-15.0-1.8","l","COGS219_2020_07","<p style=""font-size: 48px;"">+</p>","null","2","","","","","","",""
"533.5300000151619","","image-keyboard-response","487","2772479","0.0-15.0-2.8","l","COGS219_2020_07","Images/whistle_cartoon.png","76","2","1581468888749","match","whistle","whistle","label","test","true"
"null","","audio-keyboard-response","488","2774485","0.0-15.0-3.8","l","COGS219_2020_07","Sounds/correct.wav","null","2","","","","","","",""
"null","","audio-keyboard-response","489","2775487","0.0-15.0-0.9","l","COGS219_2020_07","Sounds/cow_sound.wav","null","2","","","","","","",""
"null","","html-keyboard-response","490","2776478","0.0-15.0-1.9","l","COGS219_2020_07","<p style=""font-size: 48px;"">+</p>","null","2","","","","","","",""
"623.8299999386072","","image-keyboard-response","491","2777103","0.0-15.0-2.9","l","COGS219_2020_07","Images/cow_3.png","76","2","1581468893282","match","cow","cow","sound","test","true"
"null","","audio-keyboard-response","492","2779115","0.0-15.0-3.9","l","COGS219_2020_07","Sounds/correct.wav","null","2","","","","","","",""
"null","","audio-keyboard-response","493","2779806","0.0-15.0-0.10","l","COGS219_2020_07","Sounds/whistle_sound.wav","null","2","","","","","","",""
"null","","html-keyboard-response","494","2780795","0.0-15.0-1.10","l","COGS219_2020_07","<p style=""font-size: 48px;"">+</p>","null","2","","","","","","",""
"579.3499998981133","","image-keyboard-response","495","2781375","0.0-15.0-2.10","l","COGS219_2020_07","Images/whistle_orig.png","76","2","1581468897599","match","whistle","whistle","sound","test","true"
"null","","audio-keyboard-response","496","2783384","0.0-15.0-3.10","l","COGS219_2020_07","Sounds/correct.wav","null","2","","","","","","",""
"null","","audio-keyboard-response","497","2784066","0.0-15.0-0.11","l","COGS219_2020_07","Sounds/whistle_label.wav","null","2","","","","","","",""
"null","","html-keyboard-response","498","2785062","0.0-15.0-1.11","l","COGS219_2020_07","<p style=""font-size: 48px;"">+</p>","null","2","","","","","","",""
"440.5399999814108","","image-keyboard-response","499","2785503","0.0-15.0-2.11","l","COGS219_2020_07","Images/cat_2.png","65","2","1581468901866","non-match","cat","whistle","label","test","true"
"null","","audio-keyboard-response","500","2787510","0.0-15.0-3.11","l","COGS219_2020_07","Sounds/correct.wav","null","2","","","","","","",""
"null","","audio-keyboard-response","501","2788346","0.0-15.0-0.12","l","COGS219_2020_07","Sounds/cat_label.wav","null","2","","","","","","",""
"null","","html-keyboard-response","502","2789345","0.0-15.0-1.12","l","COGS219_2020_07","<p style=""font-size: 48px;"">+</p>","null","2","","","","","","",""
"397.0400000689551","","image-keyboard-response","503","2789743","0.0-15.0-2.12","l","COGS219_2020_07","Images/cat_1.png","76","2","1581468906149","match","cat","cat","label","test","true"
"null","","audio-keyboard-response","504","2791750","0.0-15.0-3.12","l","COGS219_2020_07","Sounds/correct.wav","null","2","","","","","","",""
"null","","audio-keyboard-response","505","2792646","0.0-15.0-0.13","l","COGS219_2020_07","Sounds/frog_label.wav","null","2","","","","","","",""
"null","","html-keyboard-response","506","2793645","0.0-15.0-1.13","l","COGS219_2020_07","<p style=""font-size: 48px;"">+</p>","null","2","","","","","","",""
"384.9499999778345","","image-keyboard-response","507","2794031","0.0-15.0-2.13","l","COGS219_2020_07","Images/gun_orig.png","65","2","1581468910449","non-match","gun","frog","label","test","true"
"null","","audio-keyboard-response","508","2796046","0.0-15.0-3.13","l","COGS219_2020_07","Sounds/correct.wav","null","2","","","","","","",""
"null","","audio-keyboard-response","509","2796946","0.0-15.0-0.14","l","COGS219_2020_07","Sounds/frog_sound.wav","null","2","","","","","","",""
"null","","html-keyboard-response","510","2797945","0.0-15.0-1.14","l","COGS219_2020_07","<p style=""font-size: 48px;"">+</p>","null","2","","","","","","",""
"404.03500001411885","","image-keyboard-response","511","2798351","0.0-15.0-2.14","l","COGS219_2020_07","Images/motorcycle_1.png","65","2","1581468914749","non-match","motorcycle","frog","sound","test","true"
"null","","audio-keyboard-response","512","2800360","0.0-15.0-3.14","l","COGS219_2020_07","Sounds/correct.wav","null","2","","","","","","",""
"null","","audio-keyboard-response","513","2801646","0.0-15.0-0.15","l","COGS219_2020_07","Sounds/train_label.wav","null","2","","","","","","",""
"null","","html-keyboard-response","514","2802645","0.0-15.0-1.15","l","COGS219_2020_07","<p style=""font-size: 48px;"">+</p>","null","2","","","","","","",""
"425.0300000421703","","image-keyboard-response","515","2803071","0.0-15.0-2.15","l","COGS219_2020_07","Images/car_orig.png","65","2","1581468919449","non-match","car","train","label","test","true"
"null","","audio-keyboard-response","516","2805086","0.0-15.0-3.15","l","COGS219_2020_07","Sounds/correct.wav","null","2","","","","","","",""
"null","","audio-keyboard-response","517","2805666","0.0-15.0-0.16","l","COGS219_2020_07","Sounds/gun_label.wav","null","2","","","","","","",""
"null","","html-keyboard-response","518","2806662","0.0-15.0-1.16","l","COGS219_2020_07","<p style=""font-size: 48px;"">+</p>","null","2","","","","","","",""
"424.085000064224","","image-keyboard-response","519","2807087","0.0-15.0-2.16","l","COGS219_2020_07","Images/cow_1.png","65","2","1581468923466","non-match","cow","gun","label","test","true"
"null","","audio-keyboard-response","520","2809099","0.0-15.0-3.16","l","COGS219_2020_07","Sounds/correct.wav","null","2","","","","","","",""
"null","","audio-keyboard-response","521","2809766","0.0-15.0-0.17","l","COGS219_2020_07","Sounds/dog_label.wav","null","2","","","","","","",""
"null","","html-keyboard-response","522","2810762","0.0-15.0-1.17","l","COGS219_2020_07","<p style=""font-size: 48px;"">+</p>","null","2","","","","","","",""
"468.2749999919906","","image-keyboard-response","523","2811231","0.0-15.0-2.17","l","COGS219_2020_07","Images/whistle_1.png","65","2","1581468927566","non-match","whistle","dog","label","test","true"
"null","","audio-keyboard-response","524","2813242","0.0-15.0-3.17","l","COGS219_2020_07","Sounds/correct.wav","null","2","","","","","","",""
"null","","audio-keyboard-response","525","2813786","0.0-15.0-0.18","l","COGS219_2020_07","Sounds/gun_label.wav","null","2","","","","","","",""
"null","","html-keyboard-response","526","2814779","0.0-15.0-1.18","l","COGS219_2020_07","<p style=""font-size: 48px;"">+</p>","null","2","","","","","","",""
"451.40499994158745","","image-keyboard-response","527","2815231","0.0-15.0-2.18","l","COGS219_2020_07","Images/gun_cartoon.png","76","2","1581468931583","match","gun","gun","label","test","true"
"null","","audio-keyboard-response","528","2817242","0.0-15.0-3.18","l","COGS219_2020_07","Sounds/correct.wav","null","2","","","","","","",""
"null","","audio-keyboard-response","529","2817946","0.0-15.0-0.19","l","COGS219_2020_07","Sounds/rooster_label.wav","null","2","","","","","","",""
"null","","html-keyboard-response","530","2818945","0.0-15.0-1.19","l","COGS219_2020_07","<p style=""font-size: 48px;"">+</p>","null","2","","","","","","",""
"396.79999998770654","","image-keyboard-response","531","2819343","0.0-15.0-2.19","l","COGS219_2020_07","Images/rooster_2.png","76","2","1581468935750","match","rooster","rooster","label","test","true"
"null","","audio-keyboard-response","532","2821347","0.0-15.0-3.19","l","COGS219_2020_07","Sounds/correct.wav","null","2","","","","","","",""
"null","","audio-keyboard-response","533","2822426","0.0-15.0-0.20","l","COGS219_2020_07","Sounds/car_sound.wav","null","2","","","","","","",""
"null","","html-keyboard-response","534","2823429","0.0-15.0-1.20","l","COGS219_2020_07","<p style=""font-size: 48px;"">+</p>","null","2","","","","","","",""
"553.5999999847263","","image-keyboard-response","535","2823983","0.0-15.0-2.20","l","COGS219_2020_07","Images/car_2.png","76","2","1581468940233","match","car","car","sound","test","true"
"null","","audio-keyboard-response","536","2826002","0.0-15.0-3.20","l","COGS219_2020_07","Sounds/correct.wav","null","2","","","","","","",""
"null","","audio-keyboard-response","537","2826666","0.0-15.0-0.21","l","COGS219_2020_07","Sounds/rooster_label.wav","null","2","","","","","","",""
"null","","html-keyboard-response","538","2827662","0.0-15.0-1.21","l","COGS219_2020_07","<p style=""font-size: 48px;"">+</p>","null","2","","","","","","",""
"352.33000002335757","","image-keyboard-response","539","2828015","0.0-15.0-2.21","l","COGS219_2020_07","Images/car_1.png","65","2","1581468944466","non-match","car","rooster","label","test","true"
"null","","audio-keyboard-response","540","2830018","0.0-15.0-3.21","l","COGS219_2020_07","Sounds/correct.wav","null","2","","","","","","",""
"null","","audio-keyboard-response","541","2830727","0.0-15.0-0.22","l","COGS219_2020_07","Sounds/dog_sound.wav","null","2","","","","","","",""
"null","","html-keyboard-response","542","2831729","0.0-15.0-1.22","l","COGS219_2020_07","<p style=""font-size: 48px;"">+</p>","null","2","","","","","","",""
"445.2349999919534","","image-keyboard-response","543","2832175","0.0-15.0-2.22","l","COGS219_2020_07","Images/frog_cartoon.png","65","2","1581468948533","non-match","frog","dog","sound","test","true"
"null","","audio-keyboard-response","544","2834192","0.0-15.0-3.22","l","COGS219_2020_07","Sounds/correct.wav","null","2","","","","","","",""
"null","","audio-keyboard-response","545","2834866","0.0-15.0-0.23","l","COGS219_2020_07","Sounds/rooster_label.wav","null","2","","","","","","",""
"null","","html-keyboard-response","546","2835862","0.0-15.0-1.23","l","COGS219_2020_07","<p style=""font-size: 48px;"">+</p>","null","2","","","","","","",""
"440.1399999624118","","image-keyboard-response","547","2836303","0.0-15.0-2.23","l","COGS219_2020_07","Images/gun_3.png","65","2","1581468952666","non-match","gun","rooster","label","test","true"
"null","","audio-keyboard-response","548","2838316","0.0-15.0-3.23","l","COGS219_2020_07","Sounds/correct.wav","null","2","","","","","","",""
"null","","audio-keyboard-response","549","2839606","0.0-15.0-0.24","l","COGS219_2020_07","Sounds/train_sound.wav","null","2","","","","","","",""
"null","","html-keyboard-response","550","2840612","0.0-15.0-1.24","l","COGS219_2020_07","<p style=""font-size: 48px;"">+</p>","null","2","","","","","","",""
"441.69000000692904","","image-keyboard-response","551","2841055","0.0-15.0-2.24","l","COGS219_2020_07","Images/train_1.png","76","2","1581468957416","match","train","train","sound","test","true"
"null","","audio-keyboard-response","552","2843061","0.0-15.0-3.24","l","COGS219_2020_07","Sounds/correct.wav","null","2","","","","","","",""
"null","","audio-keyboard-response","553","2844206","0.0-15.0-0.25","l","COGS219_2020_07","Sounds/motorcycle_label.wav","null","2","","","","","","",""
"null","","html-keyboard-response","554","2845212","0.0-15.0-1.25","l","COGS219_2020_07","<p style=""font-size: 48px;"">+</p>","null","2","","","","","","",""
"465.57999996002764","","image-keyboard-response","555","2845679","0.0-15.0-2.25","l","COGS219_2020_07","Images/cow_cartoon.png","65","2","1581468962016","non-match","cow","motorcycle","label","test","true"
"null","","audio-keyboard-response","556","2847684","0.0-15.0-3.25","l","COGS219_2020_07","Sounds/correct.wav","null","2","","","","","","",""
"null","","audio-keyboard-response","557","2848387","0.0-15.0-0.26","l","COGS219_2020_07","Sounds/dog_sound.wav","null","2","","","","","","",""
"null","","html-keyboard-response","558","2849379","0.0-15.0-1.26","l","COGS219_2020_07","<p style=""font-size: 48px;"">+</p>","null","2","","","","","","",""
"395.2300000237301","","image-keyboard-response","559","2849775","0.0-15.0-2.26","l","COGS219_2020_07","Images/car_cartoon.png","65","2","1581468966183","non-match","car","dog","sound","test","true"
"null","","audio-keyboard-response","560","2851782","0.0-15.0-3.26","l","COGS219_2020_07","Sounds/correct.wav","null","2","","","","","","",""
"null","","audio-keyboard-response","561","2852907","0.0-15.0-0.27","l","COGS219_2020_07","Sounds/motorcycle_sound.wav","null","2","","","","","","",""
"null","","html-keyboard-response","562","2853913","0.0-15.0-1.27","l","COGS219_2020_07","<p style=""font-size: 48px;"">+</p>","null","2","","","","","","",""
"725.6150000030175","","image-keyboard-response","563","2854639","0.0-15.0-2.27","l","COGS219_2020_07","Images/motorcycle_1.png","76","2","1581468970716","match","motorcycle","motorcycle","sound","test","true"
"null","","audio-keyboard-response","564","2856656","0.0-15.0-3.27","l","COGS219_2020_07","Sounds/correct.wav","null","2","","","","","","",""
"null","","audio-keyboard-response","565","2857346","0.0-15.0-0.28","l","COGS219_2020_07","Sounds/rooster_label.wav","null","2","","","","","","",""
"null","","html-keyboard-response","566","2858346","0.0-15.0-1.28","l","COGS219_2020_07","<p style=""font-size: 48px;"">+</p>","null","2","","","","","","",""
"452.1800000220537","","image-keyboard-response","567","2858799","0.0-15.0-2.28","l","COGS219_2020_07","Images/rooster_cartoon.png","76","2","1581468975150","match","rooster","rooster","label","test","true"
"null","","audio-keyboard-response","568","2860802","0.0-15.0-3.28","l","COGS219_2020_07","Sounds/correct.wav","null","2","","","","","","",""
"null","","audio-keyboard-response","569","2861887","0.0-15.0-0.29","l","COGS219_2020_07","Sounds/motorcycle_sound.wav","null","2","","","","","","",""
"null","","html-keyboard-response","570","2862879","0.0-15.0-1.29","l","COGS219_2020_07","<p style=""font-size: 48px;"">+</p>","null","2","","","","","","",""
"463.0050000268966","","image-keyboard-response","571","2863343","0.0-15.0-2.29","l","COGS219_2020_07","Images/motorcycle_cartoon.png","76","2","1581468979683","match","motorcycle","motorcycle","sound","test","true"
"null","","audio-keyboard-response","572","2865359","0.0-15.0-3.29","l","COGS219_2020_07","Sounds/correct.wav","null","2","","","","","","",""
"null","","audio-keyboard-response","573","2866487","0.0-15.0-0.30","l","COGS219_2020_07","Sounds/motorcycle_label.wav","null","2","","","","","","",""
"null","","html-keyboard-response","574","2867479","0.0-15.0-1.30","l","COGS219_2020_07","<p style=""font-size: 48px;"">+</p>","null","2","","","","","","",""
"503.0900000128895","","image-keyboard-response","575","2867983","0.0-15.0-2.30","l","COGS219_2020_07","Images/motorcycle_orig.png","76","2","1581468984283","match","motorcycle","motorcycle","label","test","true"
"null","","audio-keyboard-response","576","2869990","0.0-15.0-3.30","l","COGS219_2020_07","Sounds/correct.wav","null","2","","","","","","",""
"null","","audio-keyboard-response","577","2871066","0.0-15.0-0.31","l","COGS219_2020_07","Sounds/car_label.wav","null","2","","","","","","",""
"null","","html-keyboard-response","578","2872063","0.0-15.0-1.31","l","COGS219_2020_07","<p style=""font-size: 48px;"">+</p>","null","2","","","","","","",""
"415.6299999449402","","image-keyboard-response","579","2872479","0.0-15.0-2.31","l","COGS219_2020_07","Images/cow_3.png","65","2","1581468988867","non-match","cow","car","label","test","true"
"null","","audio-keyboard-response","580","2874496","0.0-15.0-3.31","l","COGS219_2020_07","Sounds/correct.wav","null","2","","","","","","",""
"null","","audio-keyboard-response","581","2875187","0.0-15.0-0.32","l","COGS219_2020_07","Sounds/whistle_sound.wav","null","2","","","","","","",""
"null","","html-keyboard-response","582","2876179","0.0-15.0-1.32","l","COGS219_2020_07","<p style=""font-size: 48px;"">+</p>","null","2","","","","","","",""
"443.19000001996756","","image-keyboard-response","583","2876623","0.0-15.0-2.32","l","COGS219_2020_07","Images/whistle_1.png","76","2","1581468992983","match","whistle","whistle","sound","test","true"
"null","","audio-keyboard-response","584","2878629","0.0-15.0-3.32","l","COGS219_2020_07","Sounds/correct.wav","null","2","","","","","","",""
"null","","audio-keyboard-response","585","2879207","0.0-15.0-0.33","l","COGS219_2020_07","Sounds/gun_sound.wav","null","2","","","","","","",""
"null","","html-keyboard-response","586","2880196","0.0-15.0-1.33","l","COGS219_2020_07","<p style=""font-size: 48px;"">+</p>","null","2","","","","","","",""
"410.12499993667006","","image-keyboard-response","587","2880607","0.0-15.0-2.33","l","COGS219_2020_07","Images/train_2.png","65","2","1581468997000","non-match","train","gun","sound","test","true"
"null","","audio-keyboard-response","588","2882614","0.0-15.0-3.33","l","COGS219_2020_07","Sounds/correct.wav","null","2","","","","","","",""
"null","","audio-keyboard-response","589","2883627","0.0-15.0-0.34","l","COGS219_2020_07","Sounds/cow_label.wav","null","2","","","","","","",""
"null","","html-keyboard-response","590","2884629","0.0-15.0-1.34","l","COGS219_2020_07","<p style=""font-size: 48px;"">+</p>","null","2","","","","","","",""
"456.51000004727393","","image-keyboard-response","591","2885087","0.0-15.0-2.34","l","COGS219_2020_07","Images/rooster_cartoon.png","65","2","1581469001434","non-match","rooster","cow","label","test","true"
"null","","audio-keyboard-response","592","2887093","0.0-15.0-3.34","l","COGS219_2020_07","Sounds/correct.wav","null","2","","","","","","",""
"null","","audio-keyboard-response","593","2888146","0.0-15.0-0.35","l","COGS219_2020_07","Sounds/car_label.wav","null","2","","","","","","",""
"null","","html-keyboard-response","594","2889146","0.0-15.0-1.35","l","COGS219_2020_07","<p style=""font-size: 48px;"">+</p>","null","2","","","","","","",""
"436.60999997518957","","image-keyboard-response","595","2889583","0.0-15.0-2.35","l","COGS219_2020_07","Images/car_3.png","76","2","1581469005950","match","car","car","label","test","true"
"null","","audio-keyboard-response","596","2891595","0.0-15.0-3.35","l","COGS219_2020_07","Sounds/correct.wav","null","2","","","","","","",""
"null","","audio-keyboard-response","597","2892587","0.0-15.0-0.36","l","COGS219_2020_07","Sounds/cow_label.wav","null","2","","","","","","",""
"null","","html-keyboard-response","598","2893579","0.0-15.0-1.36","l","COGS219_2020_07","<p style=""font-size: 48px;"">+</p>","null","2","","","","","","",""
"514.604999916628","","image-keyboard-response","599","2894095","0.0-15.0-2.36","l","COGS219_2020_07","Images/cow_orig.png","76","2","1581469010384","match","cow","cow","label","test","true"
"null","","audio-keyboard-response","600","2896122","0.0-15.0-3.36","l","COGS219_2020_07","Sounds/correct.wav","null","2","","","","","","",""
"null","","audio-keyboard-response","601","2897027","0.0-15.0-0.37","l","COGS219_2020_07","Sounds/frog_sound.wav","null","2","","","","","","",""
"null","","html-keyboard-response","602","2898029","0.0-15.0-1.37","l","COGS219_2020_07","<p style=""font-size: 48px;"">+</p>","null","2","","","","","","",""
"656.5700001083314","","image-keyboard-response","603","2898687","0.0-15.0-2.37","l","COGS219_2020_07","Images/dog_orig.png","65","2","1581469014834","non-match","dog","frog","sound","test","true"
"null","","audio-keyboard-response","604","2900696","0.0-15.0-3.37","l","COGS219_2020_07","Sounds/correct.wav","null","2","","","","","","",""
