[{"rt":37000.46499999007,"responses":"{\"Q0\":\"COGS219_2020_15\"}","trial_type":"survey-text","trial_index":0,"time_elapsed":37032,"internal_node_id":"0.0-0.0","match_key":"l","participant_id":"COGS219_2020_15"},{"rt":116373.41500000912,"stimulus":"<p>Use KEYBOARD 1 (match RIGHT)</p><p>Press MATCH to continue.</p>","key_press":76,"trial_type":"html-keyboard-response","trial_index":1,"time_elapsed":153526,"internal_node_id":"0.0-1.0","match_key":"l","participant_id":"COGS219_2020_15"},{"rt":2120109.0649999967,"stimulus":"<p>Welcome to the experiment.</p>","key_press":32,"trial_type":"html-keyboard-response","trial_index":2,"time_elapsed":2273841,"internal_node_id":"0.0-2.0","match_key":"l","participant_id":"COGS219_2020_15"},{"rt":5299.044999992475,"stimulus":"<p>Thank you for agreeing to participate in this study.</p><p>If during any part of the procedure you must stop for any reason, please inform the researcher that you do not wish to continue.</p>","key_press":32,"trial_type":"html-keyboard-response","trial_index":3,"time_elapsed":2279147,"internal_node_id":"0.0-3.0","match_key":"l","participant_id":"COGS219_2020_15"},{"rt":10351.165000000037,"stimulus":"<p>In this experiment, you will hear various words or sounds and see pictures of various animals and objects.</p><p>Most of the images will be of common everyday objects, such as cars, cats, cows, firearms, frogs, chickens, whistles, trains, motorcycles, and dogs.</p><p>Some of the images will be real-life stills, while others will be cartoons.</p>","key_press":32,"trial_type":"html-keyboard-response","trial_index":4,"time_elapsed":2289499,"internal_node_id":"0.0-4.0","match_key":"l","participant_id":"COGS219_2020_15"},{"rt":8143.2050000000745,"stimulus":"<p>Sometimes, the word/sound will match the picture, for example you'll hear a meowing sound and see a cat.</p><p>Other times, the picture will not match the sound or word.</p><p>Your task is to decide as quickly as possible if the word/sound matches the picture or not. </p>","key_press":32,"trial_type":"html-keyboard-response","trial_index":5,"time_elapsed":2297643,"internal_node_id":"0.0-5.0","match_key":"l","participant_id":"COGS219_2020_15"},{"rt":8895.440000007395,"stimulus":"<p>For example, if you hear the word \"cat\" or hear a meowing sound, and then see a picture of a cat, you should press the MATCH key.</p><p> If the sound and image do not match, press the NOT-MATCH key to indicate that there is not a match.</p>","key_press":65,"trial_type":"html-keyboard-response","trial_index":6,"time_elapsed":2306538,"internal_node_id":"0.0-6.0","match_key":"l","participant_id":"COGS219_2020_15"},{"rt":7886.8849999997765,"stimulus":"<p>If you make a mistake, you will hear a buzzing sound instead of a more pleasant sound.</p><p> Try to respond as quickly as possible, while making as few errors as possible. If you are making mistakes, you are probably rushing.</p>","key_press":32,"trial_type":"html-keyboard-response","trial_index":7,"time_elapsed":2314425,"internal_node_id":"0.0-7.0","match_key":"l","participant_id":"COGS219_2020_15"},{"rt":6175.484999999404,"stimulus":"<p>Please try to not move or blink your eyes during the presentation of the images. You can move and blink between images.</p><p>During the experiment there will be some breaks during which you can rest your eyes.</p>","key_press":76,"trial_type":"html-keyboard-response","trial_index":8,"time_elapsed":2320602,"internal_node_id":"0.0-8.0","match_key":"l","participant_id":"COGS219_2020_15"},{"rt":4671.0750000053085,"stimulus":"<p>We will begin with 10 practice trials. Please let the experimenter know if you have any questions.</p>","key_press":32,"trial_type":"html-keyboard-response","trial_index":9,"time_elapsed":2325273,"internal_node_id":"0.0-9.0","match_key":"l","participant_id":"COGS219_2020_15"},{"rt":null,"stimulus":"Sounds/car_label.wav","key_press":null,"block":0,"trial_type":"audio-keyboard-response","trial_index":10,"time_elapsed":2326777,"internal_node_id":"0.0-10.0-0.0","match_key":"l","participant_id":"COGS219_2020_15"},{"rt":null,"stimulus":"<p style=\"font-size: 48px;\">+</p>","key_press":null,"block":0,"trial_type":"html-keyboard-response","trial_index":11,"time_elapsed":2327773,"internal_node_id":"0.0-10.0-1.0","match_key":"l","participant_id":"COGS219_2020_15"},{"rt":2923.8499999917112,"stimulus":"Images/gun_cartoon.png","key_press":65,"stim_onset":1581875208383,"block":0,"match_type":"non-match","image_category":"gun","sound_category":"car","audio_type":"label","phase":"practice","trial_type":"image-keyboard-response","trial_index":12,"time_elapsed":2330698,"internal_node_id":"0.0-10.0-2.0","match_key":"l","participant_id":"COGS219_2020_15","correct":true},{"rt":null,"stimulus":"Sounds/correct.wav","key_press":null,"block":0,"trial_type":"audio-keyboard-response","trial_index":13,"time_elapsed":2332713,"internal_node_id":"0.0-10.0-3.0","match_key":"l","participant_id":"COGS219_2020_15"},{"rt":null,"stimulus":"Sounds/rooster_sound.wav","key_press":null,"block":0,"trial_type":"audio-keyboard-response","trial_index":14,"time_elapsed":2333397,"internal_node_id":"0.0-10.0-0.1","match_key":"l","participant_id":"COGS219_2020_15"},{"rt":null,"stimulus":"<p style=\"font-size: 48px;\">+</p>","key_press":null,"block":0,"trial_type":"html-keyboard-response","trial_index":15,"time_elapsed":2334390,"internal_node_id":"0.0-10.0-1.1","match_key":"l","participant_id":"COGS219_2020_15"},{"rt":2146.0099999969825,"stimulus":"Images/dog_1.png","key_press":65,"stim_onset":1581875215000,"block":0,"match_type":"non-match","image_category":"dog","sound_category":"rooster","audio_type":"sound","phase":"practice","trial_type":"image-keyboard-response","trial_index":16,"time_elapsed":2336537,"internal_node_id":"0.0-10.0-2.1","match_key":"l","participant_id":"COGS219_2020_15","correct":true},{"rt":null,"stimulus":"Sounds/correct.wav","key_press":null,"block":0,"trial_type":"audio-keyboard-response","trial_index":17,"time_elapsed":2338550,"internal_node_id":"0.0-10.0-3.1","match_key":"l","participant_id":"COGS219_2020_15"},{"rt":null,"stimulus":"Sounds/cat_label.wav","key_press":null,"block":0,"trial_type":"audio-keyboard-response","trial_index":18,"time_elapsed":2339377,"internal_node_id":"0.0-10.0-0.2","match_key":"l","participant_id":"COGS219_2020_15"},{"rt":null,"stimulus":"<p style=\"font-size: 48px;\">+</p>","key_press":null,"block":0,"trial_type":"html-keyboard-response","trial_index":19,"time_elapsed":2340373,"internal_node_id":"0.0-10.0-1.2","match_key":"l","participant_id":"COGS219_2020_15"},{"rt":756.2049999977462,"stimulus":"Images/cat_2.png","key_press":76,"stim_onset":1581875220983,"block":0,"match_type":"match","image_category":"cat","sound_category":"cat","audio_type":"label","phase":"practice","trial_type":"image-keyboard-response","trial_index":20,"time_elapsed":2341130,"internal_node_id":"0.0-10.0-2.2","match_key":"l","participant_id":"COGS219_2020_15","correct":true},{"rt":null,"stimulus":"Sounds/correct.wav","key_press":null,"block":0,"trial_type":"audio-keyboard-response","trial_index":21,"time_elapsed":2343144,"internal_node_id":"0.0-10.0-3.2","match_key":"l","participant_id":"COGS219_2020_15"},{"rt":null,"stimulus":"Sounds/cow_sound.wav","key_press":null,"block":0,"trial_type":"audio-keyboard-response","trial_index":22,"time_elapsed":2344157,"internal_node_id":"0.0-10.0-0.3","match_key":"l","participant_id":"COGS219_2020_15"},{"rt":null,"stimulus":"<p style=\"font-size: 48px;\">+</p>","key_press":null,"block":0,"trial_type":"html-keyboard-response","trial_index":23,"time_elapsed":2345156,"internal_node_id":"0.0-10.0-1.3","match_key":"l","participant_id":"COGS219_2020_15"},{"rt":996.1600000094622,"stimulus":"Images/train_3.png","key_press":65,"stim_onset":1581875225766,"block":0,"match_type":"non-match","image_category":"train","sound_category":"cow","audio_type":"sound","phase":"practice","trial_type":"image-keyboard-response","trial_index":24,"time_elapsed":2346153,"internal_node_id":"0.0-10.0-2.3","match_key":"l","participant_id":"COGS219_2020_15","correct":true},{"rt":null,"stimulus":"Sounds/correct.wav","key_press":null,"block":0,"trial_type":"audio-keyboard-response","trial_index":25,"time_elapsed":2348163,"internal_node_id":"0.0-10.0-3.3","match_key":"l","participant_id":"COGS219_2020_15"},{"rt":null,"stimulus":"Sounds/gun_sound.wav","key_press":null,"block":0,"trial_type":"audio-keyboard-response","trial_index":26,"time_elapsed":2348737,"internal_node_id":"0.0-10.0-0.4","match_key":"l","participant_id":"COGS219_2020_15"},{"rt":null,"stimulus":"<p style=\"font-size: 48px;\">+</p>","key_press":null,"block":0,"trial_type":"html-keyboard-response","trial_index":27,"time_elapsed":2349740,"internal_node_id":"0.0-10.0-1.4","match_key":"l","participant_id":"COGS219_2020_15"},{"rt":1020.7149999914691,"stimulus":"Images/gun_orig.png","key_press":76,"stim_onset":1581875230350,"block":0,"match_type":"match","image_category":"gun","sound_category":"gun","audio_type":"sound","phase":"practice","trial_type":"image-keyboard-response","trial_index":28,"time_elapsed":2350761,"internal_node_id":"0.0-10.0-2.4","match_key":"l","participant_id":"COGS219_2020_15","correct":true},{"rt":null,"stimulus":"Sounds/correct.wav","key_press":null,"block":0,"trial_type":"audio-keyboard-response","trial_index":29,"time_elapsed":2352778,"internal_node_id":"0.0-10.0-3.4","match_key":"l","participant_id":"COGS219_2020_15"},{"rt":null,"stimulus":"Sounds/dog_label.wav","key_press":null,"block":0,"trial_type":"audio-keyboard-response","trial_index":30,"time_elapsed":2353417,"internal_node_id":"0.0-10.0-0.5","match_key":"l","participant_id":"COGS219_2020_15"},{"rt":null,"stimulus":"<p style=\"font-size: 48px;\">+</p>","key_press":null,"block":0,"trial_type":"html-keyboard-response","trial_index":31,"time_elapsed":2354406,"internal_node_id":"0.0-10.0-1.5","match_key":"l","participant_id":"COGS219_2020_15"},{"rt":593.9949999884702,"stimulus":"Images/motorcycle_3.png","key_press":65,"stim_onset":1581875235016,"block":0,"match_type":"non-match","image_category":"motorcycle","sound_category":"dog","audio_type":"label","phase":"practice","trial_type":"image-keyboard-response","trial_index":32,"time_elapsed":2355001,"internal_node_id":"0.0-10.0-2.5","match_key":"l","participant_id":"COGS219_2020_15","correct":true},{"rt":null,"stimulus":"Sounds/correct.wav","key_press":null,"block":0,"trial_type":"audio-keyboard-response","trial_index":33,"time_elapsed":2357010,"internal_node_id":"0.0-10.0-3.5","match_key":"l","participant_id":"COGS219_2020_15"},{"rt":null,"stimulus":"Sounds/whistle_sound.wav","key_press":null,"block":0,"trial_type":"audio-keyboard-response","trial_index":34,"time_elapsed":2357697,"internal_node_id":"0.0-10.0-0.6","match_key":"l","participant_id":"COGS219_2020_15"},{"rt":null,"stimulus":"<p style=\"font-size: 48px;\">+</p>","key_press":null,"block":0,"trial_type":"html-keyboard-response","trial_index":35,"time_elapsed":2358690,"internal_node_id":"0.0-10.0-1.6","match_key":"l","participant_id":"COGS219_2020_15"},{"rt":550.3699999973178,"stimulus":"Images/whistle_2.png","key_press":76,"stim_onset":1581875239300,"block":0,"match_type":"match","image_category":"whistle","sound_category":"whistle","audio_type":"sound","phase":"practice","trial_type":"image-keyboard-response","trial_index":36,"time_elapsed":2359241,"internal_node_id":"0.0-10.0-2.6","match_key":"l","participant_id":"COGS219_2020_15","correct":true},{"rt":null,"stimulus":"Sounds/correct.wav","key_press":null,"block":0,"trial_type":"audio-keyboard-response","trial_index":37,"time_elapsed":2361245,"internal_node_id":"0.0-10.0-3.6","match_key":"l","participant_id":"COGS219_2020_15"},{"rt":null,"stimulus":"Sounds/whistle_label.wav","key_press":null,"block":0,"trial_type":"audio-keyboard-response","trial_index":38,"time_elapsed":2361957,"internal_node_id":"0.0-10.0-0.7","match_key":"l","participant_id":"COGS219_2020_15"},{"rt":null,"stimulus":"<p style=\"font-size: 48px;\">+</p>","key_press":null,"block":0,"trial_type":"html-keyboard-response","trial_index":39,"time_elapsed":2362957,"internal_node_id":"0.0-10.0-1.7","match_key":"l","participant_id":"COGS219_2020_15"},{"rt":491.78500000573695,"stimulus":"Images/dog_orig.png","key_press":65,"stim_onset":1581875243566,"block":0,"match_type":"non-match","image_category":"dog","sound_category":"whistle","audio_type":"label","phase":"practice","trial_type":"image-keyboard-response","trial_index":40,"time_elapsed":2363449,"internal_node_id":"0.0-10.0-2.7","match_key":"l","participant_id":"COGS219_2020_15","correct":true},{"rt":null,"stimulus":"Sounds/correct.wav","key_press":null,"block":0,"trial_type":"audio-keyboard-response","trial_index":41,"time_elapsed":2365460,"internal_node_id":"0.0-10.0-3.7","match_key":"l","participant_id":"COGS219_2020_15"},{"rt":null,"stimulus":"Sounds/cow_label.wav","key_press":null,"block":0,"trial_type":"audio-keyboard-response","trial_index":42,"time_elapsed":2366477,"internal_node_id":"0.0-10.0-0.8","match_key":"l","participant_id":"COGS219_2020_15"},{"rt":null,"stimulus":"<p style=\"font-size: 48px;\">+</p>","key_press":null,"block":0,"trial_type":"html-keyboard-response","trial_index":43,"time_elapsed":2367475,"internal_node_id":"0.0-10.0-1.8","match_key":"l","participant_id":"COGS219_2020_15"},{"rt":487.4500000006519,"stimulus":"Images/frog_2.png","key_press":65,"stim_onset":1581875248085,"block":0,"match_type":"non-match","image_category":"frog","sound_category":"cow","audio_type":"label","phase":"practice","trial_type":"image-keyboard-response","trial_index":44,"time_elapsed":2367963,"internal_node_id":"0.0-10.0-2.8","match_key":"l","participant_id":"COGS219_2020_15","correct":true},{"rt":null,"stimulus":"Sounds/correct.wav","key_press":null,"block":0,"trial_type":"audio-keyboard-response","trial_index":45,"time_elapsed":2369980,"internal_node_id":"0.0-10.0-3.8","match_key":"l","participant_id":"COGS219_2020_15"},{"rt":null,"stimulus":"Sounds/dog_sound.wav","key_press":null,"block":0,"trial_type":"audio-keyboard-response","trial_index":46,"time_elapsed":2370679,"internal_node_id":"0.0-10.0-0.9","match_key":"l","participant_id":"COGS219_2020_15"},{"rt":null,"stimulus":"<p style=\"font-size: 48px;\">+</p>","key_press":null,"block":0,"trial_type":"html-keyboard-response","trial_index":47,"time_elapsed":2371675,"internal_node_id":"0.0-10.0-1.9","match_key":"l","participant_id":"COGS219_2020_15"},{"rt":495.02499999664724,"stimulus":"Images/dog_3.png","key_press":76,"stim_onset":1581875252285,"block":0,"match_type":"match","image_category":"dog","sound_category":"dog","audio_type":"sound","phase":"practice","trial_type":"image-keyboard-response","trial_index":48,"time_elapsed":2372171,"internal_node_id":"0.0-10.0-2.9","match_key":"l","participant_id":"COGS219_2020_15","correct":true},{"rt":null,"stimulus":"Sounds/correct.wav","key_press":null,"block":0,"trial_type":"audio-keyboard-response","trial_index":49,"time_elapsed":2374179,"internal_node_id":"0.0-10.0-3.9","match_key":"l","participant_id":"COGS219_2020_15"},{"rt":107721.47500001313,"stimulus":"<p>The rest of the experiment is divided into five blocks with 100 trials in each block. It will take about 45 minutes to complete.</p><p>The experimenter will be in the outer room and you can communicate with them through the monitor if you have any questions or wish to stop the experiment.</p>","key_press":32,"trial_type":"html-keyboard-response","trial_index":50,"time_elapsed":2481901,"internal_node_id":"0.0-11.0","match_key":"l","participant_id":"COGS219_2020_15"},{"rt":6461.134999990463,"stimulus":"<p>Remember, please try not to move or blink your eyes during the presentation of the images. </p><p>At the end of the experiment, we will show you your scores on the task so you can see how you did.</p><p>The experiment will start on the next screen.</p>","key_press":32,"trial_type":"html-keyboard-response","trial_index":51,"time_elapsed":2488363,"internal_node_id":"0.0-12.0","match_key":"l","participant_id":"COGS219_2020_15"},{"rt":null,"stimulus":"Sounds/frog_label.wav","key_press":null,"block":1,"trial_type":"audio-keyboard-response","trial_index":52,"time_elapsed":2491281,"internal_node_id":"0.0-13.0-0.0","match_key":"l","participant_id":"COGS219_2020_15"},{"rt":null,"stimulus":"<p style=\"font-size: 48px;\">+</p>","key_press":null,"block":1,"trial_type":"html-keyboard-response","trial_index":53,"time_elapsed":2492276,"internal_node_id":"0.0-13.0-1.0","match_key":"l","participant_id":"COGS219_2020_15"},{"rt":598.3699999921955,"stimulus":"Images/cow_2.png","key_press":65,"stim_onset":1581875372886,"block":1,"match_type":"non-match","image_category":"cow","sound_category":"frog","audio_type":"label","phase":"test","trial_type":"image-keyboard-response","trial_index":54,"time_elapsed":2492876,"internal_node_id":"0.0-13.0-2.0","match_key":"l","participant_id":"COGS219_2020_15","correct":true},{"rt":null,"stimulus":"Sounds/correct.wav","key_press":null,"block":1,"trial_type":"audio-keyboard-response","trial_index":55,"time_elapsed":2494883,"internal_node_id":"0.0-13.0-3.0","match_key":"l","participant_id":"COGS219_2020_15"},{"rt":null,"stimulus":"Sounds/cow_sound.wav","key_press":null,"block":1,"trial_type":"audio-keyboard-response","trial_index":56,"time_elapsed":2495902,"internal_node_id":"0.0-13.0-0.1","match_key":"l","participant_id":"COGS219_2020_15"},{"rt":null,"stimulus":"<p style=\"font-size: 48px;\">+</p>","key_press":null,"block":1,"trial_type":"html-keyboard-response","trial_index":57,"time_elapsed":2496893,"internal_node_id":"0.0-13.0-1.1","match_key":"l","participant_id":"COGS219_2020_15"},{"rt":541.3000000119209,"stimulus":"Images/cow_2.png","key_press":65,"stim_onset":1581875377503,"block":1,"match_type":"match","image_category":"cow","sound_category":"cow","audio_type":"sound","phase":"test","trial_type":"image-keyboard-response","trial_index":58,"time_elapsed":2497435,"internal_node_id":"0.0-13.0-2.1","match_key":"l","participant_id":"COGS219_2020_15","correct":false},{"rt":null,"stimulus":"Sounds/incorrect.wav","key_press":null,"block":1,"trial_type":"audio-keyboard-response","trial_index":59,"time_elapsed":2499448,"internal_node_id":"0.0-13.0-3.1","match_key":"l","participant_id":"COGS219_2020_15"},{"rt":null,"stimulus":"Sounds/frog_sound.wav","key_press":null,"block":1,"trial_type":"audio-keyboard-response","trial_index":60,"time_elapsed":2500361,"internal_node_id":"0.0-13.0-0.2","match_key":"l","participant_id":"COGS219_2020_15"},{"rt":null,"stimulus":"<p style=\"font-size: 48px;\">+</p>","key_press":null,"block":1,"trial_type":"html-keyboard-response","trial_index":61,"time_elapsed":2501361,"internal_node_id":"0.0-13.0-1.2","match_key":"l","participant_id":"COGS219_2020_15"},{"rt":410.6049999971874,"stimulus":"Images/frog_orig.png","key_press":76,"stim_onset":1581875381971,"block":1,"match_type":"match","image_category":"frog","sound_category":"frog","audio_type":"sound","phase":"test","trial_type":"image-keyboard-response","trial_index":62,"time_elapsed":2501772,"internal_node_id":"0.0-13.0-2.2","match_key":"l","participant_id":"COGS219_2020_15","correct":true},{"rt":null,"stimulus":"Sounds/correct.wav","key_press":null,"block":1,"trial_type":"audio-keyboard-response","trial_index":63,"time_elapsed":2503783,"internal_node_id":"0.0-13.0-3.2","match_key":"l","participant_id":"COGS219_2020_15"},{"rt":null,"stimulus":"Sounds/gun_sound.wav","key_press":null,"block":1,"trial_type":"audio-keyboard-response","trial_index":64,"time_elapsed":2504361,"internal_node_id":"0.0-13.0-0.3","match_key":"l","participant_id":"COGS219_2020_15"},{"rt":null,"stimulus":"<p style=\"font-size: 48px;\">+</p>","key_press":null,"block":1,"trial_type":"html-keyboard-response","trial_index":65,"time_elapsed":2505361,"internal_node_id":"0.0-13.0-1.3","match_key":"l","participant_id":"COGS219_2020_15"},{"rt":570.7249999977648,"stimulus":"Images/frog_1.png","key_press":65,"stim_onset":1581875385971,"block":1,"match_type":"non-match","image_category":"frog","sound_category":"gun","audio_type":"sound","phase":"test","trial_type":"image-keyboard-response","trial_index":66,"time_elapsed":2505932,"internal_node_id":"0.0-13.0-2.3","match_key":"l","participant_id":"COGS219_2020_15","correct":true},{"rt":null,"stimulus":"Sounds/correct.wav","key_press":null,"block":1,"trial_type":"audio-keyboard-response","trial_index":67,"time_elapsed":2507948,"internal_node_id":"0.0-13.0-3.3","match_key":"l","participant_id":"COGS219_2020_15"},{"rt":null,"stimulus":"Sounds/dog_sound.wav","key_press":null,"block":1,"trial_type":"audio-keyboard-response","trial_index":68,"time_elapsed":2508662,"internal_node_id":"0.0-13.0-0.4","match_key":"l","participant_id":"COGS219_2020_15"},{"rt":null,"stimulus":"<p style=\"font-size: 48px;\">+</p>","key_press":null,"block":1,"trial_type":"html-keyboard-response","trial_index":69,"time_elapsed":2509661,"internal_node_id":"0.0-13.0-1.4","match_key":"l","participant_id":"COGS219_2020_15"},{"rt":558.5100000025705,"stimulus":"Images/rooster_cartoon.png","key_press":65,"stim_onset":1581875390271,"block":1,"match_type":"non-match","image_category":"rooster","sound_category":"dog","audio_type":"sound","phase":"test","trial_type":"image-keyboard-response","trial_index":70,"time_elapsed":2510220,"internal_node_id":"0.0-13.0-2.4","match_key":"l","participant_id":"COGS219_2020_15","correct":true},{"rt":null,"stimulus":"Sounds/correct.wav","key_press":null,"block":1,"trial_type":"audio-keyboard-response","trial_index":71,"time_elapsed":2512233,"internal_node_id":"0.0-13.0-3.4","match_key":"l","participant_id":"COGS219_2020_15"},{"rt":null,"stimulus":"Sounds/rooster_sound.wav","key_press":null,"block":1,"trial_type":"audio-keyboard-response","trial_index":72,"time_elapsed":2512921,"internal_node_id":"0.0-13.0-0.5","match_key":"l","participant_id":"COGS219_2020_15"},{"rt":null,"stimulus":"<p style=\"font-size: 48px;\">+</p>","key_press":null,"block":1,"trial_type":"html-keyboard-response","trial_index":73,"time_elapsed":2513911,"internal_node_id":"0.0-13.0-1.5","match_key":"l","participant_id":"COGS219_2020_15"},{"rt":468.51999999489635,"stimulus":"Images/rooster_2.png","key_press":76,"stim_onset":1581875394521,"block":1,"match_type":"match","image_category":"rooster","sound_category":"rooster","audio_type":"sound","phase":"test","trial_type":"image-keyboard-response","trial_index":74,"time_elapsed":2514380,"internal_node_id":"0.0-13.0-2.5","match_key":"l","participant_id":"COGS219_2020_15","correct":true},{"rt":null,"stimulus":"Sounds/correct.wav","key_press":null,"block":1,"trial_type":"audio-keyboard-response","trial_index":75,"time_elapsed":2516398,"internal_node_id":"0.0-13.0-3.5","match_key":"l","participant_id":"COGS219_2020_15"},{"rt":null,"stimulus":"Sounds/train_label.wav","key_press":null,"block":1,"trial_type":"audio-keyboard-response","trial_index":76,"time_elapsed":2517682,"internal_node_id":"0.0-13.0-0.6","match_key":"l","participant_id":"COGS219_2020_15"},{"rt":null,"stimulus":"<p style=\"font-size: 48px;\">+</p>","key_press":null,"block":1,"trial_type":"html-keyboard-response","trial_index":77,"time_elapsed":2518677,"internal_node_id":"0.0-13.0-1.6","match_key":"l","participant_id":"COGS219_2020_15"},{"rt":613.9950000070967,"stimulus":"Images/whistle_3.png","key_press":65,"stim_onset":1581875399288,"block":1,"match_type":"non-match","image_category":"whistle","sound_category":"train","audio_type":"label","phase":"test","trial_type":"image-keyboard-response","trial_index":78,"time_elapsed":2519292,"internal_node_id":"0.0-13.0-2.6","match_key":"l","participant_id":"COGS219_2020_15","correct":true},{"rt":null,"stimulus":"Sounds/correct.wav","key_press":null,"block":1,"trial_type":"audio-keyboard-response","trial_index":79,"time_elapsed":2521300,"internal_node_id":"0.0-13.0-3.6","match_key":"l","participant_id":"COGS219_2020_15"},{"rt":null,"stimulus":"Sounds/frog_sound.wav","key_press":null,"block":1,"trial_type":"audio-keyboard-response","trial_index":80,"time_elapsed":2522201,"internal_node_id":"0.0-13.0-0.7","match_key":"l","participant_id":"COGS219_2020_15"},{"rt":null,"stimulus":"<p style=\"font-size: 48px;\">+</p>","key_press":null,"block":1,"trial_type":"html-keyboard-response","trial_index":81,"time_elapsed":2523194,"internal_node_id":"0.0-13.0-1.7","match_key":"l","participant_id":"COGS219_2020_15"},{"rt":481.3200000063516,"stimulus":"Images/frog_2.png","key_press":76,"stim_onset":1581875403804,"block":1,"match_type":"match","image_category":"frog","sound_category":"frog","audio_type":"sound","phase":"test","trial_type":"image-keyboard-response","trial_index":82,"time_elapsed":2523676,"internal_node_id":"0.0-13.0-2.7","match_key":"l","participant_id":"COGS219_2020_15","correct":true},{"rt":null,"stimulus":"Sounds/correct.wav","key_press":null,"block":1,"trial_type":"audio-keyboard-response","trial_index":83,"time_elapsed":2525684,"internal_node_id":"0.0-13.0-3.7","match_key":"l","participant_id":"COGS219_2020_15"},{"rt":null,"stimulus":"Sounds/whistle_sound.wav","key_press":null,"block":1,"trial_type":"audio-keyboard-response","trial_index":84,"time_elapsed":2526381,"internal_node_id":"0.0-13.0-0.8","match_key":"l","participant_id":"COGS219_2020_15"},{"rt":null,"stimulus":"<p style=\"font-size: 48px;\">+</p>","key_press":null,"block":1,"trial_type":"html-keyboard-response","trial_index":85,"time_elapsed":2527377,"internal_node_id":"0.0-13.0-1.8","match_key":"l","participant_id":"COGS219_2020_15"},{"rt":617.7550000138581,"stimulus":"Images/whistle_1.png","key_press":76,"stim_onset":1581875407988,"block":1,"match_type":"match","image_category":"whistle","sound_category":"whistle","audio_type":"sound","phase":"test","trial_type":"image-keyboard-response","trial_index":86,"time_elapsed":2527996,"internal_node_id":"0.0-13.0-2.8","match_key":"l","participant_id":"COGS219_2020_15","correct":true},{"rt":null,"stimulus":"Sounds/correct.wav","key_press":null,"block":1,"trial_type":"audio-keyboard-response","trial_index":87,"time_elapsed":2529999,"internal_node_id":"0.0-13.0-3.8","match_key":"l","participant_id":"COGS219_2020_15"},{"rt":null,"stimulus":"Sounds/dog_label.wav","key_press":null,"block":1,"trial_type":"audio-keyboard-response","trial_index":88,"time_elapsed":2530662,"internal_node_id":"0.0-13.0-0.9","match_key":"l","participant_id":"COGS219_2020_15"},{"rt":null,"stimulus":"<p style=\"font-size: 48px;\">+</p>","key_press":null,"block":1,"trial_type":"html-keyboard-response","trial_index":89,"time_elapsed":2531661,"internal_node_id":"0.0-13.0-1.9","match_key":"l","participant_id":"COGS219_2020_15"},{"rt":446.45499999728054,"stimulus":"Images/dog_1.png","key_press":76,"stim_onset":1581875412272,"block":1,"match_type":"match","image_category":"dog","sound_category":"dog","audio_type":"label","phase":"test","trial_type":"image-keyboard-response","trial_index":90,"time_elapsed":2532108,"internal_node_id":"0.0-13.0-2.9","match_key":"l","participant_id":"COGS219_2020_15","correct":true},{"rt":null,"stimulus":"Sounds/correct.wav","key_press":null,"block":1,"trial_type":"audio-keyboard-response","trial_index":91,"time_elapsed":2534117,"internal_node_id":"0.0-13.0-3.9","match_key":"l","participant_id":"COGS219_2020_15"},{"rt":null,"stimulus":"Sounds/whistle_label.wav","key_press":null,"block":1,"trial_type":"audio-keyboard-response","trial_index":92,"time_elapsed":2534821,"internal_node_id":"0.0-13.0-0.10","match_key":"l","participant_id":"COGS219_2020_15"},{"rt":null,"stimulus":"<p style=\"font-size: 48px;\">+</p>","key_press":null,"block":1,"trial_type":"html-keyboard-response","trial_index":93,"time_elapsed":2535811,"internal_node_id":"0.0-13.0-1.10","match_key":"l","participant_id":"COGS219_2020_15"},{"rt":504.2950000059791,"stimulus":"Images/whistle_orig.png","key_press":76,"stim_onset":1581875416421,"block":1,"match_type":"match","image_category":"whistle","sound_category":"whistle","audio_type":"label","phase":"test","trial_type":"image-keyboard-response","trial_index":94,"time_elapsed":2536316,"internal_node_id":"0.0-13.0-2.10","match_key":"l","participant_id":"COGS219_2020_15","correct":true},{"rt":null,"stimulus":"Sounds/correct.wav","key_press":null,"block":1,"trial_type":"audio-keyboard-response","trial_index":95,"time_elapsed":2538333,"internal_node_id":"0.0-13.0-3.10","match_key":"l","participant_id":"COGS219_2020_15"},{"rt":null,"stimulus":"Sounds/frog_label.wav","key_press":null,"block":1,"trial_type":"audio-keyboard-response","trial_index":96,"time_elapsed":2539241,"internal_node_id":"0.0-13.0-0.11","match_key":"l","participant_id":"COGS219_2020_15"},{"rt":null,"stimulus":"<p style=\"font-size: 48px;\">+</p>","key_press":null,"block":1,"trial_type":"html-keyboard-response","trial_index":97,"time_elapsed":2540244,"internal_node_id":"0.0-13.0-1.11","match_key":"l","participant_id":"COGS219_2020_15"},{"rt":550.925000003539,"stimulus":"Images/gun_cartoon.png","key_press":65,"stim_onset":1581875420854,"block":1,"match_type":"non-match","image_category":"gun","sound_category":"frog","audio_type":"label","phase":"test","trial_type":"image-keyboard-response","trial_index":98,"time_elapsed":2540796,"internal_node_id":"0.0-13.0-2.11","match_key":"l","participant_id":"COGS219_2020_15","correct":true},{"rt":null,"stimulus":"Sounds/correct.wav","key_press":null,"block":1,"trial_type":"audio-keyboard-response","trial_index":99,"time_elapsed":2542799,"internal_node_id":"0.0-13.0-3.11","match_key":"l","participant_id":"COGS219_2020_15"},{"rt":null,"stimulus":"Sounds/frog_sound.wav","key_press":null,"block":1,"trial_type":"audio-keyboard-response","trial_index":100,"time_elapsed":2543702,"internal_node_id":"0.0-13.0-0.12","match_key":"l","participant_id":"COGS219_2020_15"},{"rt":null,"stimulus":"<p style=\"font-size: 48px;\">+</p>","key_press":null,"block":1,"trial_type":"html-keyboard-response","trial_index":101,"time_elapsed":2544694,"internal_node_id":"0.0-13.0-1.12","match_key":"l","participant_id":"COGS219_2020_15"},{"rt":372.99500001221895,"stimulus":"Images/frog_1.png","key_press":76,"stim_onset":1581875425304,"block":1,"match_type":"match","image_category":"frog","sound_category":"frog","audio_type":"sound","phase":"test","trial_type":"image-keyboard-response","trial_index":102,"time_elapsed":2545068,"internal_node_id":"0.0-13.0-2.12","match_key":"l","participant_id":"COGS219_2020_15","correct":true},{"rt":null,"stimulus":"Sounds/correct.wav","key_press":null,"block":1,"trial_type":"audio-keyboard-response","trial_index":103,"time_elapsed":2547082,"internal_node_id":"0.0-13.0-3.12","match_key":"l","participant_id":"COGS219_2020_15"},{"rt":null,"stimulus":"Sounds/cow_label.wav","key_press":null,"block":1,"trial_type":"audio-keyboard-response","trial_index":104,"time_elapsed":2548101,"internal_node_id":"0.0-13.0-0.13","match_key":"l","participant_id":"COGS219_2020_15"},{"rt":null,"stimulus":"<p style=\"font-size: 48px;\">+</p>","key_press":null,"block":1,"trial_type":"html-keyboard-response","trial_index":105,"time_elapsed":2549094,"internal_node_id":"0.0-13.0-1.13","match_key":"l","participant_id":"COGS219_2020_15"},{"rt":500.8649999946356,"stimulus":"Images/cow_orig.png","key_press":76,"stim_onset":1581875429705,"block":1,"match_type":"match","image_category":"cow","sound_category":"cow","audio_type":"label","phase":"test","trial_type":"image-keyboard-response","trial_index":106,"time_elapsed":2549596,"internal_node_id":"0.0-13.0-2.13","match_key":"l","participant_id":"COGS219_2020_15","correct":true},{"rt":null,"stimulus":"Sounds/correct.wav","key_press":null,"block":1,"trial_type":"audio-keyboard-response","trial_index":107,"time_elapsed":2551599,"internal_node_id":"0.0-13.0-3.13","match_key":"l","participant_id":"COGS219_2020_15"},{"rt":null,"stimulus":"Sounds/motorcycle_label.wav","key_press":null,"block":1,"trial_type":"audio-keyboard-response","trial_index":108,"time_elapsed":2552741,"internal_node_id":"0.0-13.0-0.14","match_key":"l","participant_id":"COGS219_2020_15"},{"rt":null,"stimulus":"<p style=\"font-size: 48px;\">+</p>","key_press":null,"block":1,"trial_type":"html-keyboard-response","trial_index":109,"time_elapsed":2553745,"internal_node_id":"0.0-13.0-1.14","match_key":"l","participant_id":"COGS219_2020_15"},{"rt":586.3899999968708,"stimulus":"Images/frog_orig.png","key_press":76,"stim_onset":1581875434355,"block":1,"match_type":"non-match","image_category":"frog","sound_category":"motorcycle","audio_type":"label","phase":"test","trial_type":"image-keyboard-response","trial_index":110,"time_elapsed":2554332,"internal_node_id":"0.0-13.0-2.14","match_key":"l","participant_id":"COGS219_2020_15","correct":false},{"rt":null,"stimulus":"Sounds/incorrect.wav","key_press":null,"block":1,"trial_type":"audio-keyboard-response","trial_index":111,"time_elapsed":2556334,"internal_node_id":"0.0-13.0-3.14","match_key":"l","participant_id":"COGS219_2020_15"},{"rt":null,"stimulus":"Sounds/car_sound.wav","key_press":null,"block":1,"trial_type":"audio-keyboard-response","trial_index":112,"time_elapsed":2557421,"internal_node_id":"0.0-13.0-0.15","match_key":"l","participant_id":"COGS219_2020_15"},{"rt":null,"stimulus":"<p style=\"font-size: 48px;\">+</p>","key_press":null,"block":1,"trial_type":"html-keyboard-response","trial_index":113,"time_elapsed":2558411,"internal_node_id":"0.0-13.0-1.15","match_key":"l","participant_id":"COGS219_2020_15"},{"rt":1232.3349999934435,"stimulus":"Images/whistle_2.png","key_press":76,"stim_onset":1581875439021,"block":1,"match_type":"non-match","image_category":"whistle","sound_category":"car","audio_type":"sound","phase":"test","trial_type":"image-keyboard-response","trial_index":114,"time_elapsed":2559645,"internal_node_id":"0.0-13.0-2.15","match_key":"l","participant_id":"COGS219_2020_15","correct":false},{"rt":null,"stimulus":"Sounds/incorrect.wav","key_press":null,"block":1,"trial_type":"audio-keyboard-response","trial_index":115,"time_elapsed":2561654,"internal_node_id":"0.0-13.0-3.15","match_key":"l","participant_id":"COGS219_2020_15"},{"rt":null,"stimulus":"Sounds/rooster_label.wav","key_press":null,"block":1,"trial_type":"audio-keyboard-response","trial_index":116,"time_elapsed":2562362,"internal_node_id":"0.0-13.0-0.16","match_key":"l","participant_id":"COGS219_2020_15"},{"rt":null,"stimulus":"<p style=\"font-size: 48px;\">+</p>","key_press":null,"block":1,"trial_type":"html-keyboard-response","trial_index":117,"time_elapsed":2563361,"internal_node_id":"0.0-13.0-1.16","match_key":"l","participant_id":"COGS219_2020_15"},{"rt":698.0949999997392,"stimulus":"Images/rooster_cartoon.png","key_press":76,"stim_onset":1581875443972,"block":1,"match_type":"match","image_category":"rooster","sound_category":"rooster","audio_type":"label","phase":"test","trial_type":"image-keyboard-response","trial_index":118,"time_elapsed":2564061,"internal_node_id":"0.0-13.0-2.16","match_key":"l","participant_id":"COGS219_2020_15","correct":true},{"rt":null,"stimulus":"Sounds/correct.wav","key_press":null,"block":1,"trial_type":"audio-keyboard-response","trial_index":119,"time_elapsed":2566068,"internal_node_id":"0.0-13.0-3.16","match_key":"l","participant_id":"COGS219_2020_15"},{"rt":null,"stimulus":"Sounds/motorcycle_sound.wav","key_press":null,"block":1,"trial_type":"audio-keyboard-response","trial_index":120,"time_elapsed":2567182,"internal_node_id":"0.0-13.0-0.17","match_key":"l","participant_id":"COGS219_2020_15"},{"rt":null,"stimulus":"<p style=\"font-size: 48px;\">+</p>","key_press":null,"block":1,"trial_type":"html-keyboard-response","trial_index":121,"time_elapsed":2568178,"internal_node_id":"0.0-13.0-1.17","match_key":"l","participant_id":"COGS219_2020_15"},{"rt":873.265000001993,"stimulus":"Images/motorcycle_orig.png","key_press":76,"stim_onset":1581875448788,"block":1,"match_type":"match","image_category":"motorcycle","sound_category":"motorcycle","audio_type":"sound","phase":"test","trial_type":"image-keyboard-response","trial_index":122,"time_elapsed":2569053,"internal_node_id":"0.0-13.0-2.17","match_key":"l","participant_id":"COGS219_2020_15","correct":true},{"rt":null,"stimulus":"Sounds/correct.wav","key_press":null,"block":1,"trial_type":"audio-keyboard-response","trial_index":123,"time_elapsed":2571066,"internal_node_id":"0.0-13.0-3.17","match_key":"l","participant_id":"COGS219_2020_15"},{"rt":null,"stimulus":"Sounds/car_sound.wav","key_press":null,"block":1,"trial_type":"audio-keyboard-response","trial_index":124,"time_elapsed":2572122,"internal_node_id":"0.0-13.0-0.18","match_key":"l","participant_id":"COGS219_2020_15"},{"rt":null,"stimulus":"<p style=\"font-size: 48px;\">+</p>","key_press":null,"block":1,"trial_type":"html-keyboard-response","trial_index":125,"time_elapsed":2573112,"internal_node_id":"0.0-13.0-1.18","match_key":"l","participant_id":"COGS219_2020_15"},{"rt":644.434999994468,"stimulus":"Images/motorcycle_3.png","key_press":76,"stim_onset":1581875453722,"block":1,"match_type":"non-match","image_category":"motorcycle","sound_category":"car","audio_type":"sound","phase":"test","trial_type":"image-keyboard-response","trial_index":126,"time_elapsed":2573757,"internal_node_id":"0.0-13.0-2.18","match_key":"l","participant_id":"COGS219_2020_15","correct":false},{"rt":null,"stimulus":"Sounds/incorrect.wav","key_press":null,"block":1,"trial_type":"audio-keyboard-response","trial_index":127,"time_elapsed":2575765,"internal_node_id":"0.0-13.0-3.18","match_key":"l","participant_id":"COGS219_2020_15"},{"rt":null,"stimulus":"Sounds/rooster_label.wav","key_press":null,"block":1,"trial_type":"audio-keyboard-response","trial_index":128,"time_elapsed":2576442,"internal_node_id":"0.0-13.0-0.19","match_key":"l","participant_id":"COGS219_2020_15"},{"rt":null,"stimulus":"<p style=\"font-size: 48px;\">+</p>","key_press":null,"block":1,"trial_type":"html-keyboard-response","trial_index":129,"time_elapsed":2577445,"internal_node_id":"0.0-13.0-1.19","match_key":"l","participant_id":"COGS219_2020_15"},{"rt":646.6550000039861,"stimulus":"Images/rooster_3.png","key_press":76,"stim_onset":1581875458055,"block":1,"match_type":"match","image_category":"rooster","sound_category":"rooster","audio_type":"label","phase":"test","trial_type":"image-keyboard-response","trial_index":130,"time_elapsed":2578092,"internal_node_id":"0.0-13.0-2.19","match_key":"l","participant_id":"COGS219_2020_15","correct":true},{"rt":null,"stimulus":"Sounds/correct.wav","key_press":null,"block":1,"trial_type":"audio-keyboard-response","trial_index":131,"time_elapsed":2580102,"internal_node_id":"0.0-13.0-3.19","match_key":"l","participant_id":"COGS219_2020_15"},{"rt":null,"stimulus":"Sounds/motorcycle_sound.wav","key_press":null,"block":1,"trial_type":"audio-keyboard-response","trial_index":132,"time_elapsed":2581202,"internal_node_id":"0.0-13.0-0.20","match_key":"l","participant_id":"COGS219_2020_15"},{"rt":null,"stimulus":"<p style=\"font-size: 48px;\">+</p>","key_press":null,"block":1,"trial_type":"html-keyboard-response","trial_index":133,"time_elapsed":2582195,"internal_node_id":"0.0-13.0-1.20","match_key":"l","participant_id":"COGS219_2020_15"},{"rt":1320.2949999975972,"stimulus":"Images/train_3.png","key_press":65,"stim_onset":1581875462805,"block":1,"match_type":"non-match","image_category":"train","sound_category":"motorcycle","audio_type":"sound","phase":"test","trial_type":"image-keyboard-response","trial_index":134,"time_elapsed":2583516,"internal_node_id":"0.0-13.0-2.20","match_key":"l","participant_id":"COGS219_2020_15","correct":true},{"rt":null,"stimulus":"Sounds/correct.wav","key_press":null,"block":1,"trial_type":"audio-keyboard-response","trial_index":135,"time_elapsed":2585520,"internal_node_id":"0.0-13.0-3.20","match_key":"l","participant_id":"COGS219_2020_15"},{"rt":null,"stimulus":"Sounds/cow_sound.wav","key_press":null,"block":1,"trial_type":"audio-keyboard-response","trial_index":136,"time_elapsed":2586542,"internal_node_id":"0.0-13.0-0.21","match_key":"l","participant_id":"COGS219_2020_15"},{"rt":null,"stimulus":"<p style=\"font-size: 48px;\">+</p>","key_press":null,"block":1,"trial_type":"html-keyboard-response","trial_index":137,"time_elapsed":2587545,"internal_node_id":"0.0-13.0-1.21","match_key":"l","participant_id":"COGS219_2020_15"},{"rt":562.5200000065379,"stimulus":"Images/car_cartoon.png","key_press":65,"stim_onset":1581875468155,"block":1,"match_type":"non-match","image_category":"car","sound_category":"cow","audio_type":"sound","phase":"test","trial_type":"image-keyboard-response","trial_index":138,"time_elapsed":2588109,"internal_node_id":"0.0-13.0-2.21","match_key":"l","participant_id":"COGS219_2020_15","correct":true},{"rt":null,"stimulus":"Sounds/correct.wav","key_press":null,"block":1,"trial_type":"audio-keyboard-response","trial_index":139,"time_elapsed":2590117,"internal_node_id":"0.0-13.0-3.21","match_key":"l","participant_id":"COGS219_2020_15"},{"rt":null,"stimulus":"Sounds/cow_sound.wav","key_press":null,"block":1,"trial_type":"audio-keyboard-response","trial_index":140,"time_elapsed":2591102,"internal_node_id":"0.0-13.0-0.22","match_key":"l","participant_id":"COGS219_2020_15"},{"rt":null,"stimulus":"<p style=\"font-size: 48px;\">+</p>","key_press":null,"block":1,"trial_type":"html-keyboard-response","trial_index":141,"time_elapsed":2592095,"internal_node_id":"0.0-13.0-1.22","match_key":"l","participant_id":"COGS219_2020_15"},{"rt":556.2600000123493,"stimulus":"Images/frog_3.png","key_press":65,"stim_onset":1581875472705,"block":1,"match_type":"non-match","image_category":"frog","sound_category":"cow","audio_type":"sound","phase":"test","trial_type":"image-keyboard-response","trial_index":142,"time_elapsed":2592652,"internal_node_id":"0.0-13.0-2.22","match_key":"l","participant_id":"COGS219_2020_15","correct":true},{"rt":null,"stimulus":"Sounds/correct.wav","key_press":null,"block":1,"trial_type":"audio-keyboard-response","trial_index":143,"time_elapsed":2594667,"internal_node_id":"0.0-13.0-3.22","match_key":"l","participant_id":"COGS219_2020_15"},{"rt":null,"stimulus":"Sounds/dog_label.wav","key_press":null,"block":1,"trial_type":"audio-keyboard-response","trial_index":144,"time_elapsed":2595322,"internal_node_id":"0.0-13.0-0.23","match_key":"l","participant_id":"COGS219_2020_15"},{"rt":null,"stimulus":"<p style=\"font-size: 48px;\">+</p>","key_press":null,"block":1,"trial_type":"html-keyboard-response","trial_index":145,"time_elapsed":2596312,"internal_node_id":"0.0-13.0-1.23","match_key":"l","participant_id":"COGS219_2020_15"},{"rt":627.5000000023283,"stimulus":"Images/dog_3.png","key_press":76,"stim_onset":1581875476922,"block":1,"match_type":"match","image_category":"dog","sound_category":"dog","audio_type":"label","phase":"test","trial_type":"image-keyboard-response","trial_index":146,"time_elapsed":2596940,"internal_node_id":"0.0-13.0-2.23","match_key":"l","participant_id":"COGS219_2020_15","correct":true},{"rt":null,"stimulus":"Sounds/correct.wav","key_press":null,"block":1,"trial_type":"audio-keyboard-response","trial_index":147,"time_elapsed":2598950,"internal_node_id":"0.0-13.0-3.23","match_key":"l","participant_id":"COGS219_2020_15"},{"rt":null,"stimulus":"Sounds/train_sound.wav","key_press":null,"block":1,"trial_type":"audio-keyboard-response","trial_index":148,"time_elapsed":2600242,"internal_node_id":"0.0-13.0-0.24","match_key":"l","participant_id":"COGS219_2020_15"},{"rt":null,"stimulus":"<p style=\"font-size: 48px;\">+</p>","key_press":null,"block":1,"trial_type":"html-keyboard-response","trial_index":149,"time_elapsed":2601245,"internal_node_id":"0.0-13.0-1.24","match_key":"l","participant_id":"COGS219_2020_15"},{"rt":702.6150000020862,"stimulus":"Images/train_2.png","key_press":76,"stim_onset":1581875481855,"block":1,"match_type":"match","image_category":"train","sound_category":"train","audio_type":"sound","phase":"test","trial_type":"image-keyboard-response","trial_index":150,"time_elapsed":2601949,"internal_node_id":"0.0-13.0-2.24","match_key":"l","participant_id":"COGS219_2020_15","correct":true},{"rt":null,"stimulus":"Sounds/correct.wav","key_press":null,"block":1,"trial_type":"audio-keyboard-response","trial_index":151,"time_elapsed":2603966,"internal_node_id":"0.0-13.0-3.24","match_key":"l","participant_id":"COGS219_2020_15"},{"rt":null,"stimulus":"Sounds/gun_label.wav","key_press":null,"block":1,"trial_type":"audio-keyboard-response","trial_index":152,"time_elapsed":2604542,"internal_node_id":"0.0-13.0-0.25","match_key":"l","participant_id":"COGS219_2020_15"},{"rt":null,"stimulus":"<p style=\"font-size: 48px;\">+</p>","key_press":null,"block":1,"trial_type":"html-keyboard-response","trial_index":153,"time_elapsed":2605545,"internal_node_id":"0.0-13.0-1.25","match_key":"l","participant_id":"COGS219_2020_15"},{"rt":513.980000003241,"stimulus":"Images/gun_1.png","key_press":76,"stim_onset":1581875486155,"block":1,"match_type":"match","image_category":"gun","sound_category":"gun","audio_type":"label","phase":"test","trial_type":"image-keyboard-response","trial_index":154,"time_elapsed":2606060,"internal_node_id":"0.0-13.0-2.25","match_key":"l","participant_id":"COGS219_2020_15","correct":true},{"rt":null,"stimulus":"Sounds/correct.wav","key_press":null,"block":1,"trial_type":"audio-keyboard-response","trial_index":155,"time_elapsed":2608067,"internal_node_id":"0.0-13.0-3.25","match_key":"l","participant_id":"COGS219_2020_15"},{"rt":null,"stimulus":"Sounds/cat_label.wav","key_press":null,"block":1,"trial_type":"audio-keyboard-response","trial_index":156,"time_elapsed":2608902,"internal_node_id":"0.0-13.0-0.26","match_key":"l","participant_id":"COGS219_2020_15"},{"rt":null,"stimulus":"<p style=\"font-size: 48px;\">+</p>","key_press":null,"block":1,"trial_type":"html-keyboard-response","trial_index":157,"time_elapsed":2609895,"internal_node_id":"0.0-13.0-1.26","match_key":"l","participant_id":"COGS219_2020_15"},{"rt":628.1849999940023,"stimulus":"Images/rooster_orig.png","key_press":65,"stim_onset":1581875490505,"block":1,"match_type":"non-match","image_category":"rooster","sound_category":"cat","audio_type":"label","phase":"test","trial_type":"image-keyboard-response","trial_index":158,"time_elapsed":2610524,"internal_node_id":"0.0-13.0-2.26","match_key":"l","participant_id":"COGS219_2020_15","correct":true},{"rt":null,"stimulus":"Sounds/correct.wav","key_press":null,"block":1,"trial_type":"audio-keyboard-response","trial_index":159,"time_elapsed":2612535,"internal_node_id":"0.0-13.0-3.26","match_key":"l","participant_id":"COGS219_2020_15"},{"rt":null,"stimulus":"Sounds/cat_sound.wav","key_press":null,"block":1,"trial_type":"audio-keyboard-response","trial_index":160,"time_elapsed":2613382,"internal_node_id":"0.0-13.0-0.27","match_key":"l","participant_id":"COGS219_2020_15"},{"rt":null,"stimulus":"<p style=\"font-size: 48px;\">+</p>","key_press":null,"block":1,"trial_type":"html-keyboard-response","trial_index":161,"time_elapsed":2614379,"internal_node_id":"0.0-13.0-1.27","match_key":"l","participant_id":"COGS219_2020_15"},{"rt":449.06000001356006,"stimulus":"Images/dog_cartoon.png","key_press":65,"stim_onset":1581875494989,"block":1,"match_type":"non-match","image_category":"dog","sound_category":"cat","audio_type":"sound","phase":"test","trial_type":"image-keyboard-response","trial_index":162,"time_elapsed":2614829,"internal_node_id":"0.0-13.0-2.27","match_key":"l","participant_id":"COGS219_2020_15","correct":true},{"rt":null,"stimulus":"Sounds/correct.wav","key_press":null,"block":1,"trial_type":"audio-keyboard-response","trial_index":163,"time_elapsed":2616834,"internal_node_id":"0.0-13.0-3.27","match_key":"l","participant_id":"COGS219_2020_15"},{"rt":null,"stimulus":"Sounds/whistle_sound.wav","key_press":null,"block":1,"trial_type":"audio-keyboard-response","trial_index":164,"time_elapsed":2617542,"internal_node_id":"0.0-13.0-0.28","match_key":"l","participant_id":"COGS219_2020_15"},{"rt":null,"stimulus":"<p style=\"font-size: 48px;\">+</p>","key_press":null,"block":1,"trial_type":"html-keyboard-response","trial_index":165,"time_elapsed":2618545,"internal_node_id":"0.0-13.0-1.28","match_key":"l","participant_id":"COGS219_2020_15"},{"rt":666.1100000054576,"stimulus":"Images/whistle_3.png","key_press":76,"stim_onset":1581875499155,"block":1,"match_type":"match","image_category":"whistle","sound_category":"whistle","audio_type":"sound","phase":"test","trial_type":"image-keyboard-response","trial_index":166,"time_elapsed":2619212,"internal_node_id":"0.0-13.0-2.28","match_key":"l","participant_id":"COGS219_2020_15","correct":true},{"rt":null,"stimulus":"Sounds/correct.wav","key_press":null,"block":1,"trial_type":"audio-keyboard-response","trial_index":167,"time_elapsed":2621217,"internal_node_id":"0.0-13.0-3.28","match_key":"l","participant_id":"COGS219_2020_15"},{"rt":null,"stimulus":"Sounds/rooster_label.wav","key_press":null,"block":1,"trial_type":"audio-keyboard-response","trial_index":168,"time_elapsed":2621922,"internal_node_id":"0.0-13.0-0.29","match_key":"l","participant_id":"COGS219_2020_15"},{"rt":null,"stimulus":"<p style=\"font-size: 48px;\">+</p>","key_press":null,"block":1,"trial_type":"html-keyboard-response","trial_index":169,"time_elapsed":2622913,"internal_node_id":"0.0-13.0-1.29","match_key":"l","participant_id":"COGS219_2020_15"},{"rt":523.3349999906495,"stimulus":"Images/car_3.png","key_press":65,"stim_onset":1581875503523,"block":1,"match_type":"non-match","image_category":"car","sound_category":"rooster","audio_type":"label","phase":"test","trial_type":"image-keyboard-response","trial_index":170,"time_elapsed":2623437,"internal_node_id":"0.0-13.0-2.29","match_key":"l","participant_id":"COGS219_2020_15","correct":true},{"rt":null,"stimulus":"Sounds/correct.wav","key_press":null,"block":1,"trial_type":"audio-keyboard-response","trial_index":171,"time_elapsed":2625450,"internal_node_id":"0.0-13.0-3.29","match_key":"l","participant_id":"COGS219_2020_15"},{"rt":null,"stimulus":"Sounds/rooster_sound.wav","key_press":null,"block":1,"trial_type":"audio-keyboard-response","trial_index":172,"time_elapsed":2626142,"internal_node_id":"0.0-13.0-0.30","match_key":"l","participant_id":"COGS219_2020_15"},{"rt":null,"stimulus":"<p style=\"font-size: 48px;\">+</p>","key_press":null,"block":1,"trial_type":"html-keyboard-response","trial_index":173,"time_elapsed":2627146,"internal_node_id":"0.0-13.0-1.30","match_key":"l","participant_id":"COGS219_2020_15"},{"rt":466.1100000087172,"stimulus":"Images/dog_3.png","key_press":65,"stim_onset":1581875507756,"block":1,"match_type":"non-match","image_category":"dog","sound_category":"rooster","audio_type":"sound","phase":"test","trial_type":"image-keyboard-response","trial_index":174,"time_elapsed":2627613,"internal_node_id":"0.0-13.0-2.30","match_key":"l","participant_id":"COGS219_2020_15","correct":true},{"rt":null,"stimulus":"Sounds/correct.wav","key_press":null,"block":1,"trial_type":"audio-keyboard-response","trial_index":175,"time_elapsed":2629618,"internal_node_id":"0.0-13.0-3.30","match_key":"l","participant_id":"COGS219_2020_15"},{"rt":null,"stimulus":"Sounds/dog_label.wav","key_press":null,"block":1,"trial_type":"audio-keyboard-response","trial_index":176,"time_elapsed":2630282,"internal_node_id":"0.0-13.0-0.31","match_key":"l","participant_id":"COGS219_2020_15"},{"rt":null,"stimulus":"<p style=\"font-size: 48px;\">+</p>","key_press":null,"block":1,"trial_type":"html-keyboard-response","trial_index":177,"time_elapsed":2631279,"internal_node_id":"0.0-13.0-1.31","match_key":"l","participant_id":"COGS219_2020_15"},{"rt":460.5799999991432,"stimulus":"Images/train_2.png","key_press":65,"stim_onset":1581875511890,"block":1,"match_type":"non-match","image_category":"train","sound_category":"dog","audio_type":"label","phase":"test","trial_type":"image-keyboard-response","trial_index":178,"time_elapsed":2631741,"internal_node_id":"0.0-13.0-2.31","match_key":"l","participant_id":"COGS219_2020_15","correct":true},{"rt":null,"stimulus":"Sounds/correct.wav","key_press":null,"block":1,"trial_type":"audio-keyboard-response","trial_index":179,"time_elapsed":2633749,"internal_node_id":"0.0-13.0-3.31","match_key":"l","participant_id":"COGS219_2020_15"},{"rt":null,"stimulus":"Sounds/car_label.wav","key_press":null,"block":1,"trial_type":"audio-keyboard-response","trial_index":180,"time_elapsed":2634822,"internal_node_id":"0.0-13.0-0.32","match_key":"l","participant_id":"COGS219_2020_15"},{"rt":null,"stimulus":"<p style=\"font-size: 48px;\">+</p>","key_press":null,"block":1,"trial_type":"html-keyboard-response","trial_index":181,"time_elapsed":2635813,"internal_node_id":"0.0-13.0-1.32","match_key":"l","participant_id":"COGS219_2020_15"},{"rt":551.1400000108406,"stimulus":"Images/car_1.png","key_press":65,"stim_onset":1581875516423,"block":1,"match_type":"match","image_category":"car","sound_category":"car","audio_type":"label","phase":"test","trial_type":"image-keyboard-response","trial_index":182,"time_elapsed":2636365,"internal_node_id":"0.0-13.0-2.32","match_key":"l","participant_id":"COGS219_2020_15","correct":false},{"rt":null,"stimulus":"Sounds/incorrect.wav","key_press":null,"block":1,"trial_type":"audio-keyboard-response","trial_index":183,"time_elapsed":2638370,"internal_node_id":"0.0-13.0-3.32","match_key":"l","participant_id":"COGS219_2020_15"},{"rt":null,"stimulus":"Sounds/cow_sound.wav","key_press":null,"block":1,"trial_type":"audio-keyboard-response","trial_index":184,"time_elapsed":2639382,"internal_node_id":"0.0-13.0-0.33","match_key":"l","participant_id":"COGS219_2020_15"},{"rt":null,"stimulus":"<p style=\"font-size: 48px;\">+</p>","key_press":null,"block":1,"trial_type":"html-keyboard-response","trial_index":185,"time_elapsed":2640379,"internal_node_id":"0.0-13.0-1.33","match_key":"l","participant_id":"COGS219_2020_15"},{"rt":544.7249999996275,"stimulus":"Images/cow_1.png","key_press":76,"stim_onset":1581875520989,"block":1,"match_type":"match","image_category":"cow","sound_category":"cow","audio_type":"sound","phase":"test","trial_type":"image-keyboard-response","trial_index":186,"time_elapsed":2640925,"internal_node_id":"0.0-13.0-2.33","match_key":"l","participant_id":"COGS219_2020_15","correct":true},{"rt":null,"stimulus":"Sounds/correct.wav","key_press":null,"block":1,"trial_type":"audio-keyboard-response","trial_index":187,"time_elapsed":2642933,"internal_node_id":"0.0-13.0-3.33","match_key":"l","participant_id":"COGS219_2020_15"},{"rt":null,"stimulus":"Sounds/car_sound.wav","key_press":null,"block":1,"trial_type":"audio-keyboard-response","trial_index":188,"time_elapsed":2644022,"internal_node_id":"0.0-13.0-0.34","match_key":"l","participant_id":"COGS219_2020_15"},{"rt":null,"stimulus":"<p style=\"font-size: 48px;\">+</p>","key_press":null,"block":1,"trial_type":"html-keyboard-response","trial_index":189,"time_elapsed":2645013,"internal_node_id":"0.0-13.0-1.34","match_key":"l","participant_id":"COGS219_2020_15"},{"rt":647.3299999926239,"stimulus":"Images/train_1.png","key_press":65,"stim_onset":1581875525623,"block":1,"match_type":"non-match","image_category":"train","sound_category":"car","audio_type":"sound","phase":"test","trial_type":"image-keyboard-response","trial_index":190,"time_elapsed":2645661,"internal_node_id":"0.0-13.0-2.34","match_key":"l","participant_id":"COGS219_2020_15","correct":true},{"rt":null,"stimulus":"Sounds/correct.wav","key_press":null,"block":1,"trial_type":"audio-keyboard-response","trial_index":191,"time_elapsed":2647669,"internal_node_id":"0.0-13.0-3.34","match_key":"l","participant_id":"COGS219_2020_15"},{"rt":null,"stimulus":"Sounds/cat_label.wav","key_press":null,"block":1,"trial_type":"audio-keyboard-response","trial_index":192,"time_elapsed":2648502,"internal_node_id":"0.0-13.0-0.35","match_key":"l","participant_id":"COGS219_2020_15"},{"rt":null,"stimulus":"<p style=\"font-size: 48px;\">+</p>","key_press":null,"block":1,"trial_type":"html-keyboard-response","trial_index":193,"time_elapsed":2649496,"internal_node_id":"0.0-13.0-1.35","match_key":"l","participant_id":"COGS219_2020_15"},{"rt":803.8349999985658,"stimulus":"Images/cat_orig.png","key_press":76,"stim_onset":1581875530106,"block":1,"match_type":"match","image_category":"cat","sound_category":"cat","audio_type":"label","phase":"test","trial_type":"image-keyboard-response","trial_index":194,"time_elapsed":2650301,"internal_node_id":"0.0-13.0-2.35","match_key":"l","participant_id":"COGS219_2020_15","correct":true},{"rt":null,"stimulus":"Sounds/correct.wav","key_press":null,"block":1,"trial_type":"audio-keyboard-response","trial_index":195,"time_elapsed":2652318,"internal_node_id":"0.0-13.0-3.35","match_key":"l","participant_id":"COGS219_2020_15"},{"rt":null,"stimulus":"Sounds/gun_sound.wav","key_press":null,"block":1,"trial_type":"audio-keyboard-response","trial_index":196,"time_elapsed":2652902,"internal_node_id":"0.0-13.0-0.36","match_key":"l","participant_id":"COGS219_2020_15"},{"rt":null,"stimulus":"<p style=\"font-size: 48px;\">+</p>","key_press":null,"block":1,"trial_type":"html-keyboard-response","trial_index":197,"time_elapsed":2653896,"internal_node_id":"0.0-13.0-1.36","match_key":"l","participant_id":"COGS219_2020_15"},{"rt":579.969999991823,"stimulus":"Images/gun_2.png","key_press":76,"stim_onset":1581875534506,"block":1,"match_type":"match","image_category":"gun","sound_category":"gun","audio_type":"sound","phase":"test","trial_type":"image-keyboard-response","trial_index":198,"time_elapsed":2654477,"internal_node_id":"0.0-13.0-2.36","match_key":"l","participant_id":"COGS219_2020_15","correct":true},{"rt":null,"stimulus":"Sounds/correct.wav","key_press":null,"block":1,"trial_type":"audio-keyboard-response","trial_index":199,"time_elapsed":2656484,"internal_node_id":"0.0-13.0-3.36","match_key":"l","participant_id":"COGS219_2020_15"},{"rt":null,"stimulus":"Sounds/gun_sound.wav","key_press":null,"block":1,"trial_type":"audio-keyboard-response","trial_index":200,"time_elapsed":2657042,"internal_node_id":"0.0-13.0-0.37","match_key":"l","participant_id":"COGS219_2020_15"},{"rt":null,"stimulus":"<p style=\"font-size: 48px;\">+</p>","key_press":null,"block":1,"trial_type":"html-keyboard-response","trial_index":201,"time_elapsed":2658046,"internal_node_id":"0.0-13.0-1.37","match_key":"l","participant_id":"COGS219_2020_15"},{"rt":621.7199999955483,"stimulus":"Images/whistle_orig.png","key_press":65,"stim_onset":1581875538656,"block":1,"match_type":"non-match","image_category":"whistle","sound_category":"gun","audio_type":"sound","phase":"test","trial_type":"image-keyboard-response","trial_index":202,"time_elapsed":2658669,"internal_node_id":"0.0-13.0-2.37","match_key":"l","participant_id":"COGS219_2020_15","correct":true},{"rt":null,"stimulus":"Sounds/correct.wav","key_press":null,"block":1,"trial_type":"audio-keyboard-response","trial_index":203,"time_elapsed":2660684,"internal_node_id":"0.0-13.0-3.37","match_key":"l","participant_id":"COGS219_2020_15"},{"rt":null,"stimulus":"Sounds/car_label.wav","key_press":null,"block":1,"trial_type":"audio-keyboard-response","trial_index":204,"time_elapsed":2661762,"internal_node_id":"0.0-13.0-0.38","match_key":"l","participant_id":"COGS219_2020_15"},{"rt":null,"stimulus":"<p style=\"font-size: 48px;\">+</p>","key_press":null,"block":1,"trial_type":"html-keyboard-response","trial_index":205,"time_elapsed":2662779,"internal_node_id":"0.0-13.0-1.38","match_key":"l","participant_id":"COGS219_2020_15"},{"rt":928.285000001546,"stimulus":"Images/car_2.png","key_press":76,"stim_onset":1581875543390,"block":1,"match_type":"match","image_category":"car","sound_category":"car","audio_type":"label","phase":"test","trial_type":"image-keyboard-response","trial_index":206,"time_elapsed":2663709,"internal_node_id":"0.0-13.0-2.38","match_key":"l","participant_id":"COGS219_2020_15","correct":true},{"rt":null,"stimulus":"Sounds/correct.wav","key_press":null,"block":1,"trial_type":"audio-keyboard-response","trial_index":207,"time_elapsed":2665719,"internal_node_id":"0.0-13.0-3.38","match_key":"l","participant_id":"COGS219_2020_15"},{"rt":null,"stimulus":"Sounds/motorcycle_label.wav","key_press":null,"block":1,"trial_type":"audio-keyboard-response","trial_index":208,"time_elapsed":2666862,"internal_node_id":"0.0-13.0-0.39","match_key":"l","participant_id":"COGS219_2020_15"},{"rt":null,"stimulus":"<p style=\"font-size: 48px;\">+</p>","key_press":null,"block":1,"trial_type":"html-keyboard-response","trial_index":209,"time_elapsed":2667880,"internal_node_id":"0.0-13.0-1.39","match_key":"l","participant_id":"COGS219_2020_15"},{"rt":484.55500000249594,"stimulus":"Images/cow_orig.png","key_press":65,"stim_onset":1581875548490,"block":1,"match_type":"non-match","image_category":"cow","sound_category":"motorcycle","audio_type":"label","phase":"test","trial_type":"image-keyboard-response","trial_index":210,"time_elapsed":2668365,"internal_node_id":"0.0-13.0-2.39","match_key":"l","participant_id":"COGS219_2020_15","correct":true},{"rt":null,"stimulus":"Sounds/correct.wav","key_press":null,"block":1,"trial_type":"audio-keyboard-response","trial_index":211,"time_elapsed":2670368,"internal_node_id":"0.0-13.0-3.39","match_key":"l","participant_id":"COGS219_2020_15"},{"rt":null,"stimulus":"Sounds/car_sound.wav","key_press":null,"block":1,"trial_type":"audio-keyboard-response","trial_index":212,"time_elapsed":2671442,"internal_node_id":"0.0-13.0-0.40","match_key":"l","participant_id":"COGS219_2020_15"},{"rt":null,"stimulus":"<p style=\"font-size: 48px;\">+</p>","key_press":null,"block":1,"trial_type":"html-keyboard-response","trial_index":213,"time_elapsed":2672446,"internal_node_id":"0.0-13.0-1.40","match_key":"l","participant_id":"COGS219_2020_15"},{"rt":525.5049999980256,"stimulus":"Images/dog_orig.png","key_press":65,"stim_onset":1581875553056,"block":1,"match_type":"non-match","image_category":"dog","sound_category":"car","audio_type":"sound","phase":"test","trial_type":"image-keyboard-response","trial_index":214,"time_elapsed":2672973,"internal_node_id":"0.0-13.0-2.40","match_key":"l","participant_id":"COGS219_2020_15","correct":true},{"rt":null,"stimulus":"Sounds/correct.wav","key_press":null,"block":1,"trial_type":"audio-keyboard-response","trial_index":215,"time_elapsed":2674983,"internal_node_id":"0.0-13.0-3.40","match_key":"l","participant_id":"COGS219_2020_15"},{"rt":null,"stimulus":"Sounds/frog_sound.wav","key_press":null,"block":1,"trial_type":"audio-keyboard-response","trial_index":216,"time_elapsed":2675882,"internal_node_id":"0.0-13.0-0.41","match_key":"l","participant_id":"COGS219_2020_15"},{"rt":null,"stimulus":"<p style=\"font-size: 48px;\">+</p>","key_press":null,"block":1,"trial_type":"html-keyboard-response","trial_index":217,"time_elapsed":2676880,"internal_node_id":"0.0-13.0-1.41","match_key":"l","participant_id":"COGS219_2020_15"},{"rt":555.9349999967963,"stimulus":"Images/train_orig.png","key_press":65,"stim_onset":1581875557490,"block":1,"match_type":"non-match","image_category":"train","sound_category":"frog","audio_type":"sound","phase":"test","trial_type":"image-keyboard-response","trial_index":218,"time_elapsed":2677437,"internal_node_id":"0.0-13.0-2.41","match_key":"l","participant_id":"COGS219_2020_15","correct":true},{"rt":null,"stimulus":"Sounds/correct.wav","key_press":null,"block":1,"trial_type":"audio-keyboard-response","trial_index":219,"time_elapsed":2679451,"internal_node_id":"0.0-13.0-3.41","match_key":"l","participant_id":"COGS219_2020_15"},{"rt":null,"stimulus":"Sounds/car_sound.wav","key_press":null,"block":1,"trial_type":"audio-keyboard-response","trial_index":220,"time_elapsed":2680502,"internal_node_id":"0.0-13.0-0.42","match_key":"l","participant_id":"COGS219_2020_15"},{"rt":null,"stimulus":"<p style=\"font-size: 48px;\">+</p>","key_press":null,"block":1,"trial_type":"html-keyboard-response","trial_index":221,"time_elapsed":2681497,"internal_node_id":"0.0-13.0-1.42","match_key":"l","participant_id":"COGS219_2020_15"},{"rt":739.8599999868311,"stimulus":"Images/car_cartoon.png","key_press":65,"stim_onset":1581875562107,"block":1,"match_type":"match","image_category":"car","sound_category":"car","audio_type":"sound","phase":"test","trial_type":"image-keyboard-response","trial_index":222,"time_elapsed":2682238,"internal_node_id":"0.0-13.0-2.42","match_key":"l","participant_id":"COGS219_2020_15","correct":false},{"rt":null,"stimulus":"Sounds/incorrect.wav","key_press":null,"block":1,"trial_type":"audio-keyboard-response","trial_index":223,"time_elapsed":2684251,"internal_node_id":"0.0-13.0-3.42","match_key":"l","participant_id":"COGS219_2020_15"},{"rt":null,"stimulus":"Sounds/gun_label.wav","key_press":null,"block":1,"trial_type":"audio-keyboard-response","trial_index":224,"time_elapsed":2684823,"internal_node_id":"0.0-13.0-0.43","match_key":"l","participant_id":"COGS219_2020_15"},{"rt":null,"stimulus":"<p style=\"font-size: 48px;\">+</p>","key_press":null,"block":1,"trial_type":"html-keyboard-response","trial_index":225,"time_elapsed":2685814,"internal_node_id":"0.0-13.0-1.43","match_key":"l","participant_id":"COGS219_2020_15"},{"rt":518.7549999970943,"stimulus":"Images/gun_orig.png","key_press":76,"stim_onset":1581875566424,"block":1,"match_type":"match","image_category":"gun","sound_category":"gun","audio_type":"label","phase":"test","trial_type":"image-keyboard-response","trial_index":226,"time_elapsed":2686333,"internal_node_id":"0.0-13.0-2.43","match_key":"l","participant_id":"COGS219_2020_15","correct":true},{"rt":null,"stimulus":"Sounds/correct.wav","key_press":null,"block":1,"trial_type":"audio-keyboard-response","trial_index":227,"time_elapsed":2688338,"internal_node_id":"0.0-13.0-3.43","match_key":"l","participant_id":"COGS219_2020_15"},{"rt":null,"stimulus":"Sounds/gun_label.wav","key_press":null,"block":1,"trial_type":"audio-keyboard-response","trial_index":228,"time_elapsed":2688883,"internal_node_id":"0.0-13.0-0.44","match_key":"l","participant_id":"COGS219_2020_15"},{"rt":null,"stimulus":"<p style=\"font-size: 48px;\">+</p>","key_press":null,"block":1,"trial_type":"html-keyboard-response","trial_index":229,"time_elapsed":2689880,"internal_node_id":"0.0-13.0-1.44","match_key":"l","participant_id":"COGS219_2020_15"},{"rt":484.08500000368804,"stimulus":"Images/cat_cartoon.png","key_press":65,"stim_onset":1581875570490,"block":1,"match_type":"non-match","image_category":"cat","sound_category":"gun","audio_type":"label","phase":"test","trial_type":"image-keyboard-response","trial_index":230,"time_elapsed":2690365,"internal_node_id":"0.0-13.0-2.44","match_key":"l","participant_id":"COGS219_2020_15","correct":true},{"rt":null,"stimulus":"Sounds/correct.wav","key_press":null,"block":1,"trial_type":"audio-keyboard-response","trial_index":231,"time_elapsed":2692369,"internal_node_id":"0.0-13.0-3.44","match_key":"l","participant_id":"COGS219_2020_15"},{"rt":null,"stimulus":"Sounds/train_label.wav","key_press":null,"block":1,"trial_type":"audio-keyboard-response","trial_index":232,"time_elapsed":2693643,"internal_node_id":"0.0-13.0-0.45","match_key":"l","participant_id":"COGS219_2020_15"},{"rt":null,"stimulus":"<p style=\"font-size: 48px;\">+</p>","key_press":null,"block":1,"trial_type":"html-keyboard-response","trial_index":233,"time_elapsed":2694647,"internal_node_id":"0.0-13.0-1.45","match_key":"l","participant_id":"COGS219_2020_15"},{"rt":565.5750000001863,"stimulus":"Images/cat_2.png","key_press":65,"stim_onset":1581875575257,"block":1,"match_type":"non-match","image_category":"cat","sound_category":"train","audio_type":"label","phase":"test","trial_type":"image-keyboard-response","trial_index":234,"time_elapsed":2695214,"internal_node_id":"0.0-13.0-2.45","match_key":"l","participant_id":"COGS219_2020_15","correct":true},{"rt":null,"stimulus":"Sounds/correct.wav","key_press":null,"block":1,"trial_type":"audio-keyboard-response","trial_index":235,"time_elapsed":2697219,"internal_node_id":"0.0-13.0-3.45","match_key":"l","participant_id":"COGS219_2020_15"},{"rt":null,"stimulus":"Sounds/frog_label.wav","key_press":null,"block":1,"trial_type":"audio-keyboard-response","trial_index":236,"time_elapsed":2698123,"internal_node_id":"0.0-13.0-0.46","match_key":"l","participant_id":"COGS219_2020_15"},{"rt":null,"stimulus":"<p style=\"font-size: 48px;\">+</p>","key_press":null,"block":1,"trial_type":"html-keyboard-response","trial_index":237,"time_elapsed":2699114,"internal_node_id":"0.0-13.0-1.46","match_key":"l","participant_id":"COGS219_2020_15"},{"rt":577.4399999934249,"stimulus":"Images/rooster_3.png","key_press":65,"stim_onset":1581875579724,"block":1,"match_type":"non-match","image_category":"rooster","sound_category":"frog","audio_type":"label","phase":"test","trial_type":"image-keyboard-response","trial_index":238,"time_elapsed":2699693,"internal_node_id":"0.0-13.0-2.46","match_key":"l","participant_id":"COGS219_2020_15","correct":true},{"rt":null,"stimulus":"Sounds/correct.wav","key_press":null,"block":1,"trial_type":"audio-keyboard-response","trial_index":239,"time_elapsed":2701705,"internal_node_id":"0.0-13.0-3.46","match_key":"l","participant_id":"COGS219_2020_15"},{"rt":null,"stimulus":"Sounds/rooster_label.wav","key_press":null,"block":1,"trial_type":"audio-keyboard-response","trial_index":240,"time_elapsed":2702403,"internal_node_id":"0.0-13.0-0.47","match_key":"l","participant_id":"COGS219_2020_15"},{"rt":null,"stimulus":"<p style=\"font-size: 48px;\">+</p>","key_press":null,"block":1,"trial_type":"html-keyboard-response","trial_index":241,"time_elapsed":2703397,"internal_node_id":"0.0-13.0-1.47","match_key":"l","participant_id":"COGS219_2020_15"},{"rt":583.2750000120141,"stimulus":"Images/whistle_cartoon.png","key_press":65,"stim_onset":1581875584007,"block":1,"match_type":"non-match","image_category":"whistle","sound_category":"rooster","audio_type":"label","phase":"test","trial_type":"image-keyboard-response","trial_index":242,"time_elapsed":2703981,"internal_node_id":"0.0-13.0-2.47","match_key":"l","participant_id":"COGS219_2020_15","correct":true},{"rt":null,"stimulus":"Sounds/correct.wav","key_press":null,"block":1,"trial_type":"audio-keyboard-response","trial_index":243,"time_elapsed":2705986,"internal_node_id":"0.0-13.0-3.47","match_key":"l","participant_id":"COGS219_2020_15"},{"rt":null,"stimulus":"Sounds/cat_sound.wav","key_press":null,"block":1,"trial_type":"audio-keyboard-response","trial_index":244,"time_elapsed":2706823,"internal_node_id":"0.0-13.0-0.48","match_key":"l","participant_id":"COGS219_2020_15"},{"rt":null,"stimulus":"<p style=\"font-size: 48px;\">+</p>","key_press":null,"block":1,"trial_type":"html-keyboard-response","trial_index":245,"time_elapsed":2707814,"internal_node_id":"0.0-13.0-1.48","match_key":"l","participant_id":"COGS219_2020_15"},{"rt":454.72499998891726,"stimulus":"Images/motorcycle_2.png","key_press":65,"stim_onset":1581875588424,"block":1,"match_type":"non-match","image_category":"motorcycle","sound_category":"cat","audio_type":"sound","phase":"test","trial_type":"image-keyboard-response","trial_index":246,"time_elapsed":2708270,"internal_node_id":"0.0-13.0-2.48","match_key":"l","participant_id":"COGS219_2020_15","correct":true},{"rt":null,"stimulus":"Sounds/correct.wav","key_press":null,"block":1,"trial_type":"audio-keyboard-response","trial_index":247,"time_elapsed":2710284,"internal_node_id":"0.0-13.0-3.48","match_key":"l","participant_id":"COGS219_2020_15"},{"rt":null,"stimulus":"Sounds/whistle_sound.wav","key_press":null,"block":1,"trial_type":"audio-keyboard-response","trial_index":248,"time_elapsed":2710983,"internal_node_id":"0.0-13.0-0.49","match_key":"l","participant_id":"COGS219_2020_15"},{"rt":null,"stimulus":"<p style=\"font-size: 48px;\">+</p>","key_press":null,"block":1,"trial_type":"html-keyboard-response","trial_index":249,"time_elapsed":2711980,"internal_node_id":"0.0-13.0-1.49","match_key":"l","participant_id":"COGS219_2020_15"},{"rt":479.9349999958649,"stimulus":"Images/cow_1.png","key_press":65,"stim_onset":1581875592591,"block":1,"match_type":"non-match","image_category":"cow","sound_category":"whistle","audio_type":"sound","phase":"test","trial_type":"image-keyboard-response","trial_index":250,"time_elapsed":2712461,"internal_node_id":"0.0-13.0-2.49","match_key":"l","participant_id":"COGS219_2020_15","correct":true},{"rt":null,"stimulus":"Sounds/correct.wav","key_press":null,"block":1,"trial_type":"audio-keyboard-response","trial_index":251,"time_elapsed":2714471,"internal_node_id":"0.0-13.0-3.49","match_key":"l","participant_id":"COGS219_2020_15"},{"rt":null,"stimulus":"Sounds/cat_sound.wav","key_press":null,"block":1,"trial_type":"audio-keyboard-response","trial_index":252,"time_elapsed":2715283,"internal_node_id":"0.0-13.0-0.50","match_key":"l","participant_id":"COGS219_2020_15"},{"rt":null,"stimulus":"<p style=\"font-size: 48px;\">+</p>","key_press":null,"block":1,"trial_type":"html-keyboard-response","trial_index":253,"time_elapsed":2716280,"internal_node_id":"0.0-13.0-1.50","match_key":"l","participant_id":"COGS219_2020_15"},{"rt":563.6450000018813,"stimulus":"Images/cat_cartoon.png","key_press":76,"stim_onset":1581875596891,"block":1,"match_type":"match","image_category":"cat","sound_category":"cat","audio_type":"sound","phase":"test","trial_type":"image-keyboard-response","trial_index":254,"time_elapsed":2716845,"internal_node_id":"0.0-13.0-2.50","match_key":"l","participant_id":"COGS219_2020_15","correct":true},{"rt":null,"stimulus":"Sounds/correct.wav","key_press":null,"block":1,"trial_type":"audio-keyboard-response","trial_index":255,"time_elapsed":2718852,"internal_node_id":"0.0-13.0-3.50","match_key":"l","participant_id":"COGS219_2020_15"},{"rt":null,"stimulus":"Sounds/motorcycle_sound.wav","key_press":null,"block":1,"trial_type":"audio-keyboard-response","trial_index":256,"time_elapsed":2719963,"internal_node_id":"0.0-13.0-0.51","match_key":"l","participant_id":"COGS219_2020_15"},{"rt":null,"stimulus":"<p style=\"font-size: 48px;\">+</p>","key_press":null,"block":1,"trial_type":"html-keyboard-response","trial_index":257,"time_elapsed":2720981,"internal_node_id":"0.0-13.0-1.51","match_key":"l","participant_id":"COGS219_2020_15"},{"rt":519.8300000047311,"stimulus":"Images/whistle_1.png","key_press":65,"stim_onset":1581875601591,"block":1,"match_type":"non-match","image_category":"whistle","sound_category":"motorcycle","audio_type":"sound","phase":"test","trial_type":"image-keyboard-response","trial_index":258,"time_elapsed":2721501,"internal_node_id":"0.0-13.0-2.51","match_key":"l","participant_id":"COGS219_2020_15","correct":true},{"rt":null,"stimulus":"Sounds/correct.wav","key_press":null,"block":1,"trial_type":"audio-keyboard-response","trial_index":259,"time_elapsed":2723518,"internal_node_id":"0.0-13.0-3.51","match_key":"l","participant_id":"COGS219_2020_15"},{"rt":null,"stimulus":"Sounds/cat_label.wav","key_press":null,"block":1,"trial_type":"audio-keyboard-response","trial_index":260,"time_elapsed":2724363,"internal_node_id":"0.0-13.0-0.52","match_key":"l","participant_id":"COGS219_2020_15"},{"rt":null,"stimulus":"<p style=\"font-size: 48px;\">+</p>","key_press":null,"block":1,"trial_type":"html-keyboard-response","trial_index":261,"time_elapsed":2725397,"internal_node_id":"0.0-13.0-1.52","match_key":"l","participant_id":"COGS219_2020_15"},{"rt":487.05499999038875,"stimulus":"Images/cat_2.png","key_press":76,"stim_onset":1581875606007,"block":1,"match_type":"match","image_category":"cat","sound_category":"cat","audio_type":"label","phase":"test","trial_type":"image-keyboard-response","trial_index":262,"time_elapsed":2725885,"internal_node_id":"0.0-13.0-2.52","match_key":"l","participant_id":"COGS219_2020_15","correct":true},{"rt":null,"stimulus":"Sounds/correct.wav","key_press":null,"block":1,"trial_type":"audio-keyboard-response","trial_index":263,"time_elapsed":2727901,"internal_node_id":"0.0-13.0-3.52","match_key":"l","participant_id":"COGS219_2020_15"},{"rt":null,"stimulus":"Sounds/train_sound.wav","key_press":null,"block":1,"trial_type":"audio-keyboard-response","trial_index":264,"time_elapsed":2729203,"internal_node_id":"0.0-13.0-0.53","match_key":"l","participant_id":"COGS219_2020_15"},{"rt":null,"stimulus":"<p style=\"font-size: 48px;\">+</p>","key_press":null,"block":1,"trial_type":"html-keyboard-response","trial_index":265,"time_elapsed":2730197,"internal_node_id":"0.0-13.0-1.53","match_key":"l","participant_id":"COGS219_2020_15"},{"rt":519.0949999960139,"stimulus":"Images/train_3.png","key_press":76,"stim_onset":1581875610807,"block":1,"match_type":"match","image_category":"train","sound_category":"train","audio_type":"sound","phase":"test","trial_type":"image-keyboard-response","trial_index":266,"time_elapsed":2730717,"internal_node_id":"0.0-13.0-2.53","match_key":"l","participant_id":"COGS219_2020_15","correct":true},{"rt":null,"stimulus":"Sounds/correct.wav","key_press":null,"block":1,"trial_type":"audio-keyboard-response","trial_index":267,"time_elapsed":2732735,"internal_node_id":"0.0-13.0-3.53","match_key":"l","participant_id":"COGS219_2020_15"},{"rt":null,"stimulus":"Sounds/frog_label.wav","key_press":null,"block":1,"trial_type":"audio-keyboard-response","trial_index":268,"time_elapsed":2733643,"internal_node_id":"0.0-13.0-0.54","match_key":"l","participant_id":"COGS219_2020_15"},{"rt":null,"stimulus":"<p style=\"font-size: 48px;\">+</p>","key_press":null,"block":1,"trial_type":"html-keyboard-response","trial_index":269,"time_elapsed":2734631,"internal_node_id":"0.0-13.0-1.54","match_key":"l","participant_id":"COGS219_2020_15"},{"rt":389.8249999913387,"stimulus":"Images/frog_cartoon.png","key_press":76,"stim_onset":1581875615241,"block":1,"match_type":"match","image_category":"frog","sound_category":"frog","audio_type":"label","phase":"test","trial_type":"image-keyboard-response","trial_index":270,"time_elapsed":2735021,"internal_node_id":"0.0-13.0-2.54","match_key":"l","participant_id":"COGS219_2020_15","correct":true},{"rt":null,"stimulus":"Sounds/correct.wav","key_press":null,"block":1,"trial_type":"audio-keyboard-response","trial_index":271,"time_elapsed":2737034,"internal_node_id":"0.0-13.0-3.54","match_key":"l","participant_id":"COGS219_2020_15"},{"rt":null,"stimulus":"Sounds/whistle_label.wav","key_press":null,"block":1,"trial_type":"audio-keyboard-response","trial_index":272,"time_elapsed":2737743,"internal_node_id":"0.0-13.0-0.55","match_key":"l","participant_id":"COGS219_2020_15"},{"rt":null,"stimulus":"<p style=\"font-size: 48px;\">+</p>","key_press":null,"block":1,"trial_type":"html-keyboard-response","trial_index":273,"time_elapsed":2738731,"internal_node_id":"0.0-13.0-1.55","match_key":"l","participant_id":"COGS219_2020_15"},{"rt":449.6849999995902,"stimulus":"Images/whistle_cartoon.png","key_press":76,"stim_onset":1581875619341,"block":1,"match_type":"match","image_category":"whistle","sound_category":"whistle","audio_type":"label","phase":"test","trial_type":"image-keyboard-response","trial_index":274,"time_elapsed":2739181,"internal_node_id":"0.0-13.0-2.55","match_key":"l","participant_id":"COGS219_2020_15","correct":true},{"rt":null,"stimulus":"Sounds/correct.wav","key_press":null,"block":1,"trial_type":"audio-keyboard-response","trial_index":275,"time_elapsed":2741187,"internal_node_id":"0.0-13.0-3.55","match_key":"l","participant_id":"COGS219_2020_15"},{"rt":null,"stimulus":"Sounds/whistle_label.wav","key_press":null,"block":1,"trial_type":"audio-keyboard-response","trial_index":276,"time_elapsed":2741863,"internal_node_id":"0.0-13.0-0.56","match_key":"l","participant_id":"COGS219_2020_15"},{"rt":null,"stimulus":"<p style=\"font-size: 48px;\">+</p>","key_press":null,"block":1,"trial_type":"html-keyboard-response","trial_index":277,"time_elapsed":2742881,"internal_node_id":"0.0-13.0-1.56","match_key":"l","participant_id":"COGS219_2020_15"},{"rt":539.4150000065565,"stimulus":"Images/whistle_2.png","key_press":76,"stim_onset":1581875623491,"block":1,"match_type":"match","image_category":"whistle","sound_category":"whistle","audio_type":"label","phase":"test","trial_type":"image-keyboard-response","trial_index":278,"time_elapsed":2743422,"internal_node_id":"0.0-13.0-2.56","match_key":"l","participant_id":"COGS219_2020_15","correct":true},{"rt":null,"stimulus":"Sounds/correct.wav","key_press":null,"block":1,"trial_type":"audio-keyboard-response","trial_index":279,"time_elapsed":2745435,"internal_node_id":"0.0-13.0-3.56","match_key":"l","participant_id":"COGS219_2020_15"},{"rt":null,"stimulus":"Sounds/whistle_label.wav","key_press":null,"block":1,"trial_type":"audio-keyboard-response","trial_index":280,"time_elapsed":2746103,"internal_node_id":"0.0-13.0-0.57","match_key":"l","participant_id":"COGS219_2020_15"},{"rt":null,"stimulus":"<p style=\"font-size: 48px;\">+</p>","key_press":null,"block":1,"trial_type":"html-keyboard-response","trial_index":281,"time_elapsed":2747098,"internal_node_id":"0.0-13.0-1.57","match_key":"l","participant_id":"COGS219_2020_15"},{"rt":595.1800000038929,"stimulus":"Images/motorcycle_orig.png","key_press":65,"stim_onset":1581875627708,"block":1,"match_type":"non-match","image_category":"motorcycle","sound_category":"whistle","audio_type":"label","phase":"test","trial_type":"image-keyboard-response","trial_index":282,"time_elapsed":2747694,"internal_node_id":"0.0-13.0-2.57","match_key":"l","participant_id":"COGS219_2020_15","correct":true},{"rt":null,"stimulus":"Sounds/correct.wav","key_press":null,"block":1,"trial_type":"audio-keyboard-response","trial_index":283,"time_elapsed":2749703,"internal_node_id":"0.0-13.0-3.57","match_key":"l","participant_id":"COGS219_2020_15"},{"rt":null,"stimulus":"Sounds/dog_label.wav","key_press":null,"block":1,"trial_type":"audio-keyboard-response","trial_index":284,"time_elapsed":2750363,"internal_node_id":"0.0-13.0-0.58","match_key":"l","participant_id":"COGS219_2020_15"},{"rt":null,"stimulus":"<p style=\"font-size: 48px;\">+</p>","key_press":null,"block":1,"trial_type":"html-keyboard-response","trial_index":285,"time_elapsed":2751381,"internal_node_id":"0.0-13.0-1.58","match_key":"l","participant_id":"COGS219_2020_15"},{"rt":759.3800000031479,"stimulus":"Images/dog_cartoon.png","key_press":76,"stim_onset":1581875631991,"block":1,"match_type":"match","image_category":"dog","sound_category":"dog","audio_type":"label","phase":"test","trial_type":"image-keyboard-response","trial_index":286,"time_elapsed":2752142,"internal_node_id":"0.0-13.0-2.58","match_key":"l","participant_id":"COGS219_2020_15","correct":true},{"rt":null,"stimulus":"Sounds/correct.wav","key_press":null,"block":1,"trial_type":"audio-keyboard-response","trial_index":287,"time_elapsed":2754151,"internal_node_id":"0.0-13.0-3.58","match_key":"l","participant_id":"COGS219_2020_15"},{"rt":null,"stimulus":"Sounds/car_sound.wav","key_press":null,"block":1,"trial_type":"audio-keyboard-response","trial_index":288,"time_elapsed":2755223,"internal_node_id":"0.0-13.0-0.59","match_key":"l","participant_id":"COGS219_2020_15"},{"rt":null,"stimulus":"<p style=\"font-size: 48px;\">+</p>","key_press":null,"block":1,"trial_type":"html-keyboard-response","trial_index":289,"time_elapsed":2756215,"internal_node_id":"0.0-13.0-1.59","match_key":"l","participant_id":"COGS219_2020_15"},{"rt":470.1249999925494,"stimulus":"Images/cow_3.png","key_press":65,"stim_onset":1581875636825,"block":1,"match_type":"non-match","image_category":"cow","sound_category":"car","audio_type":"sound","phase":"test","trial_type":"image-keyboard-response","trial_index":290,"time_elapsed":2756686,"internal_node_id":"0.0-13.0-2.59","match_key":"l","participant_id":"COGS219_2020_15","correct":true},{"rt":null,"stimulus":"Sounds/correct.wav","key_press":null,"block":1,"trial_type":"audio-keyboard-response","trial_index":291,"time_elapsed":2758703,"internal_node_id":"0.0-13.0-3.59","match_key":"l","participant_id":"COGS219_2020_15"},{"rt":null,"stimulus":"Sounds/frog_sound.wav","key_press":null,"block":1,"trial_type":"audio-keyboard-response","trial_index":292,"time_elapsed":2759603,"internal_node_id":"0.0-13.0-0.60","match_key":"l","participant_id":"COGS219_2020_15"},{"rt":null,"stimulus":"<p style=\"font-size: 48px;\">+</p>","key_press":null,"block":1,"trial_type":"html-keyboard-response","trial_index":293,"time_elapsed":2760598,"internal_node_id":"0.0-13.0-1.60","match_key":"l","participant_id":"COGS219_2020_15"},{"rt":534.874999997206,"stimulus":"Images/frog_3.png","key_press":76,"stim_onset":1581875641208,"block":1,"match_type":"match","image_category":"frog","sound_category":"frog","audio_type":"sound","phase":"test","trial_type":"image-keyboard-response","trial_index":294,"time_elapsed":2761134,"internal_node_id":"0.0-13.0-2.60","match_key":"l","participant_id":"COGS219_2020_15","correct":true},{"rt":null,"stimulus":"Sounds/correct.wav","key_press":null,"block":1,"trial_type":"audio-keyboard-response","trial_index":295,"time_elapsed":2763138,"internal_node_id":"0.0-13.0-3.60","match_key":"l","participant_id":"COGS219_2020_15"},{"rt":null,"stimulus":"Sounds/cow_sound.wav","key_press":null,"block":1,"trial_type":"audio-keyboard-response","trial_index":296,"time_elapsed":2764163,"internal_node_id":"0.0-13.0-0.61","match_key":"l","participant_id":"COGS219_2020_15"},{"rt":null,"stimulus":"<p style=\"font-size: 48px;\">+</p>","key_press":null,"block":1,"trial_type":"html-keyboard-response","trial_index":297,"time_elapsed":2765181,"internal_node_id":"0.0-13.0-1.61","match_key":"l","participant_id":"COGS219_2020_15"},{"rt":447.2649999950081,"stimulus":"Images/cow_cartoon.png","key_press":76,"stim_onset":1581875645792,"block":1,"match_type":"match","image_category":"cow","sound_category":"cow","audio_type":"sound","phase":"test","trial_type":"image-keyboard-response","trial_index":298,"time_elapsed":2765630,"internal_node_id":"0.0-13.0-2.61","match_key":"l","participant_id":"COGS219_2020_15","correct":true},{"rt":null,"stimulus":"Sounds/correct.wav","key_press":null,"block":1,"trial_type":"audio-keyboard-response","trial_index":299,"time_elapsed":2767638,"internal_node_id":"0.0-13.0-3.61","match_key":"l","participant_id":"COGS219_2020_15"},{"rt":null,"stimulus":"Sounds/car_sound.wav","key_press":null,"block":1,"trial_type":"audio-keyboard-response","trial_index":300,"time_elapsed":2768683,"internal_node_id":"0.0-13.0-0.62","match_key":"l","participant_id":"COGS219_2020_15"},{"rt":null,"stimulus":"<p style=\"font-size: 48px;\">+</p>","key_press":null,"block":1,"trial_type":"html-keyboard-response","trial_index":301,"time_elapsed":2769681,"internal_node_id":"0.0-13.0-1.62","match_key":"l","participant_id":"COGS219_2020_15"},{"rt":651.0750000015832,"stimulus":"Images/cat_3.png","key_press":65,"stim_onset":1581875650292,"block":1,"match_type":"non-match","image_category":"cat","sound_category":"car","audio_type":"sound","phase":"test","trial_type":"image-keyboard-response","trial_index":302,"time_elapsed":2770334,"internal_node_id":"0.0-13.0-2.62","match_key":"l","participant_id":"COGS219_2020_15","correct":true},{"rt":null,"stimulus":"Sounds/correct.wav","key_press":null,"block":1,"trial_type":"audio-keyboard-response","trial_index":303,"time_elapsed":2772339,"internal_node_id":"0.0-13.0-3.62","match_key":"l","participant_id":"COGS219_2020_15"},{"rt":null,"stimulus":"Sounds/motorcycle_label.wav","key_press":null,"block":1,"trial_type":"audio-keyboard-response","trial_index":304,"time_elapsed":2773483,"internal_node_id":"0.0-13.0-0.63","match_key":"l","participant_id":"COGS219_2020_15"},{"rt":null,"stimulus":"<p style=\"font-size: 48px;\">+</p>","key_press":null,"block":1,"trial_type":"html-keyboard-response","trial_index":305,"time_elapsed":2774481,"internal_node_id":"0.0-13.0-1.63","match_key":"l","participant_id":"COGS219_2020_15"},{"rt":667.3549999976531,"stimulus":"Images/motorcycle_3.png","key_press":76,"stim_onset":1581875655092,"block":1,"match_type":"match","image_category":"motorcycle","sound_category":"motorcycle","audio_type":"label","phase":"test","trial_type":"image-keyboard-response","trial_index":306,"time_elapsed":2775150,"internal_node_id":"0.0-13.0-2.63","match_key":"l","participant_id":"COGS219_2020_15","correct":true},{"rt":null,"stimulus":"Sounds/correct.wav","key_press":null,"block":1,"trial_type":"audio-keyboard-response","trial_index":307,"time_elapsed":2777153,"internal_node_id":"0.0-13.0-3.63","match_key":"l","participant_id":"COGS219_2020_15"},{"rt":null,"stimulus":"Sounds/cow_label.wav","key_press":null,"block":1,"trial_type":"audio-keyboard-response","trial_index":308,"time_elapsed":2778183,"internal_node_id":"0.0-13.0-0.64","match_key":"l","participant_id":"COGS219_2020_15"},{"rt":null,"stimulus":"<p style=\"font-size: 48px;\">+</p>","key_press":null,"block":1,"trial_type":"html-keyboard-response","trial_index":309,"time_elapsed":2779182,"internal_node_id":"0.0-13.0-1.64","match_key":"l","participant_id":"COGS219_2020_15"},{"rt":607.1700000031851,"stimulus":"Images/cow_3.png","key_press":76,"stim_onset":1581875659792,"block":1,"match_type":"match","image_category":"cow","sound_category":"cow","audio_type":"label","phase":"test","trial_type":"image-keyboard-response","trial_index":310,"time_elapsed":2779790,"internal_node_id":"0.0-13.0-2.64","match_key":"l","participant_id":"COGS219_2020_15","correct":true},{"rt":null,"stimulus":"Sounds/correct.wav","key_press":null,"block":1,"trial_type":"audio-keyboard-response","trial_index":311,"time_elapsed":2781802,"internal_node_id":"0.0-13.0-3.64","match_key":"l","participant_id":"COGS219_2020_15"},{"rt":null,"stimulus":"Sounds/cat_label.wav","key_press":null,"block":1,"trial_type":"audio-keyboard-response","trial_index":312,"time_elapsed":2782643,"internal_node_id":"0.0-13.0-0.65","match_key":"l","participant_id":"COGS219_2020_15"},{"rt":null,"stimulus":"<p style=\"font-size: 48px;\">+</p>","key_press":null,"block":1,"trial_type":"html-keyboard-response","trial_index":313,"time_elapsed":2783631,"internal_node_id":"0.0-13.0-1.65","match_key":"l","participant_id":"COGS219_2020_15"},{"rt":685.1400000015274,"stimulus":"Images/cat_1.png","key_press":76,"stim_onset":1581875664242,"block":1,"match_type":"match","image_category":"cat","sound_category":"cat","audio_type":"label","phase":"test","trial_type":"image-keyboard-response","trial_index":314,"time_elapsed":2784318,"internal_node_id":"0.0-13.0-2.65","match_key":"l","participant_id":"COGS219_2020_15","correct":true},{"rt":null,"stimulus":"Sounds/correct.wav","key_press":null,"block":1,"trial_type":"audio-keyboard-response","trial_index":315,"time_elapsed":2786320,"internal_node_id":"0.0-13.0-3.65","match_key":"l","participant_id":"COGS219_2020_15"},{"rt":null,"stimulus":"Sounds/car_label.wav","key_press":null,"block":1,"trial_type":"audio-keyboard-response","trial_index":316,"time_elapsed":2787403,"internal_node_id":"0.0-13.0-0.66","match_key":"l","participant_id":"COGS219_2020_15"},{"rt":null,"stimulus":"<p style=\"font-size: 48px;\">+</p>","key_press":null,"block":1,"trial_type":"html-keyboard-response","trial_index":317,"time_elapsed":2788398,"internal_node_id":"0.0-13.0-1.66","match_key":"l","participant_id":"COGS219_2020_15"},{"rt":462.59000001009554,"stimulus":"Images/car_3.png","key_press":76,"stim_onset":1581875669008,"block":1,"match_type":"match","image_category":"car","sound_category":"car","audio_type":"label","phase":"test","trial_type":"image-keyboard-response","trial_index":318,"time_elapsed":2788862,"internal_node_id":"0.0-13.0-2.66","match_key":"l","participant_id":"COGS219_2020_15","correct":true},{"rt":null,"stimulus":"Sounds/correct.wav","key_press":null,"block":1,"trial_type":"audio-keyboard-response","trial_index":319,"time_elapsed":2790870,"internal_node_id":"0.0-13.0-3.66","match_key":"l","participant_id":"COGS219_2020_15"},{"rt":null,"stimulus":"Sounds/frog_label.wav","key_press":null,"block":1,"trial_type":"audio-keyboard-response","trial_index":320,"time_elapsed":2791763,"internal_node_id":"0.0-13.0-0.67","match_key":"l","participant_id":"COGS219_2020_15"},{"rt":null,"stimulus":"<p style=\"font-size: 48px;\">+</p>","key_press":null,"block":1,"trial_type":"html-keyboard-response","trial_index":321,"time_elapsed":2792765,"internal_node_id":"0.0-13.0-1.67","match_key":"l","participant_id":"COGS219_2020_15"},{"rt":463.730000003241,"stimulus":"Images/cat_orig.png","key_press":65,"stim_onset":1581875673375,"block":1,"match_type":"non-match","image_category":"cat","sound_category":"frog","audio_type":"label","phase":"test","trial_type":"image-keyboard-response","trial_index":322,"time_elapsed":2793230,"internal_node_id":"0.0-13.0-2.67","match_key":"l","participant_id":"COGS219_2020_15","correct":true},{"rt":null,"stimulus":"Sounds/correct.wav","key_press":null,"block":1,"trial_type":"audio-keyboard-response","trial_index":323,"time_elapsed":2795237,"internal_node_id":"0.0-13.0-3.67","match_key":"l","participant_id":"COGS219_2020_15"},{"rt":null,"stimulus":"Sounds/rooster_label.wav","key_press":null,"block":1,"trial_type":"audio-keyboard-response","trial_index":324,"time_elapsed":2795943,"internal_node_id":"0.0-13.0-0.68","match_key":"l","participant_id":"COGS219_2020_15"},{"rt":null,"stimulus":"<p style=\"font-size: 48px;\">+</p>","key_press":null,"block":1,"trial_type":"html-keyboard-response","trial_index":325,"time_elapsed":2796932,"internal_node_id":"0.0-13.0-1.68","match_key":"l","participant_id":"COGS219_2020_15"},{"rt":536.8549999985844,"stimulus":"Images/rooster_1.png","key_press":76,"stim_onset":1581875677542,"block":1,"match_type":"match","image_category":"rooster","sound_category":"rooster","audio_type":"label","phase":"test","trial_type":"image-keyboard-response","trial_index":326,"time_elapsed":2797470,"internal_node_id":"0.0-13.0-2.68","match_key":"l","participant_id":"COGS219_2020_15","correct":true},{"rt":null,"stimulus":"Sounds/correct.wav","key_press":null,"block":1,"trial_type":"audio-keyboard-response","trial_index":327,"time_elapsed":2799486,"internal_node_id":"0.0-13.0-3.68","match_key":"l","participant_id":"COGS219_2020_15"},{"rt":null,"stimulus":"Sounds/rooster_label.wav","key_press":null,"block":1,"trial_type":"audio-keyboard-response","trial_index":328,"time_elapsed":2800163,"internal_node_id":"0.0-13.0-0.69","match_key":"l","participant_id":"COGS219_2020_15"},{"rt":null,"stimulus":"<p style=\"font-size: 48px;\">+</p>","key_press":null,"block":1,"trial_type":"html-keyboard-response","trial_index":329,"time_elapsed":2801165,"internal_node_id":"0.0-13.0-1.69","match_key":"l","participant_id":"COGS219_2020_15"},{"rt":447.8649999946356,"stimulus":"Images/train_cartoon.png","key_press":65,"stim_onset":1581875681775,"block":1,"match_type":"non-match","image_category":"train","sound_category":"rooster","audio_type":"label","phase":"test","trial_type":"image-keyboard-response","trial_index":330,"time_elapsed":2801614,"internal_node_id":"0.0-13.0-2.69","match_key":"l","participant_id":"COGS219_2020_15","correct":true},{"rt":null,"stimulus":"Sounds/correct.wav","key_press":null,"block":1,"trial_type":"audio-keyboard-response","trial_index":331,"time_elapsed":2803622,"internal_node_id":"0.0-13.0-3.69","match_key":"l","participant_id":"COGS219_2020_15"},{"rt":null,"stimulus":"Sounds/dog_sound.wav","key_press":null,"block":1,"trial_type":"audio-keyboard-response","trial_index":332,"time_elapsed":2804323,"internal_node_id":"0.0-13.0-0.70","match_key":"l","participant_id":"COGS219_2020_15"},{"rt":null,"stimulus":"<p style=\"font-size: 48px;\">+</p>","key_press":null,"block":1,"trial_type":"html-keyboard-response","trial_index":333,"time_elapsed":2805315,"internal_node_id":"0.0-13.0-1.70","match_key":"l","participant_id":"COGS219_2020_15"},{"rt":425.52000000467524,"stimulus":"Images/car_2.png","key_press":65,"stim_onset":1581875685925,"block":1,"match_type":"non-match","image_category":"car","sound_category":"dog","audio_type":"sound","phase":"test","trial_type":"image-keyboard-response","trial_index":334,"time_elapsed":2805742,"internal_node_id":"0.0-13.0-2.70","match_key":"l","participant_id":"COGS219_2020_15","correct":true},{"rt":null,"stimulus":"Sounds/correct.wav","key_press":null,"block":1,"trial_type":"audio-keyboard-response","trial_index":335,"time_elapsed":2807754,"internal_node_id":"0.0-13.0-3.70","match_key":"l","participant_id":"COGS219_2020_15"},{"rt":null,"stimulus":"Sounds/motorcycle_label.wav","key_press":null,"block":1,"trial_type":"audio-keyboard-response","trial_index":336,"time_elapsed":2808883,"internal_node_id":"0.0-13.0-0.71","match_key":"l","participant_id":"COGS219_2020_15"},{"rt":null,"stimulus":"<p style=\"font-size: 48px;\">+</p>","key_press":null,"block":1,"trial_type":"html-keyboard-response","trial_index":337,"time_elapsed":2809882,"internal_node_id":"0.0-13.0-1.71","match_key":"l","participant_id":"COGS219_2020_15"},{"rt":530.90500000678,"stimulus":"Images/car_orig.png","key_press":65,"stim_onset":1581875690492,"block":1,"match_type":"non-match","image_category":"car","sound_category":"motorcycle","audio_type":"label","phase":"test","trial_type":"image-keyboard-response","trial_index":338,"time_elapsed":2810414,"internal_node_id":"0.0-13.0-2.71","match_key":"l","participant_id":"COGS219_2020_15","correct":true},{"rt":null,"stimulus":"Sounds/correct.wav","key_press":null,"block":1,"trial_type":"audio-keyboard-response","trial_index":339,"time_elapsed":2812423,"internal_node_id":"0.0-13.0-3.71","match_key":"l","participant_id":"COGS219_2020_15"},{"rt":null,"stimulus":"Sounds/cat_sound.wav","key_press":null,"block":1,"trial_type":"audio-keyboard-response","trial_index":340,"time_elapsed":2813263,"internal_node_id":"0.0-13.0-0.72","match_key":"l","participant_id":"COGS219_2020_15"},{"rt":null,"stimulus":"<p style=\"font-size: 48px;\">+</p>","key_press":null,"block":1,"trial_type":"html-keyboard-response","trial_index":341,"time_elapsed":2814265,"internal_node_id":"0.0-13.0-1.72","match_key":"l","participant_id":"COGS219_2020_15"},{"rt":419.7100000018254,"stimulus":"Images/car_1.png","key_press":65,"stim_onset":1581875694876,"block":1,"match_type":"non-match","image_category":"car","sound_category":"cat","audio_type":"sound","phase":"test","trial_type":"image-keyboard-response","trial_index":342,"time_elapsed":2814686,"internal_node_id":"0.0-13.0-2.72","match_key":"l","participant_id":"COGS219_2020_15","correct":true},{"rt":null,"stimulus":"Sounds/correct.wav","key_press":null,"block":1,"trial_type":"audio-keyboard-response","trial_index":343,"time_elapsed":2816703,"internal_node_id":"0.0-13.0-3.72","match_key":"l","participant_id":"COGS219_2020_15"},{"rt":null,"stimulus":"Sounds/dog_sound.wav","key_press":null,"block":1,"trial_type":"audio-keyboard-response","trial_index":344,"time_elapsed":2817403,"internal_node_id":"0.0-13.0-0.73","match_key":"l","participant_id":"COGS219_2020_15"},{"rt":null,"stimulus":"<p style=\"font-size: 48px;\">+</p>","key_press":null,"block":1,"trial_type":"html-keyboard-response","trial_index":345,"time_elapsed":2818399,"internal_node_id":"0.0-13.0-1.73","match_key":"l","participant_id":"COGS219_2020_15"},{"rt":445.8699999959208,"stimulus":"Images/dog_orig.png","key_press":76,"stim_onset":1581875699009,"block":1,"match_type":"match","image_category":"dog","sound_category":"dog","audio_type":"sound","phase":"test","trial_type":"image-keyboard-response","trial_index":346,"time_elapsed":2818846,"internal_node_id":"0.0-13.0-2.73","match_key":"l","participant_id":"COGS219_2020_15","correct":true},{"rt":null,"stimulus":"Sounds/correct.wav","key_press":null,"block":1,"trial_type":"audio-keyboard-response","trial_index":347,"time_elapsed":2820856,"internal_node_id":"0.0-13.0-3.73","match_key":"l","participant_id":"COGS219_2020_15"},{"rt":null,"stimulus":"Sounds/cat_sound.wav","key_press":null,"block":1,"trial_type":"audio-keyboard-response","trial_index":348,"time_elapsed":2821663,"internal_node_id":"0.0-13.0-0.74","match_key":"l","participant_id":"COGS219_2020_15"},{"rt":null,"stimulus":"<p style=\"font-size: 48px;\">+</p>","key_press":null,"block":1,"trial_type":"ht