[{"rt":37232.11500002071,"responses":"{\"Q0\":\"09\"}","trial_type":"survey-text","trial_index":0,"time_elapsed":37260,"internal_node_id":"0.0-0.0","match_key":"l","participant_id":"09"},{"rt":82775.71499999613,"stimulus":"<p>Use KEYBOARD 1 (match RIGHT)</p><p>Press MATCH to continue.</p>","key_press":76,"trial_type":"html-keyboard-response","trial_index":1,"time_elapsed":120090,"internal_node_id":"0.0-1.0","match_key":"l","participant_id":"09"},{"rt":3507231.1100000516,"stimulus":"<p>Welcome to the experiment.</p>","key_press":13,"trial_type":"html-keyboard-response","trial_index":2,"time_elapsed":3627879,"internal_node_id":"0.0-2.0","match_key":"l","participant_id":"09"},{"rt":5371.610000031069,"stimulus":"<p>Thank you for agreeing to participate in this study.</p><p>If during any part of the procedure you must stop for any reason, please inform the researcher that you do not wish to continue.</p>","key_press":13,"trial_type":"html-keyboard-response","trial_index":3,"time_elapsed":3633253,"internal_node_id":"0.0-3.0","match_key":"l","participant_id":"09"},{"rt":25423.760000034235,"stimulus":"<p>In this experiment, you will hear various words or sounds and see pictures of various animals and objects.</p><p>Most of the images will be of common everyday objects, such as cars, cats, cows, firearms, frogs, chickens, whistles, trains, motorcycles, and dogs.</p><p>Some of the images will be real-life stills, while others will be cartoons.</p>","key_press":13,"trial_type":"html-keyboard-response","trial_index":4,"time_elapsed":3658664,"internal_node_id":"0.0-4.0","match_key":"l","participant_id":"09"},{"rt":12783.060000045225,"stimulus":"<p>Sometimes, the word/sound will match the picture, for example you'll hear a meowing sound and see a cat.</p><p>Other times, the picture will not match the sound or word.</p><p>Your task is to decide as quickly as possible if the word/sound matches the picture or not. </p>","key_press":13,"trial_type":"html-keyboard-response","trial_index":5,"time_elapsed":3671448,"internal_node_id":"0.0-5.0","match_key":"l","participant_id":"09"},{"rt":11071.28500007093,"stimulus":"<p>For example, if you hear the word \"cat\" or hear a meowing sound, and then see a picture of a cat, you should press the MATCH key.</p><p> If the sound and image do not match, press the NOT-MATCH key to indicate that there is not a match.</p>","key_press":13,"trial_type":"html-keyboard-response","trial_index":6,"time_elapsed":3682520,"internal_node_id":"0.0-6.0","match_key":"l","participant_id":"09"},{"rt":12879.315000027418,"stimulus":"<p>If you make a mistake, you will hear a buzzing sound instead of a more pleasant sound.</p><p> Try to respond as quickly as possible, while making as few errors as possible. If you are making mistakes, you are probably rushing.</p>","key_press":13,"trial_type":"html-keyboard-response","trial_index":7,"time_elapsed":3695400,"internal_node_id":"0.0-7.0","match_key":"l","participant_id":"09"},{"rt":11055.415000068024,"stimulus":"<p>Please try to not move or blink your eyes during the presentation of the images. You can move and blink between images.</p><p>During the experiment there will be some breaks during which you can rest your eyes.</p>","key_press":13,"trial_type":"html-keyboard-response","trial_index":8,"time_elapsed":3706456,"internal_node_id":"0.0-8.0","match_key":"l","participant_id":"09"},{"rt":49279.5150000602,"stimulus":"<p>We will begin with 10 practice trials. Please let the experimenter know if you have any questions.</p>","key_press":13,"trial_type":"html-keyboard-response","trial_index":9,"time_elapsed":3755750,"internal_node_id":"0.0-9.0","match_key":"l","participant_id":"09"},{"rt":null,"stimulus":"Sounds/car_label.wav","key_press":null,"block":0,"trial_type":"audio-keyboard-response","trial_index":10,"time_elapsed":3757271,"internal_node_id":"0.0-10.0-0.0","match_key":"l","participant_id":"09"},{"rt":null,"stimulus":"<p style=\"font-size: 48px;\">+</p>","key_press":null,"block":0,"trial_type":"html-keyboard-response","trial_index":11,"time_elapsed":3758264,"internal_node_id":"0.0-10.0-1.0","match_key":"l","participant_id":"09"},{"rt":1563.495000009425,"stimulus":"Images/cat_3.png","key_press":65,"stim_onset":1581556543167,"block":0,"match_type":"non-match","image_category":"cat","sound_category":"car","audio_type":"label","phase":"practice","trial_type":"image-keyboard-response","trial_index":12,"time_elapsed":3759830,"internal_node_id":"0.0-10.0-2.0","match_key":"l","participant_id":"09","correct":true},{"rt":null,"stimulus":"Sounds/correct.wav","key_press":null,"block":0,"trial_type":"audio-keyboard-response","trial_index":13,"time_elapsed":3761842,"internal_node_id":"0.0-10.0-3.0","match_key":"l","participant_id":"09"},{"rt":null,"stimulus":"Sounds/rooster_label.wav","key_press":null,"block":0,"trial_type":"audio-keyboard-response","trial_index":14,"time_elapsed":3762550,"internal_node_id":"0.0-10.0-0.1","match_key":"l","participant_id":"09"},{"rt":null,"stimulus":"<p style=\"font-size: 48px;\">+</p>","key_press":null,"block":0,"trial_type":"html-keyboard-response","trial_index":15,"time_elapsed":3763547,"internal_node_id":"0.0-10.0-1.1","match_key":"l","participant_id":"09"},{"rt":552.809999906458,"stimulus":"Images/rooster_3.png","key_press":76,"stim_onset":1581556548450,"block":0,"match_type":"match","image_category":"rooster","sound_category":"rooster","audio_type":"label","phase":"practice","trial_type":"image-keyboard-response","trial_index":16,"time_elapsed":3764101,"internal_node_id":"0.0-10.0-2.1","match_key":"l","participant_id":"09","correct":true},{"rt":null,"stimulus":"Sounds/correct.wav","key_press":null,"block":0,"trial_type":"audio-keyboard-response","trial_index":17,"time_elapsed":3766118,"internal_node_id":"0.0-10.0-3.1","match_key":"l","participant_id":"09"},{"rt":null,"stimulus":"Sounds/whistle_sound.wav","key_press":null,"block":0,"trial_type":"audio-keyboard-response","trial_index":18,"time_elapsed":3766810,"internal_node_id":"0.0-10.0-0.2","match_key":"l","participant_id":"09"},{"rt":null,"stimulus":"<p style=\"font-size: 48px;\">+</p>","key_press":null,"block":0,"trial_type":"html-keyboard-response","trial_index":19,"time_elapsed":3767814,"internal_node_id":"0.0-10.0-1.2","match_key":"l","participant_id":"09"},{"rt":1038.3649999275804,"stimulus":"Images/cat_1.png","key_press":65,"stim_onset":1581556552717,"block":0,"match_type":"non-match","image_category":"cat","sound_category":"whistle","audio_type":"sound","phase":"practice","trial_type":"image-keyboard-response","trial_index":20,"time_elapsed":3768853,"internal_node_id":"0.0-10.0-2.2","match_key":"l","participant_id":"09","correct":true},{"rt":null,"stimulus":"Sounds/correct.wav","key_press":null,"block":0,"trial_type":"audio-keyboard-response","trial_index":21,"time_elapsed":3770870,"internal_node_id":"0.0-10.0-3.2","match_key":"l","participant_id":"09"},{"rt":null,"stimulus":"Sounds/whistle_label.wav","key_press":null,"block":0,"trial_type":"audio-keyboard-response","trial_index":22,"time_elapsed":3771570,"internal_node_id":"0.0-10.0-0.3","match_key":"l","participant_id":"09"},{"rt":null,"stimulus":"<p style=\"font-size: 48px;\">+</p>","key_press":null,"block":0,"trial_type":"html-keyboard-response","trial_index":23,"time_elapsed":3772564,"internal_node_id":"0.0-10.0-1.3","match_key":"l","participant_id":"09"},{"rt":480.16500007361174,"stimulus":"Images/whistle_1.png","key_press":76,"stim_onset":1581556557467,"block":0,"match_type":"match","image_category":"whistle","sound_category":"whistle","audio_type":"label","phase":"practice","trial_type":"image-keyboard-response","trial_index":24,"time_elapsed":3773045,"internal_node_id":"0.0-10.0-2.3","match_key":"l","participant_id":"09","correct":true},{"rt":null,"stimulus":"Sounds/correct.wav","key_press":null,"block":0,"trial_type":"audio-keyboard-response","trial_index":25,"time_elapsed":3775052,"internal_node_id":"0.0-10.0-3.3","match_key":"l","participant_id":"09"},{"rt":null,"stimulus":"Sounds/frog_sound.wav","key_press":null,"block":0,"trial_type":"audio-keyboard-response","trial_index":26,"time_elapsed":3775970,"internal_node_id":"0.0-10.0-0.4","match_key":"l","participant_id":"09"},{"rt":null,"stimulus":"<p style=\"font-size: 48px;\">+</p>","key_press":null,"block":0,"trial_type":"html-keyboard-response","trial_index":27,"time_elapsed":3776964,"internal_node_id":"0.0-10.0-1.4","match_key":"l","participant_id":"09"},{"rt":720.2700000489131,"stimulus":"Images/frog_cartoon.png","key_press":76,"stim_onset":1581556561867,"block":0,"match_type":"match","image_category":"frog","sound_category":"frog","audio_type":"sound","phase":"practice","trial_type":"image-keyboard-response","trial_index":28,"time_elapsed":3777685,"internal_node_id":"0.0-10.0-2.4","match_key":"l","participant_id":"09","correct":true},{"rt":null,"stimulus":"Sounds/correct.wav","key_press":null,"block":0,"trial_type":"audio-keyboard-response","trial_index":29,"time_elapsed":3779701,"internal_node_id":"0.0-10.0-3.4","match_key":"l","participant_id":"09"},{"rt":null,"stimulus":"Sounds/dog_sound.wav","key_press":null,"block":0,"trial_type":"audio-keyboard-response","trial_index":30,"time_elapsed":3780410,"internal_node_id":"0.0-10.0-0.5","match_key":"l","participant_id":"09"},{"rt":null,"stimulus":"<p style=\"font-size: 48px;\">+</p>","key_press":null,"block":0,"trial_type":"html-keyboard-response","trial_index":31,"time_elapsed":3781414,"internal_node_id":"0.0-10.0-1.5","match_key":"l","participant_id":"09"},{"rt":782.6049999566749,"stimulus":"Images/cow_orig.png","key_press":65,"stim_onset":1581556566317,"block":0,"match_type":"non-match","image_category":"cow","sound_category":"dog","audio_type":"sound","phase":"practice","trial_type":"image-keyboard-response","trial_index":32,"time_elapsed":3782198,"internal_node_id":"0.0-10.0-2.5","match_key":"l","participant_id":"09","correct":true},{"rt":null,"stimulus":"Sounds/correct.wav","key_press":null,"block":0,"trial_type":"audio-keyboard-response","trial_index":33,"time_elapsed":3784202,"internal_node_id":"0.0-10.0-3.5","match_key":"l","participant_id":"09"},{"rt":null,"stimulus":"Sounds/gun_label.wav","key_press":null,"block":0,"trial_type":"audio-keyboard-response","trial_index":34,"time_elapsed":3784790,"internal_node_id":"0.0-10.0-0.6","match_key":"l","participant_id":"09"},{"rt":null,"stimulus":"<p style=\"font-size: 48px;\">+</p>","key_press":null,"block":0,"trial_type":"html-keyboard-response","trial_index":35,"time_elapsed":3785781,"internal_node_id":"0.0-10.0-1.6","match_key":"l","participant_id":"09"},{"rt":767.4699999624863,"stimulus":"Images/rooster_3.png","key_press":65,"stim_onset":1581556570684,"block":0,"match_type":"non-match","image_category":"rooster","sound_category":"gun","audio_type":"label","phase":"practice","trial_type":"image-keyboard-response","trial_index":36,"time_elapsed":3786549,"internal_node_id":"0.0-10.0-2.6","match_key":"l","participant_id":"09","correct":true},{"rt":null,"stimulus":"Sounds/correct.wav","key_press":null,"block":0,"trial_type":"audio-keyboard-response","trial_index":37,"time_elapsed":3788553,"internal_node_id":"0.0-10.0-3.6","match_key":"l","participant_id":"09"},{"rt":null,"stimulus":"Sounds/cow_sound.wav","key_press":null,"block":0,"trial_type":"audio-keyboard-response","trial_index":38,"time_elapsed":3789570,"internal_node_id":"0.0-10.0-0.7","match_key":"l","participant_id":"09"},{"rt":null,"stimulus":"<p style=\"font-size: 48px;\">+</p>","key_press":null,"block":0,"trial_type":"html-keyboard-response","trial_index":39,"time_elapsed":3790564,"internal_node_id":"0.0-10.0-1.7","match_key":"l","participant_id":"09"},{"rt":784.0050000231713,"stimulus":"Images/cow_orig.png","key_press":76,"stim_onset":1581556575467,"block":0,"match_type":"match","image_category":"cow","sound_category":"cow","audio_type":"sound","phase":"practice","trial_type":"image-keyboard-response","trial_index":40,"time_elapsed":3791349,"internal_node_id":"0.0-10.0-2.7","match_key":"l","participant_id":"09","correct":true},{"rt":null,"stimulus":"Sounds/correct.wav","key_press":null,"block":0,"trial_type":"audio-keyboard-response","trial_index":41,"time_elapsed":3793353,"internal_node_id":"0.0-10.0-3.7","match_key":"l","participant_id":"09"},{"rt":null,"stimulus":"Sounds/car_label.wav","key_press":null,"block":0,"trial_type":"audio-keyboard-response","trial_index":42,"time_elapsed":3794430,"internal_node_id":"0.0-10.0-0.8","match_key":"l","participant_id":"09"},{"rt":null,"stimulus":"<p style=\"font-size: 48px;\">+</p>","key_press":null,"block":0,"trial_type":"html-keyboard-response","trial_index":43,"time_elapsed":3795431,"internal_node_id":"0.0-10.0-1.8","match_key":"l","participant_id":"09"},{"rt":973.8600000273436,"stimulus":"Images/motorcycle_3.png","key_press":65,"stim_onset":1581556580334,"block":0,"match_type":"non-match","image_category":"motorcycle","sound_category":"car","audio_type":"label","phase":"practice","trial_type":"image-keyboard-response","trial_index":44,"time_elapsed":3796406,"internal_node_id":"0.0-10.0-2.8","match_key":"l","participant_id":"09","correct":true},{"rt":null,"stimulus":"Sounds/correct.wav","key_press":null,"block":0,"trial_type":"audio-keyboard-response","trial_index":45,"time_elapsed":3798419,"internal_node_id":"0.0-10.0-3.8","match_key":"l","participant_id":"09"},{"rt":null,"stimulus":"Sounds/cat_sound.wav","key_press":null,"block":0,"trial_type":"audio-keyboard-response","trial_index":46,"time_elapsed":3799251,"internal_node_id":"0.0-10.0-0.9","match_key":"l","participant_id":"09"},{"rt":null,"stimulus":"<p style=\"font-size: 48px;\">+</p>","key_press":null,"block":0,"trial_type":"html-keyboard-response","trial_index":47,"time_elapsed":3800249,"internal_node_id":"0.0-10.0-1.9","match_key":"l","participant_id":"09"},{"rt":700.6599999731407,"stimulus":"Images/dog_1.png","key_press":65,"stim_onset":1581556585152,"block":0,"match_type":"non-match","image_category":"dog","sound_category":"cat","audio_type":"sound","phase":"practice","trial_type":"image-keyboard-response","trial_index":48,"time_elapsed":3800951,"internal_node_id":"0.0-10.0-2.9","match_key":"l","participant_id":"09","correct":true},{"rt":null,"stimulus":"Sounds/correct.wav","key_press":null,"block":0,"trial_type":"audio-keyboard-response","trial_index":49,"time_elapsed":3802956,"internal_node_id":"0.0-10.0-3.9","match_key":"l","participant_id":"09"},{"rt":72458.34000001196,"stimulus":"<p>The rest of the experiment is divided into five blocks with 100 trials in each block. It will take about 45 minutes to complete.</p><p>The experimenter will be in the outer room and you can communicate with them through the monitor if you have any questions or wish to stop the experiment.</p>","key_press":13,"trial_type":"html-keyboard-response","trial_index":50,"time_elapsed":3875414,"internal_node_id":"0.0-11.0","match_key":"l","participant_id":"09"},{"rt":23743.305000010878,"stimulus":"<p>Remember, please try not to move or blink your eyes during the presentation of the images. </p><p>At the end of the experiment, we will show you your scores on the task so you can see how you did.</p><p>The experiment will start on the next screen.</p>","key_press":13,"trial_type":"html-keyboard-response","trial_index":51,"time_elapsed":3899159,"internal_node_id":"0.0-12.0","match_key":"l","participant_id":"09"},{"rt":null,"stimulus":"Sounds/whistle_label.wav","key_press":null,"block":1,"trial_type":"audio-keyboard-response","trial_index":52,"time_elapsed":3901874,"internal_node_id":"0.0-13.0-0.0","match_key":"l","participant_id":"09"},{"rt":null,"stimulus":"<p style=\"font-size: 48px;\">+</p>","key_press":null,"block":1,"trial_type":"html-keyboard-response","trial_index":53,"time_elapsed":3902866,"internal_node_id":"0.0-13.0-1.0","match_key":"l","participant_id":"09"},{"rt":514.7600000491366,"stimulus":"Images/whistle_2.png","key_press":76,"stim_onset":1581556687769,"block":1,"match_type":"match","image_category":"whistle","sound_category":"whistle","audio_type":"label","phase":"test","trial_type":"image-keyboard-response","trial_index":54,"time_elapsed":3903382,"internal_node_id":"0.0-13.0-2.0","match_key":"l","participant_id":"09","correct":true},{"rt":null,"stimulus":"Sounds/correct.wav","key_press":null,"block":1,"trial_type":"audio-keyboard-response","trial_index":55,"time_elapsed":3905389,"internal_node_id":"0.0-13.0-3.0","match_key":"l","participant_id":"09"},{"rt":null,"stimulus":"Sounds/cow_label.wav","key_press":null,"block":1,"trial_type":"audio-keyboard-response","trial_index":56,"time_elapsed":3906416,"internal_node_id":"0.0-13.0-0.1","match_key":"l","participant_id":"09"},{"rt":null,"stimulus":"<p style=\"font-size: 48px;\">+</p>","key_press":null,"block":1,"trial_type":"html-keyboard-response","trial_index":57,"time_elapsed":3907416,"internal_node_id":"0.0-13.0-1.1","match_key":"l","participant_id":"09"},{"rt":525.0800000503659,"stimulus":"Images/motorcycle_3.png","key_press":65,"stim_onset":1581556692319,"block":1,"match_type":"non-match","image_category":"motorcycle","sound_category":"cow","audio_type":"label","phase":"test","trial_type":"image-keyboard-response","trial_index":58,"time_elapsed":3907942,"internal_node_id":"0.0-13.0-2.1","match_key":"l","participant_id":"09","correct":true},{"rt":null,"stimulus":"Sounds/correct.wav","key_press":null,"block":1,"trial_type":"audio-keyboard-response","trial_index":59,"time_elapsed":3909953,"internal_node_id":"0.0-13.0-3.1","match_key":"l","participant_id":"09"},{"rt":null,"stimulus":"Sounds/rooster_label.wav","key_press":null,"block":1,"trial_type":"audio-keyboard-response","trial_index":60,"time_elapsed":3910654,"internal_node_id":"0.0-13.0-0.2","match_key":"l","participant_id":"09"},{"rt":null,"stimulus":"<p style=\"font-size: 48px;\">+</p>","key_press":null,"block":1,"trial_type":"html-keyboard-response","trial_index":61,"time_elapsed":3911650,"internal_node_id":"0.0-13.0-1.2","match_key":"l","participant_id":"09"},{"rt":579.5749999815598,"stimulus":"Images/car_3.png","key_press":65,"stim_onset":1581556696553,"block":1,"match_type":"non-match","image_category":"car","sound_category":"rooster","audio_type":"label","phase":"test","trial_type":"image-keyboard-response","trial_index":62,"time_elapsed":3912230,"internal_node_id":"0.0-13.0-2.2","match_key":"l","participant_id":"09","correct":true},{"rt":null,"stimulus":"Sounds/correct.wav","key_press":null,"block":1,"trial_type":"audio-keyboard-response","trial_index":63,"time_elapsed":3914240,"internal_node_id":"0.0-13.0-3.2","match_key":"l","participant_id":"09"},{"rt":null,"stimulus":"Sounds/rooster_label.wav","key_press":null,"block":1,"trial_type":"audio-keyboard-response","trial_index":64,"time_elapsed":3914914,"internal_node_id":"0.0-13.0-0.3","match_key":"l","participant_id":"09"},{"rt":null,"stimulus":"<p style=\"font-size: 48px;\">+</p>","key_press":null,"block":1,"trial_type":"html-keyboard-response","trial_index":65,"time_elapsed":3915916,"internal_node_id":"0.0-13.0-1.3","match_key":"l","participant_id":"09"},{"rt":376.7500000540167,"stimulus":"Images/rooster_1.png","key_press":76,"stim_onset":1581556700820,"block":1,"match_type":"match","image_category":"rooster","sound_category":"rooster","audio_type":"label","phase":"test","trial_type":"image-keyboard-response","trial_index":66,"time_elapsed":3916294,"internal_node_id":"0.0-13.0-2.3","match_key":"l","participant_id":"09","correct":true},{"rt":null,"stimulus":"Sounds/correct.wav","key_press":null,"block":1,"trial_type":"audio-keyboard-response","trial_index":67,"time_elapsed":3918304,"internal_node_id":"0.0-13.0-3.3","match_key":"l","participant_id":"09"},{"rt":null,"stimulus":"Sounds/frog_sound.wav","key_press":null,"block":1,"trial_type":"audio-keyboard-response","trial_index":68,"time_elapsed":3919214,"internal_node_id":"0.0-13.0-0.4","match_key":"l","participant_id":"09"},{"rt":null,"stimulus":"<p style=\"font-size: 48px;\">+</p>","key_press":null,"block":1,"trial_type":"html-keyboard-response","trial_index":69,"time_elapsed":3920216,"internal_node_id":"0.0-13.0-1.4","match_key":"l","participant_id":"09"},{"rt":860.9949999954551,"stimulus":"Images/car_cartoon.png","key_press":65,"stim_onset":1581556705120,"block":1,"match_type":"non-match","image_category":"car","sound_category":"frog","audio_type":"sound","phase":"test","trial_type":"image-keyboard-response","trial_index":70,"time_elapsed":3921078,"internal_node_id":"0.0-13.0-2.4","match_key":"l","participant_id":"09","correct":true},{"rt":null,"stimulus":"Sounds/correct.wav","key_press":null,"block":1,"trial_type":"audio-keyboard-response","trial_index":71,"time_elapsed":3923088,"internal_node_id":"0.0-13.0-3.4","match_key":"l","participant_id":"09"},{"rt":null,"stimulus":"Sounds/frog_sound.wav","key_press":null,"block":1,"trial_type":"audio-keyboard-response","trial_index":72,"time_elapsed":3923974,"internal_node_id":"0.0-13.0-0.5","match_key":"l","participant_id":"09"},{"rt":null,"stimulus":"<p style=\"font-size: 48px;\">+</p>","key_press":null,"block":1,"trial_type":"html-keyboard-response","trial_index":73,"time_elapsed":3924969,"internal_node_id":"0.0-13.0-1.5","match_key":"l","participant_id":"09"},{"rt":446.86500006355345,"stimulus":"Images/frog_orig.png","key_press":76,"stim_onset":1581556709873,"block":1,"match_type":"match","image_category":"frog","sound_category":"frog","audio_type":"sound","phase":"test","trial_type":"image-keyboard-response","trial_index":74,"time_elapsed":3925417,"internal_node_id":"0.0-13.0-2.5","match_key":"l","participant_id":"09","correct":true},{"rt":null,"stimulus":"Sounds/correct.wav","key_press":null,"block":1,"trial_type":"audio-keyboard-response","trial_index":75,"time_elapsed":3927424,"internal_node_id":"0.0-13.0-3.5","match_key":"l","participant_id":"09"},{"rt":null,"stimulus":"Sounds/rooster_label.wav","key_press":null,"block":1,"trial_type":"audio-keyboard-response","trial_index":76,"time_elapsed":3928097,"internal_node_id":"0.0-13.0-0.6","match_key":"l","participant_id":"09"},{"rt":null,"stimulus":"<p style=\"font-size: 48px;\">+</p>","key_press":null,"block":1,"trial_type":"html-keyboard-response","trial_index":77,"time_elapsed":3929086,"internal_node_id":"0.0-13.0-1.6","match_key":"l","participant_id":"09"},{"rt":761.9999999878928,"stimulus":"Images/dog_3.png","key_press":65,"stim_onset":1581556713989,"block":1,"match_type":"non-match","image_category":"dog","sound_category":"rooster","audio_type":"label","phase":"test","trial_type":"image-keyboard-response","trial_index":78,"time_elapsed":3929849,"internal_node_id":"0.0-13.0-2.6","match_key":"l","participant_id":"09","correct":true},{"rt":null,"stimulus":"Sounds/correct.wav","key_press":null,"block":1,"trial_type":"audio-keyboard-response","trial_index":79,"time_elapsed":3931858,"internal_node_id":"0.0-13.0-3.6","match_key":"l","participant_id":"09"},{"rt":null,"stimulus":"Sounds/cat_sound.wav","key_press":null,"block":1,"trial_type":"audio-keyboard-response","trial_index":80,"time_elapsed":3932697,"internal_node_id":"0.0-13.0-0.7","match_key":"l","participant_id":"09"},{"rt":null,"stimulus":"<p style=\"font-size: 48px;\">+</p>","key_press":null,"block":1,"trial_type":"html-keyboard-response","trial_index":81,"time_elapsed":3933686,"internal_node_id":"0.0-13.0-1.7","match_key":"l","participant_id":"09"},{"rt":561.9550000410527,"stimulus":"Images/cat_3.png","key_press":76,"stim_onset":1581556718589,"block":1,"match_type":"match","image_category":"cat","sound_category":"cat","audio_type":"sound","phase":"test","trial_type":"image-keyboard-response","trial_index":82,"time_elapsed":3934249,"internal_node_id":"0.0-13.0-2.7","match_key":"l","participant_id":"09","correct":true},{"rt":null,"stimulus":"Sounds/correct.wav","key_press":null,"block":1,"trial_type":"audio-keyboard-response","trial_index":83,"time_elapsed":3936258,"internal_node_id":"0.0-13.0-3.7","match_key":"l","participant_id":"09"},{"rt":null,"stimulus":"Sounds/motorcycle_sound.wav","key_press":null,"block":1,"trial_type":"audio-keyboard-response","trial_index":84,"time_elapsed":3937377,"internal_node_id":"0.0-13.0-0.8","match_key":"l","participant_id":"09"},{"rt":null,"stimulus":"<p style=\"font-size: 48px;\">+</p>","key_press":null,"block":1,"trial_type":"html-keyboard-response","trial_index":85,"time_elapsed":3938370,"internal_node_id":"0.0-13.0-1.8","match_key":"l","participant_id":"09"},{"rt":630.9500000206754,"stimulus":"Images/motorcycle_orig.png","key_press":76,"stim_onset":1581556723273,"block":1,"match_type":"match","image_category":"motorcycle","sound_category":"motorcycle","audio_type":"sound","phase":"test","trial_type":"image-keyboard-response","trial_index":86,"time_elapsed":3939002,"internal_node_id":"0.0-13.0-2.8","match_key":"l","participant_id":"09","correct":true},{"rt":null,"stimulus":"Sounds/correct.wav","key_press":null,"block":1,"trial_type":"audio-keyboard-response","trial_index":87,"time_elapsed":3941008,"internal_node_id":"0.0-13.0-3.8","match_key":"l","participant_id":"09"},{"rt":null,"stimulus":"Sounds/motorcycle_label.wav","key_press":null,"block":1,"trial_type":"audio-keyboard-response","trial_index":88,"time_elapsed":3942157,"internal_node_id":"0.0-13.0-0.9","match_key":"l","participant_id":"09"},{"rt":null,"stimulus":"<p style=\"font-size: 48px;\">+</p>","key_press":null,"block":1,"trial_type":"html-keyboard-response","trial_index":89,"time_elapsed":3943153,"internal_node_id":"0.0-13.0-1.9","match_key":"l","participant_id":"09"},{"rt":567.3250000691041,"stimulus":"Images/motorcycle_3.png","key_press":76,"stim_onset":1581556728056,"block":1,"match_type":"match","image_category":"motorcycle","sound_category":"motorcycle","audio_type":"label","phase":"test","trial_type":"image-keyboard-response","trial_index":90,"time_elapsed":3943721,"internal_node_id":"0.0-13.0-2.9","match_key":"l","participant_id":"09","correct":true},{"rt":null,"stimulus":"Sounds/correct.wav","key_press":null,"block":1,"trial_type":"audio-keyboard-response","trial_index":91,"time_elapsed":3945726,"internal_node_id":"0.0-13.0-3.9","match_key":"l","participant_id":"09"},{"rt":null,"stimulus":"Sounds/frog_sound.wav","key_press":null,"block":1,"trial_type":"audio-keyboard-response","trial_index":92,"time_elapsed":3946637,"internal_node_id":"0.0-13.0-0.10","match_key":"l","participant_id":"09"},{"rt":null,"stimulus":"<p style=\"font-size: 48px;\">+</p>","key_press":null,"block":1,"trial_type":"html-keyboard-response","trial_index":93,"time_elapsed":3947636,"internal_node_id":"0.0-13.0-1.10","match_key":"l","participant_id":"09"},{"rt":531.9049999816343,"stimulus":"Images/gun_2.png","key_press":65,"stim_onset":1581556732540,"block":1,"match_type":"non-match","image_category":"gun","sound_category":"frog","audio_type":"sound","phase":"test","trial_type":"image-keyboard-response","trial_index":94,"time_elapsed":3948169,"internal_node_id":"0.0-13.0-2.10","match_key":"l","participant_id":"09","correct":true},{"rt":null,"stimulus":"Sounds/correct.wav","key_press":null,"block":1,"trial_type":"audio-keyboard-response","trial_index":95,"time_elapsed":3950174,"internal_node_id":"0.0-13.0-3.10","match_key":"l","participant_id":"09"},{"rt":null,"stimulus":"Sounds/rooster_sound.wav","key_press":null,"block":1,"trial_type":"audio-keyboard-response","trial_index":96,"time_elapsed":3950877,"internal_node_id":"0.0-13.0-0.11","match_key":"l","participant_id":"09"},{"rt":null,"stimulus":"<p style=\"font-size: 48px;\">+</p>","key_press":null,"block":1,"trial_type":"html-keyboard-response","trial_index":97,"time_elapsed":3951870,"internal_node_id":"0.0-13.0-1.11","match_key":"l","participant_id":"09"},{"rt":570.6149999750778,"stimulus":"Images/rooster_orig.png","key_press":76,"stim_onset":1581556736773,"block":1,"match_type":"match","image_category":"rooster","sound_category":"rooster","audio_type":"sound","phase":"test","trial_type":"image-keyboard-response","trial_index":98,"time_elapsed":3952441,"internal_node_id":"0.0-13.0-2.11","match_key":"l","participant_id":"09","correct":true},{"rt":null,"stimulus":"Sounds/correct.wav","key_press":null,"block":1,"trial_type":"audio-keyboard-response","trial_index":99,"time_elapsed":3954458,"internal_node_id":"0.0-13.0-3.11","match_key":"l","participant_id":"09"},{"rt":null,"stimulus":"Sounds/car_label.wav","key_press":null,"block":1,"trial_type":"audio-keyboard-response","trial_index":100,"time_elapsed":3955537,"internal_node_id":"0.0-13.0-0.12","match_key":"l","participant_id":"09"},{"rt":null,"stimulus":"<p style=\"font-size: 48px;\">+</p>","key_press":null,"block":1,"trial_type":"html-keyboard-response","trial_index":101,"time_elapsed":3956536,"internal_node_id":"0.0-13.0-1.12","match_key":"l","participant_id":"09"},{"rt":527.8350000735372,"stimulus":"Images/frog_1.png","key_press":65,"stim_onset":1581556741440,"block":1,"match_type":"non-match","image_category":"frog","sound_category":"car","audio_type":"label","phase":"test","trial_type":"image-keyboard-response","trial_index":102,"time_elapsed":3957065,"internal_node_id":"0.0-13.0-2.12","match_key":"l","participant_id":"09","correct":true},{"rt":null,"stimulus":"Sounds/correct.wav","key_press":null,"block":1,"trial_type":"audio-keyboard-response","trial_index":103,"time_elapsed":3959075,"internal_node_id":"0.0-13.0-3.12","match_key":"l","participant_id":"09"},{"rt":null,"stimulus":"Sounds/motorcycle_label.wav","key_press":null,"block":1,"trial_type":"audio-keyboard-response","trial_index":104,"time_elapsed":3960177,"internal_node_id":"0.0-13.0-0.13","match_key":"l","participant_id":"09"},{"rt":null,"stimulus":"<p style=\"font-size: 48px;\">+</p>","key_press":null,"block":1,"trial_type":"html-keyboard-response","trial_index":105,"time_elapsed":3961170,"internal_node_id":"0.0-13.0-1.13","match_key":"l","participant_id":"09"},{"rt":582.5099999783561,"stimulus":"Images/motorcycle_2.png","key_press":76,"stim_onset":1581556746073,"block":1,"match_type":"match","image_category":"motorcycle","sound_category":"motorcycle","audio_type":"label","phase":"test","trial_type":"image-keyboard-response","trial_index":106,"time_elapsed":3961753,"internal_node_id":"0.0-13.0-2.13","match_key":"l","participant_id":"09","correct":true},{"rt":null,"stimulus":"Sounds/correct.wav","key_press":null,"block":1,"trial_type":"audio-keyboard-response","trial_index":107,"time_elapsed":3963758,"internal_node_id":"0.0-13.0-3.13","match_key":"l","participant_id":"09"},{"rt":null,"stimulus":"Sounds/motorcycle_sound.wav","key_press":null,"block":1,"trial_type":"audio-keyboard-response","trial_index":108,"time_elapsed":3964877,"internal_node_id":"0.0-13.0-0.14","match_key":"l","participant_id":"09"},{"rt":null,"stimulus":"<p style=\"font-size: 48px;\">+</p>","key_press":null,"block":1,"trial_type":"html-keyboard-response","trial_index":109,"time_elapsed":3965870,"internal_node_id":"0.0-13.0-1.14","match_key":"l","participant_id":"09"},{"rt":906.514999922365,"stimulus":"Images/train_3.png","key_press":65,"stim_onset":1581556750773,"block":1,"match_type":"non-match","image_category":"train","sound_category":"motorcycle","audio_type":"sound","phase":"test","trial_type":"image-keyboard-response","trial_index":110,"time_elapsed":3966777,"internal_node_id":"0.0-13.0-2.14","match_key":"l","participant_id":"09","correct":true},{"rt":null,"stimulus":"Sounds/correct.wav","key_press":null,"block":1,"trial_type":"audio-keyboard-response","trial_index":111,"time_elapsed":3968790,"internal_node_id":"0.0-13.0-3.14","match_key":"l","participant_id":"09"},{"rt":null,"stimulus":"Sounds/gun_label.wav","key_press":null,"block":1,"trial_type":"audio-keyboard-response","trial_index":112,"time_elapsed":3969377,"internal_node_id":"0.0-13.0-0.15","match_key":"l","participant_id":"09"},{"rt":null,"stimulus":"<p style=\"font-size: 48px;\">+</p>","key_press":null,"block":1,"trial_type":"html-keyboard-response","trial_index":113,"time_elapsed":3970370,"internal_node_id":"0.0-13.0-1.15","match_key":"l","participant_id":"09"},{"rt":678.2299999613315,"stimulus":"Images/train_2.png","key_press":65,"stim_onset":1581556755273,"block":1,"match_type":"non-match","image_category":"train","sound_category":"gun","audio_type":"label","phase":"test","trial_type":"image-keyboard-response","trial_index":114,"time_elapsed":3971049,"internal_node_id":"0.0-13.0-2.15","match_key":"l","participant_id":"09","correct":true},{"rt":null,"stimulus":"Sounds/correct.wav","key_press":null,"block":1,"trial_type":"audio-keyboard-response","trial_index":115,"time_elapsed":3973060,"internal_node_id":"0.0-13.0-3.15","match_key":"l","participant_id":"09"},{"rt":null,"stimulus":"Sounds/car_label.wav","key_press":null,"block":1,"trial_type":"audio-keyboard-response","trial_index":116,"time_elapsed":3974137,"internal_node_id":"0.0-13.0-0.16","match_key":"l","participant_id":"09"},{"rt":null,"stimulus":"<p style=\"font-size: 48px;\">+</p>","key_press":null,"block":1,"trial_type":"html-keyboard-response","trial_index":117,"time_elapsed":3975137,"internal_node_id":"0.0-13.0-1.16","match_key":"l","participant_id":"09"},{"rt":535.6649999739602,"stimulus":"Images/car_3.png","key_press":76,"stim_onset":1581556760040,"block":1,"match_type":"match","image_category":"car","sound_category":"car","audio_type":"label","phase":"test","trial_type":"image-keyboard-response","trial_index":118,"time_elapsed":3975673,"internal_node_id":"0.0-13.0-2.16","match_key":"l","participant_id":"09","correct":true},{"rt":null,"stimulus":"Sounds/correct.wav","key_press":null,"block":1,"trial_type":"audio-keyboard-response","trial_index":119,"time_elapsed":3977690,"internal_node_id":"0.0-13.0-3.16","match_key":"l","participant_id":"09"},{"rt":null,"stimulus":"Sounds/whistle_label.wav","key_press":null,"block":1,"trial_type":"audio-keyboard-response","trial_index":120,"time_elapsed":3978397,"internal_node_id":"0.0-13.0-0.17","match_key":"l","participant_id":"09"},{"rt":null,"stimulus":"<p style=\"font-size: 48px;\">+</p>","key_press":null,"block":1,"trial_type":"html-keyboard-response","trial_index":121,"time_elapsed":3979387,"internal_node_id":"0.0-13.0-1.17","match_key":"l","participant_id":"09"},{"rt":557.8050001058728,"stimulus":"Images/frog_orig.png","key_press":65,"stim_onset":1581556764290,"block":1,"match_type":"non-match","image_category":"frog","sound_category":"whistle","audio_type":"label","phase":"test","trial_type":"image-keyboard-response","trial_index":122,"time_elapsed":3979945,"internal_node_id":"0.0-13.0-2.17","match_key":"l","participant_id":"09","correct":true},{"rt":null,"stimulus":"Sounds/correct.wav","key_press":null,"block":1,"trial_type":"audio-keyboard-response","trial_index":123,"time_elapsed":3981958,"internal_node_id":"0.0-13.0-3.17","match_key":"l","participant_id":"09"},{"rt":null,"stimulus":"Sounds/cat_label.wav","key_press":null,"block":1,"trial_type":"audio-keyboard-response","trial_index":124,"time_elapsed":3982797,"internal_node_id":"0.0-13.0-0.18","match_key":"l","participant_id":"09"},{"rt":null,"stimulus":"<p style=\"font-size: 48px;\">+</p>","key_press":null,"block":1,"trial_type":"html-keyboard-response","trial_index":125,"time_elapsed":3983787,"internal_node_id":"0.0-13.0-1.18","match_key":"l","participant_id":"09"},{"rt":491.99999996926636,"stimulus":"Images/dog_cartoon.png","key_press":65,"stim_onset":1581556768690,"block":1,"match_type":"non-match","image_category":"dog","sound_category":"cat","audio_type":"label","phase":"test","trial_type":"image-keyboard-response","trial_index":126,"time_elapsed":3984281,"internal_node_id":"0.0-13.0-2.18","match_key":"l","participant_id":"09","correct":true},{"rt":null,"stimulus":"Sounds/correct.wav","key_press":null,"block":1,"trial_type":"audio-keyboard-response","trial_index":127,"time_elapsed":3986291,"internal_node_id":"0.0-13.0-3.18","match_key":"l","participant_id":"09"},{"rt":null,"stimulus":"Sounds/cat_sound.wav","key_press":null,"block":1,"trial_type":"audio-keyboard-response","trial_index":128,"time_elapsed":3987139,"internal_node_id":"0.0-13.0-0.19","match_key":"l","participant_id":"09"},{"rt":null,"stimulus":"<p style=\"font-size: 48px;\">+</p>","key_press":null,"block":1,"trial_type":"html-keyboard-response","trial_index":129,"time_elapsed":3988138,"internal_node_id":"0.0-13.0-1.19","match_key":"l","participant_id":"09"},{"rt":495.54000003263354,"stimulus":"Images/gun_1.png","key_press":65,"stim_onset":1581556773041,"block":1,"match_type":"non-match","image_category":"gun","sound_category":"cat","audio_type":"sound","phase":"test","trial_type":"image-keyboard-response","trial_index":130,"time_elapsed":3988635,"internal_node_id":"0.0-13.0-2.19","match_key":"l","participant_id":"09","correct":true},{"rt":null,"stimulus":"Sounds/correct.wav","key_press":null,"block":1,"trial_type":"audio-keyboard-response","trial_index":131,"time_elapsed":3990645,"internal_node_id":"0.0-13.0-3.19","match_key":"l","participant_id":"09"},{"rt":null,"stimulus":"Sounds/cat_sound.wav","key_press":null,"block":1,"trial_type":"audio-keyboard-response","trial_index":132,"time_elapsed":3991459,"internal_node_id":"0.0-13.0-0.20","match_key":"l","participant_id":"09"},{"rt":null,"stimulus":"<p style=\"font-size: 48px;\">+</p>","key_press":null,"block":1,"trial_type":"html-keyboard-response","trial_index":133,"time_elapsed":3992455,"internal_node_id":"0.0-13.0-1.20","match_key":"l","participant_id":"09"},{"rt":626.9949999405071,"stimulus":"Images/rooster_orig.png","key_press":65,"stim_onset":1581556777358,"block":1,"match_type":"non-match","image_category":"rooster","sound_category":"cat","audio_type":"sound","phase":"test","trial_type":"image-keyboard-response","trial_index":134,"time_elapsed":3993083,"internal_node_id":"0.0-13.0-2.20","match_key":"l","participant_id":"09","correct":true},{"rt":null,"stimulus":"Sounds/correct.wav","key_press":null,"block":1,"trial_type":"audio-keyboard-response","trial_index":135,"time_elapsed":3995092,"internal_node_id":"0.0-13.0-3.20","match_key":"l","participant_id":"09"},{"rt":null,"stimulus":"Sounds/cow_label.wav","key_press":null,"block":1,"trial_type":"audio-keyboard-response","trial_index":136,"time_elapsed":3996118,"internal_node_id":"0.0-13.0-0.21","match_key":"l","participant_id":"09"},{"rt":null,"stimulus":"<p style=\"font-size: 48px;\">+</p>","key_press":null,"block":1,"trial_type":"html-keyboard-response","trial_index":137,"time_elapsed":3997122,"internal_node_id":"0.0-13.0-1.21","match_key":"l","participant_id":"09"},{"rt":552.0800000522286,"stimulus":"Images/frog_2.png","key_press":65,"stim_onset":1581556782025,"block":1,"match_type":"non-match","image_category":"frog","sound_category":"cow","audio_type":"label","phase":"test","trial_type":"image-keyboard-response","trial_index":138,"time_elapsed":3997675,"internal_node_id":"0.0-13.0-2.21","match_key":"l","participant_id":"09","correct":true},{"rt":null,"stimulus":"Sounds/correct.wav","key_press":null,"block":1,"trial_type":"audio-keyboard-response","trial_index":139,"time_elapsed":3999692,"internal_node_id":"0.0-13.0-3.21","match_key":"l","participant_id":"09"},{"rt":null,"stimulus":"Sounds/dog_sound.wav","key_press":null,"block":1,"trial_type":"audio-keyboard-response","trial_index":140,"time_elapsed":4000399,"internal_node_id":"0.0-13.0-0.22","match_key":"l","participant_id":"09"},{"rt":null,"stimulus":"<p style=\"font-size: 48px;\">+</p>","key_press":null,"block":1,"trial_type":"html-keyboard-response","trial_index":141,"time_elapsed":4001388,"internal_node_id":"0.0-13.0-1.22","match_key":"l","participant_id":"09"},{"rt":749.4100000476465,"stimulus":"Images/cow_3.png","key_press":65,"stim_onset":1581556786292,"block":1,"match_type":"non-match","image_category":"cow","sound_category":"dog","audio_type":"sound","phase":"test","trial_type":"image-keyboard-response","trial_index":142,"time_elapsed":4002139,"internal_node_id":"0.0-13.0-2.22","match_key":"l","participant_id":"09","correct":true},{"rt":null,"stimulus":"Sounds/correct.wav","key_press":null,"block":1,"trial_type":"audio-keyboard-response","trial_index":143,"time_elapsed":4004145,"internal_node_id":"0.0-13.0-3.22","match_key":"l","participant_id":"09"},{"rt":null,"stimulus":"Sounds/cat_sound.wav","key_press":null,"block":1,"trial_type":"audio-keyboard-response","trial_index":144,"time_elapsed":4004959,"internal_node_id":"0.0-13.0-0.23","match_key":"l","participant_id":"09"},{"rt":null,"stimulus":"<p style=\"font-size: 48px;\">+</p>","key_press":null,"block":1,"trial_type":"html-keyboard-response","trial_index":145,"time_elapsed":4005955,"internal_node_id":"0.0-13.0-1.23","match_key":"l","participant_id":"09"},{"rt":518.8799999887124,"stimulus":"Images/cat_1.png","key_press":76,"stim_onset":1581556790858,"block":1,"match_type":"match","image_category":"cat","sound_category":"cat","audio_type":"sound","phase":"test","trial_type":"image-keyboard-response","trial_index":146,"time_elapsed":4006475,"internal_node_id":"0.0-13.0-2.23","match_key":"l","participant_id":"09","correct":true},{"rt":null,"stimulus":"Sounds/correct.wav","key_press":null,"block":1,"trial_type":"audio-keyboard-response","trial_index":147,"time_elapsed":4008493,"internal_node_id":"0.0-13.0-3.23","match_key":"l","participant_id":"09"},{"rt":null,"stimulus":"Sounds/dog_sound.wav","key_press":null,"block":1,"trial_type":"audio-keyboard-response","trial_index":148,"time_elapsed":4009178,"internal_node_id":"0.0-13.0-0.24","match_key":"l","participant_id":"09"},{"rt":null,"stimulus":"<p style=\"font-size: 48px;\">+</p>","key_press":null,"block":1,"trial_type":"html-keyboard-response","trial_index":149,"time_elapsed":4010172,"internal_node_id":"0.0-13.0-1.24","match_key":"l","participant_id":"09"},{"rt":525.8900000480935,"stimulus":"Images/dog_1.png","key_press":76,"stim_onset":1581556795075,"block":1,"match_type":"match","image_category":"dog","sound_category":"dog","audio_type":"sound","phase":"test","trial_type":"image-keyboard-response","trial_index":150,"time_elapsed":4010699,"internal_node_id":"0.0-13.0-2.24","match_key":"l","participant_id":"09","correct":true},{"rt":null,"stimulus":"Sounds/correct.wav","key_press":null,"block":1,"trial_type":"audio-keyboard-response","trial_index":151,"time_elapsed":4012709,"internal_node_id":"0.0-13.0-3.24","match_key":"l","participant_id":"09"},{"rt":null,"stimulus":"Sounds/train_sound.wav","key_press":null,"block":1,"trial_type":"audio-keyboard-response","trial_index":152,"time_elapsed":4014019,"internal_node_id":"0.0-13.0-0.25","match_key":"l","participant_id":"09"},{"rt":null,"stimulus":"<p style=\"font-size: 48px;\">+</p>","key_press":null,"block":1,"trial_type":"html-keyboard-response","trial_index":153,"time_elapsed":4015022,"internal_node_id":"0.0-13.0-1.25","match_key":"l","participant_id":"09"},{"rt":715.764999971725,"stimulus":"Images/motorcycle_orig.png","key_press":65,"stim_onset":1581556799925,"block":1,"match_type":"non-match","image_category":"motorcycle","sound_category":"train","audio_type":"sound","phase":"test","trial_type":"image-keyboard-response","trial_index":154,"time_elapsed":4015739,"internal_node_id":"0.0-13.0-2.25","match_key":"l","participant_id":"09","correct":true},{"rt":null,"stimulus":"Sounds/correct.wav","key_press":null,"block":1,"trial_type":"audio-keyboard-response","trial_index":155,"time_elapsed":4017744,"internal_node_id":"0.0-13.0-3.25","match_key":"l","participant_id":"09"},{"rt":null,"stimulus":"Sounds/car_sound.wav","key_press":null,"block":1,"trial_type":"audio-keyboard-response","trial_index":156,"time_elapsed":4018819,"internal_node_id":"0.0-13.0-0.26","match_key":"l","participant_id":"09"},{"rt":null,"stimulus":"<p style=\"font-size: 48px;\">+</p>","key_press":null,"block":1,"trial_type":"html-keyboard-response","trial_index":157,"time_elapsed":4019822,"internal_node_id":"0.0-13.0-1.26","match_key":"l","participant_id":"09"},{"rt":604.1299999924377,"stimulus":"Images/car_1.png","key_press":65,"stim_onset":1581556804725,"block":1,"match_type":"match","image_category":"car","sound_category":"car","audio_type":"sound","phase":"test","trial_type":"image-keyboard-response","trial_index":158,"time_elapsed":4020427,"internal_node_id":"0.0-13.0-2.26","match_key":"l","participant_id":"09","correct":false},{"rt":null,"stimulus":"Sounds/incorrect.wav","key_press":null,"block":1,"trial_type":"audio-keyboard-response","trial_index":159,"time_elapsed":4022443,"internal_node_id":"0.0-13.0-3.26","match_key":"l","participant_id":"09"},{"rt":null,"stimulus":"Sounds/motorcycle_sound.wav","key_press":null,"block":1,"trial_type":"audio-keyboard-response","trial_index":160,"time_elapsed":4023559,"internal_node_id":"0.0-13.0-0.27","match_key":"l","participant_id":"09"},{"rt":null,"stimulus":"<p style=\"font-size: 48px;\">+</p>","key_press":null,"block":1,"trial_type":"html-keyboard-response","trial_index":161,"time_elapsed":4024555,"internal_node_id":"0.0-13.0-1.27","match_key":"l","participant_id":"09"},{"rt":766.6550000431016,"stimulus":"Images/motorcycle_cartoon.png","key_press":76,"stim_onset":1581556809458,"block":1,"match_type":"match","image_category":"motorcycle","sound_category":"motorcycle","audio_type":"sound","phase":"test","trial_type":"image-keyboard-response","trial_index":162,"time_elapsed":4025323,"internal_node_id":"0.0-13.0-2.27","match_key":"l","participant_id":"09","correct":true},{"rt":null,"stimulus":"Sounds/correct.wav","key_press":null,"block":1,"trial_type":"audio-keyboard-response","trial_index":163,"time_elapsed":4027327,"internal_node_id":"0.0-13.0-3.27","match_key":"l","participant_id":"09"},{"rt":null,"stimulus":"Sounds/whistle_label.wav","key_press":null,"block":1,"trial_type":"audio-keyboard-response","trial_index":164,"time_elapsed":4028019,"internal_node_id":"0.0-13.0-0.28","match_key":"l","participant_id":"09"},{"rt":null,"stimulus":"<p style=\"font-size: 48px;\">+</p>","key_press":null,"block":1,"trial_type":"html-keyboard-response","trial_index":165,"time_elapsed":4029022,"internal_node_id":"0.0-13.0-1.28","match_key":"l","participant_id":"09"},{"rt":587.5749998958781,"stimulus":"Images/whistle_1.png","key_press":76,"stim_onset":1581556813925,"block":1,"match_type":"match","image_category":"whistle","sound_category":"whistle","audio_type":"label","phase":"test","trial_type":"image-keyboard-response","trial_index":166,"time_elapsed":4029611,"internal_node_id":"0.0-13.0-2.28","match_key":"l","participant_id":"09","correct":true},{"rt":null,"stimulus":"Sounds/correct.wav","key_press":null,"block":1,"trial_type":"audio-keyboard-response","trial_index":167,"time_elapsed":4031628,"internal_node_id":"0.0-13.0-3.28","match_key":"l","participant_id":"09"},{"rt":null,"stimulus":"Sounds/cow_sound.wav","key_press":null,"block":1,"trial_type":"audio-keyboard-response","trial_index":168,"time_elapsed":4032639,"internal_node_id":"0.0-13.0-0.29","match_key":"l","participant_id":"09"},{"rt":null,"stimulus":"<p style=\"font-size: 48px;\">+</p>","key_press":null,"block":1,"trial_type":"html-keyboard-response","trial_index":169,"time_elapsed":4033638,"internal_node_id":"0.0-13.0-1.29","match_key":"l","participant_id":"09"},{"rt":419.72500004339963,"stimulus":"Images/cow_orig.png","key_press":76,"stim_onset":1581556818542,"block":1,"match_type":"match","image_category":"cow","sound_category":"cow","audio_type":"sound","phase":"test","trial_type":"image-keyboard-response","trial_index":170,"time_elapsed":4034059,"internal_node_id":"0.0-13.0-2.29","match_key":"l","participant_id":"09","correct":true},{"rt":null,"stimulus":"Sounds/correct.wav","key_press":null,"block":1,"trial_type":"audio-keyboard-response","trial_index":171,"time_elapsed":4036075,"internal_node_id":"0.0-13.0-3.29","match_key":"l","participant_id":"09"},{"rt":null,"stimulus":"Sounds/dog_label.wav","key_press":null,"block":1,"trial_type":"audio-keyboard-response","trial_index":172,"time_elapsed":4036739,"internal_node_id":"0.0-13.0-0.30","match_key":"l","participant_id":"09"},{"rt":null,"stimulus":"<p style=\"font-size: 48px;\">+</p>","key_press":null,"block":1,"trial_type":"html-keyboard-response","trial_index":173,"time_elapsed":4037739,"internal_node_id":"0.0-13.0-1.30","match_key":"l","participant_id":"09"},{"rt":494.76999999023974,"stimulus":"Images/dog_orig.png","key_press":76,"stim_onset":1581556822642,"block":1,"match_type":"match","image_category":"dog","sound_category":"dog","audio_type":"label","phase":"test","trial_type":"image-keyboard-response","trial_index":174,"time_elapsed":4038235,"internal_node_id":"0.0-13.0-2.30","match_key":"l","participant_id":"09","correct":true},{"rt":null,"stimulus":"Sounds/correct.wav","key_press":null,"block":1,"trial_type":"audio-keyboard-response","trial_index":175,"time_elapsed":4040246,"internal_node_id":"0.0-13.0-3.30","match_key":"l","participant_id":"09"},{"rt":null,"stimulus":"Sounds/motorcycle_sound.wav","key_press":null,"block":1,"trial_type":"audio-keyboard-response","trial_index":176,"time_elapsed":4041339,"internal_node_id":"0.0-13.0-0.31","match_key":"l","participant_id":"09"},{"rt":null,"stimulus":"<p style=\"font-size: 48px;\">+</p>","key_press":null,"block":1,"trial_type":"html-keyboard-response","trial_index":177,"time_elapsed":4042339,"internal_node_id":"0.0-13.0-1.31","match_key":"l","participant_id":"09"},{"rt":599.0950000705197,"stimulus":"Images/gun_3.png","key_press":65,"stim_onset":1581556827242,"block":1,"match_type":"non-match","image_category":"gun","sound_category":"motorcycle","audio_type":"sound","phase":"test","trial_type":"image-keyboard-response","trial_index":178,"time_elapsed":4042939,"internal_node_id":"0.0-13.0-2.31","match_key":"l","participant_id":"09","correct":true},{"rt":null,"stimulus":"Sounds/correct.wav","key_press":null,"block":1,"trial_type":"audio-keyboard-response","trial_index":179,"time_elapsed":4044944,"internal_node_id":"0.0-13.0-3.31","match_key":"l","participant_id":"09"},{"rt":null,"stimulus":"Sounds/rooster_sound.wav","key_press":null,"block":1,"trial_type":"audio-keyboard-response","trial_index":180,"time_elapsed":4045639,"internal_node_id":"0.0-13.0-0.32","match_key":"l","participant_id":"09"},{"rt":null,"stimulus":"<p style=\"font-size: 48px;\">+</p>","key_press":null,"block":1,"trial_type":"html-keyboard-response","trial_index":181,"time_elapsed":4046640,"internal_node_id":"0.0-13.0-1.32","match_key":"l","participant_id":"09"},{"rt":506.9349999539554,"stimulus":"Images/whistle_cartoon.png","key_press":65,"stim_onset":1581556831544,"block":1,"match_type":"non-match","image_category":"whistle","sound_category":"rooster","audio_type":"sound","phase":"test","trial_type":"image-keyboard-response","trial_index":182,"time_elapsed":4047148,"internal_node_id":"0.0-13.0-2.32","match_key":"l","participant_id":"09","correct":true},{"rt":null,"stimulus":"Sounds/correct.wav","key_press":null,"block":1,"trial_type":"audio-keyboard-response","trial_index":183,"time_elapsed":4049162,"internal_node_id":"0.0-13.0-3.32","match_key":"l","participant_id":"09"},{"rt":null,"stimulus":"Sounds/dog_label.wav","key_press":null,"block":1,"trial_type":"audio-keyboard-response","trial_index":184,"time_elapsed":4049800,"internal_node_id":"0.0-13.0-0.33","match_key":"l","participant_id":"09"},{"rt":null,"stimulus":"<p style=\"font-size: 48px;\">+</p>","key_press":null,"block":1,"trial_type":"html-keyboard-response","trial_index":185,"time_elapsed":4050791,"internal_node_id":"0.0-13.0-1.33","match_key":"l","participant_id":"09"},{"rt":564.564999891445,"stimulus":"Images/frog_3.png","key_press":65,"stim_onset":1581556835694,"block":1,"match_type":"non-match","image_category":"frog","sound_category":"dog","audio_type":"label","phase":"test","trial_type":"image-keyboard-response","trial_index":186,"time_elapsed":4051356,"internal_node_id":"0.0-13.0-2.33","match_key":"l","participant_id":"09","correct":true},{"rt":null,"stimulus":"Sounds/correct.wav","key_press":null,"block":1,"trial_type":"audio-keyboard-response","trial_index":187,"time_elapsed":4053365,"internal_node_id":"0.0-13.0-3.33","match_key":"l","participant_id":"09"},{"rt":null,"stimulus":"Sounds/frog_label.wav","key_press":null,"block":1,"trial_type":"audio-keyboard-response","trial_index":188,"time_elapsed":4054260,"internal_node_id":"0.0-13.0-0.34","match_key":"l","participant_id":"09"},{"rt":null,"stimulus":"<p style=\"font-size: 48px;\">+</p>","key_press":null,"block":1,"trial_type":"html-keyboard-response","trial_index":189,"time_elapsed":4055257,"internal_node_id":"0.0-13.0-1.34","match_key":"l","participant_id":"09"},{"rt":546.0999999195337,"stimulus":"Images/rooster_2.png","key_press":65,"stim_onset":1581556840160,"block":1,"match_type":"non-match","image_category":"rooster","sound_category":"frog","audio_type":"label","phase":"test","trial_type":"image-keyboard-response","trial_index":190,"time_elapsed":4055804,"internal_node_id":"0.0-13.0-2.34","match_key":"l","participant_id":"09","correct":true},{"rt":null,"stimulus":"Sounds/correct.wav","key_press":null,"block":1,"trial_type":"audio-keyboard-response","trial_index":191,"time_elapsed":4057814,"internal_node_id":"0.0-13.0-3.34","match_key":"l","participant_id":"09"},{"rt":null,"stimulus":"Sounds/cat_sound.wav","key_press":null,"block":1,"trial_type":"audio-keyboard-response","trial_index":192,"time_elapsed":4058660,"internal_node_id":"0.0-13.0-0.35","match_key":"l","participant_id":"09"},{"rt":null,"stimulus":"<p style=\"font-size: 48px;\">+</p>","key_press":null,"block":1,"trial_type":"html-keyboard-response","trial_index":193,"time_elapsed":4059657,"internal_node_id":"0.0-13.0-1.35","match_key":"l","participant_id":"09"},{"rt":514.350000070408,"stimulus":"Images/cat_2.png","key_press":76,"stim_onset":1581556844560,"block":1,"match_type":"match","image_category":"cat","sound_category":"cat","audio_type":"sound","phase":"test","trial_type":"image-keyboard-response","trial_index":194,"time_elapsed":4060173,"internal_node_id":"0.0-13.0-2.35","match_key":"l","participant_id":"09","correct":true},{"rt":null,"stimulus":"Sounds/correct.wav","key_press":null,"block":1,"trial_type":"audio-keyboard-response","trial_index":195,"time_elapsed":4062181,"internal_node_id":"0.0-13.0-3.35","match_key":"l","participant_id":"09"},{"rt":null,"stimulus":"Sounds/motorcycle_label.wav","key_press":null,"block":1,"trial_type":"audio-keyboard-response","trial_index":196,"time_elapsed":4063320,"internal_node_id":"0.0-13.0-0.36","match_key":"l","participant_id":"09"},{"rt":null,"stimulus":"<p style=\"font-size: 48px;\">+</p>","key_press":null,"block":1,"trial_type":"html-keyboard-response","trial_index":197,"time_elapsed":4064324,"internal_node_id":"0.0-13.0-1.36","match_key":"l","participant_id":"09"},{"rt":567.3200000310317,"stimulus":"Images/dog_1.png","key_press":65,"stim_onset":1581556849227,"block":1,"match_type":"non-match","image_category":"dog","sound_category":"motorcycle","audio_type":"label","phase":"test","trial_type":"image-keyboard-response","trial_index":198,"time_elapsed":4064892,"internal_node_id":"0.0-13.0-2.36","match_key":"l","participant_id":"09","correct":true},{"rt":null,"stimulus":"Sounds/correct.wav","key_press":null,"block":1,"trial_type":"audio-keyboard-response","trial_index":199,"time_elapsed":4066896,"internal_node_id":"0.0-13.0-3.36","match_key":"l","participant_id":"09"},{"rt":null,"stimulus":"Sounds/whistle_label.wav","key_press":null,"block":1,"trial_type":"audio-keyboard-response","trial_index":200,"time_elapsed":4067580,"internal_node_id":"0.0-13.0-0.37","match_key":"l","participant_id":"09"},{"rt":null,"stimulus":"<p style=\"font-size: 48px;\">+</p>","key_press":null,"block":1,"trial_type":"html-keyboard-response","trial_index":201,"time_elapsed":4068574,"internal_node_id":"0.0-13.0-1.37","match_key":"l","participant_id":"09"},{"rt":509.3049999559298,"stimulus":"Images/whistle_orig.png","key_press":76,"stim_onset":1581556853477,"block":1,"match_type":"match","image_category":"whistle","sound_category":"whistle","audio_type":"label","phase":"test","trial_type":"image-keyboard-response","trial_index":202,"time_elapsed":4069084,"internal_node_id":"0.0-13.0-2.37","match_key":"l","participant_id":"09","correct":true},{"rt":null,"stimulus":"Sounds/correct.wav","key_press":null,"block":1,"trial_type":"audio-keyboard-response","trial_index":203,"time_elapsed":4071094,"internal_node_id":"0.0-13.0-3.37","match_key":"l","participant_id":"09"},{"rt":null,"stimulus":"Sounds/rooster_label.wav","key_press":null,"block":1,"trial_type":"audio-keyboard-response","trial_index":204,"time_elapsed":4071800,"internal_node_id":"0.0-13.0-0.38","match_key":"l","participant_id":"09"},{"rt":null,"stimulus":"<p style=\"font-size: 48px;\">+</p>","key_press":null,"block":1,"trial_type":"html-keyboard-response","trial_index":205,"time_elapsed":4072791,"internal_node_id":"0.0-13.0-1.38","match_key":"l","participant_id":"09"},{"rt":452.44499994441867,"stimulus":"Images/rooster_3.png","key_press":76,"stim_onset":1581556857694,"block":1,"match_type":"match","image_category":"rooster","sound_category":"rooster","audio_type":"label","phase":"test","trial_type":"image-keyboard-response","trial_index":206,"time_elapsed":4073244,"internal_node_id":"0.0-13.0-2.38","match_key":"l","participant_id":"09","correct":true},{"rt":null,"stimulus":"Sounds/correct.wav","key_press":null,"block":1,"trial_type":"audio-keyboard-response","trial_index":207,"time_elapsed":4075261,"internal_node_id":"0.0-13.0-3.38","match_key":"l","participant_id":"09"},{"rt":null,"stimulus":"Sounds/dog_label.wav","key_press":null,"block":1,"trial_type":"audio-keyboard-response","trial_index":208,"time_elapsed":4075920,"internal_node_id":"0.0-13.0-0.39","match_key":"l","participant_id":"09"},{"rt":null,"stimulus":"<p style=\"font-size: 48px;\">+</p>","key_press":null,"block":1,"trial_type":"html-keyboard-response","trial_index":209,"time_elapsed":4076924,"internal_node_id":"0.0-13.0-1.39","match_key":"l","participant_id":"09"},{"rt":574.9150000046939,"stimulus":"Images/dog_cartoon.png","key_press":76,"stim_onset":1581556861827,"block":1,"match_type":"match","image_category":"dog","sound_category":"dog","audio_type":"label","phase":"test","trial_type":"image-keyboard-response","trial_index":210,"time_elapsed":4077500,"internal_node_id":"0.0-13.0-2.39","match_key":"l","participant_id":"09","correct":true},{"rt":null,"stimulus":"Sounds/correct.wav","key_press":null,"block":1,"trial_type":"audio-keyboard-response","trial_index":211,"time_elapsed":4079504,"internal_node_id":"0.0-13.0-3.39","match_key":"l","participant_id":"09"},{"rt":null,"stimulus":"Sounds/dog_label.wav","key_press":null,"block":1,"trial_type":"audio-keyboard-response","trial_index":212,"time_elapsed":4080140,"internal_node_id":"0.0-13.0-0.40","match_key":"l","participant_id":"09"},{"rt":null,"stimulus":"<p style=\"font-size: 48px;\">+</p>","key_press":null,"block":1,"trial_type":"html-keyboard-response","trial_index":213,"time_elapsed":4081141,"internal_node_id":"0.0-13.0-1.40","match_key":"l","participant_id":"09"},{"rt":614.449999993667,"stimulus":"Images/rooster_cartoon.png","key_press":65,"stim_onset":1581556866044,"block":1,"match_type":"non-match","image_category":"rooster","sound_category":"dog","audio_type":"label","phase":"test","trial_type":"image-keyboard-response","trial_index":214,"time_elapsed":4081756,"internal_node_id":"0.0-13.0-2.40","match_key":"l","participant_id":"09","correct":true},{"rt":null,"stimulus":"Sounds/correct.wav","key_press":null,"block":1,"trial_type":"audio-keyboard-response","trial_index":215,"time_elapsed":4083763,"internal_node_id":"0.0-13.0-3.40","match_key":"l","participant_id":"09"},{"rt":null,"stimulus":"Sounds/train_label.wav","key_press":null,"block":1,"trial_type":"audio-keyboard-response","trial_index":216,"time_elapsed":4085040,"internal_node_id":"0.0-13.0-0.41","match_key":"l","participant_id":"09"},{"rt":null,"stimulus":"<p style=\"font-size: 48px;\">+</p>","key_press":null,"block":1,"trial_type":"html-keyboard-response","trial_index":217,"time_elapsed":4086041,"internal_node_id":"0.0-13.0-1.41","match_key":"l","participant_id":"09"},{"rt":1058.7749999249354,"stimulus":"Images/train_orig.png","key_press":76,"stim_onset":1581556870944,"block":1,"match_type":"match","image_category":"train","sound_category":"train","audio_type":"label","phase":"test","trial_type":"image-keyboard-response","trial_index":218,"time_elapsed":4087101,"internal_node_id":"0.0-13.0-2.41","match_key":"l","participant_id":"09","correct":true},{"rt":null,"stimulus":"Sounds/correct.wav","key_press":null,"block":1,"trial_type":"audio-keyboard-response","trial_index":219,"time_elapsed":4089113,"internal_node_id":"0.0-13.0-3.41","match_key":"l","participant_id":"09"},{"rt":null,"stimulus":"Sounds/car_sound.wav","key_press":null,"block":1,"trial_type":"audio-keyboard-response","trial_index":220,"time_elapsed":4090200,"internal_node_id":"0.0-13.0-0.42","match_key":"l","participant_id":"09"},{"rt":null,"stimulus":"<p style=\"font-size: 48px;\">+</p>","key_press":null,"block":1,"trial_type":"html-keyboard-response","trial_index":221,"time_elapsed":4091208,"internal_node_id":"0.0-13.0-1.42","match_key":"l","participant_id":"09"},{"rt":643.2700000004843,"stimulus":"Images/cat_1.png","key_press":65,"stim_onset":1581556876111,"block":1,"match_type":"non-match","image_category":"cat","sound_category":"car","audio_type":"sound","phase":"test","trial_type":"image-keyboard-response","trial_index":222,"time_elapsed":4091852,"internal_node_id":"0.0-13.0-2.42","match_key":"l","participant_id":"09","correct":true},{"rt":null,"stimulus":"Sounds/correct.wav","key_press":null,"block":1,"trial_type":"audio-keyboard-response","trial_index":223,"time_elapsed":4093861,"internal_node_id":"0.0-13.0-3.42","match_key":"l","participant_id":"09"},{"rt":null,"stimulus":"Sounds/frog_label.wav","key_press":null,"block":1,"trial_type":"audio-keyboard-response","trial_index":224,"time_elapsed":4094760,"internal_node_id":"0.0-13.0-0.43","match_key":"l","participant_id":"09"},{"rt":null,"stimulus":"<p style=\"font-size: 48px;\">+</p>","key_press":null,"block":1,"trial_type":"html-keyboard-response","trial_index":225,"time_elapsed":4095758,"internal_node_id":"0.0-13.0-1.43","match_key":"l","participant_id":"09"},{"rt":477.68000001087785,"stimulus":"Images/frog_1.png","key_press":76,"stim_onset":1581556880661,"block":1,"match_type":"match","image_category":"frog","sound_category":"frog","audio_type":"label","phase":"test","trial_type":"image-keyboard-response","trial_index":226,"time_elapsed":4096236,"internal_node_id":"0.0-13.0-2.43","match_key":"l","participant_id":"09","correct":true},{"rt":null,"stimulus":"Sounds/correct.wav","key_press":null,"block":1,"trial_type":"audio-keyboard-response","trial_index":227,"time_elapsed":4098246,"internal_node_id":"0.0-13.0-3.43","match_key":"l","participant_id":"09"},{"rt":null,"stimulus":"Sounds/train_sound.wav","key_press":null,"block":1,"trial_type":"audio-keyboard-response","trial_index":228,"time_elapsed":4099540,"internal_node_id":"0.0-13.0-0.44","match_key":"l","participant_id":"09"},{"rt":null,"stimulus":"<p style=\"font-size: 48px;\">+</p>","key_press":null,"block":1,"trial_type":"html-keyboard-response","trial_index":229,"time_elapsed":4100558,"internal_node_id":"0.0-13.0-1.44","match_key":"l","participant_id":"09"},{"rt":797.7200000314042,"stimulus":"Images/train_3.png","key_press":76,"stim_onset":1581556885461,"block":1,"match_type":"match","image_category":"train","sound_category":"train","audio_type":"sound","phase":"test","trial_type":"image-keyboard-response","trial_index":230,"time_elapsed":4101356,"internal_node_id":"0.0-13.0-2.44","match_key":"l","participant_id":"09","correct":true},{"rt":null,"stimulus":"Sounds/correct.wav","key_press":null,"block":1,"trial_type":"audio-keyboard-response","trial_index":231,"time_elapsed":4103365,"internal_node_id":"0.0-13.0-3.44","match_key":"l","participant_id":"09"},{"rt":null,"stimulus":"Sounds/gun_sound.wav","key_press":null,"block":1,"trial_type":"audio-keyboard-response","trial_index":232,"time_elapsed":4103940,"internal_node_id":"0.0-13.0-0.45","match_key":"l","participant_id":"09"},{"rt":null,"stimulus":"<p style=\"font-size: 48px;\">+</p>","key_press":null,"block":1,"trial_type":"html-keyboard-response","trial_index":233,"time_elapsed":4104958,"internal_node_id":"0.0-13.0-1.45","match_key":"l","participant_id":"09"},{"rt":525.4649999551475,"stimulus":"Images/gun_1.png","key_press":76,"stim_onset":1581556889861,"block":1,"match_type":"match","image_category":"gun","sound_category":"gun","audio_type":"sound","phase":"test","trial_type":"image-keyboard-response","trial_index":234,"time_elapsed":4105484,"internal_node_id":"0.0-13.0-2.45","match_key":"l","participant_id":"09","correct":true},{"rt":null,"stimulus":"Sounds/correct.wav","key_press":null,"block":1,"trial_type":"audio-keyboard-response","trial_index":235,"time_elapsed":4107496,"internal_node_id":"0.0-13.0-3.45","match_key":"l","participant_id":"09"},{"rt":null,"stimulus":"Sounds/whistle_label.wav","key_press":null,"block":1,"trial_type":"audio-keyboard-response","trial_index":236,"time_elapsed":4108202,"internal_node_id":"0.0-13.0-0.46","match_key":"l","participant_id":"09"},{"rt":null,"stimulus":"<p style=\"font-size: 48px;\">+</p>","key_press":null,"block":1,"trial_type":"html-keyboard-response","trial_index":237,"time_elapsed":4109193,"internal_node_id":"0.0-13.0-1.46","match_key":"l","participant_id":"09"},{"rt":596.214999910444,"stimulus":"Images/cat_cartoon.png","key_press":65,"stim_onset":1581556894096,"block":1,"match_type":"non-match","image_category":"cat","sound_category":"whistle","audio_type":"label","phase":"test","trial_type":"image-keyboard-response","trial_index":238,"time_elapsed":4109790,"internal_node_id":"0.0-13.0-2.46","match_key":"l","participant_id":"09","correct":true},{"rt":null,"stimulus":"Sounds/correct.wav","key_press":null,"block":1,"trial_type":"audio-keyboard-response","trial_index":239,"time_elapsed":4111799,"internal_node_id":"0.0-13.0-3.46","match_key":"l","participant_id":"09"},{"rt":null,"stimulus":"Sounds/cat_label.wav","key_press":null,"block":1,"trial_type":"audio-keyboard-response","trial_index":240,"time_elapsed":4112642,"internal_node_id":"0.0-13.0-0.47","match_key":"l","participant_id":"09"},{"rt":null,"stimulus":"<p style=\"font-size: 48px;\">+</p>","key_press":null,"block":1,"trial_type":"html-keyboard-response","trial_index":241,"time_elapsed":4113659,"internal_node_id":"0.0-13.0-1.47","match_key":"l","participant_id":"09"},{"rt":593.8149999128655,"stimulus":"Images/cow_1.png","key_press":65,"stim_onset":1581556898562,"block":1,"match_type":"non-match","image_category":"cow","sound_category":"cat","audio_type":"label","phase":"test","trial_type":"image-keyboard-response","trial_index":242,"time_elapsed":4114254,"internal_node_id":"0.0-13.0-2.47","match_key":"l","participant_id":"09","correct":true},{"rt":null,"stimulus":"Sounds/correct.wav","key_press":null,"block":1,"trial_type":"audio-keyboard-response","trial_index":243,"time_elapsed":4116266,"internal_node_id":"0.0-13.0-3.47","match_key":"l","participant_id":"09"},{"rt":null,"stimulus":"Sounds/whistle_sound.wav","key_press":null,"block":1,"trial_type":"audio-keyboard-response","trial_index":244,"time_elapsed":4116962,"internal_node_id":"0.0-13.0-0.48","match_key":"l","participant_id":"09"},{"rt":null,"stimulus":"<p style=\"font-size: 48px;\">+</p>","key_press":null,"block":1,"trial_type":"html-keyboard-response","trial_index":245,"time_elapsed":4117959,"internal_node_id":"0.0-13.0-1.48","match_key":"l","participant_id":"09"},{"rt":533.2749999361113,"stimulus":"Images/whistle_cartoon.png","key_press":76,"stim_onset":1581556902863,"block":1,"match_type":"match","image_category":"whistle","sound_category":"whistle","audio_type":"sound","phase":"test","trial_type":"image-keyboard-response","trial_index":246,"time_elapsed":4118494,"internal_node_id":"0.0-13.0-2.48","match_key":"l","participant_id":"09","correct":true},{"rt":null,"stimulus":"Sounds/correct.wav","key_press":null,"block":1,"trial_type":"audio-keyboard-response","trial_index":247,"time_elapsed":4120498,"internal_node_id":"0.0-13.0-3.48","match_key":"l","participant_id":"09"},{"rt":null,"stimulus":"Sounds/rooster_sound.wav","key_press":null,"block":1,"trial_type":"audio-keyboard-response","trial_index":248,"time_elapsed":4121202,"internal_node_id":"0.0-13.0-0.49","match_key":"l","participant_id":"09"},{"rt":null,"stimulus":"<p style=\"font-size: 48px;\">+</p>","key_press":null,"block":1,"trial_type":"html-keyboard-response","trial_index":249,"time_elapsed":4122193,"internal_node_id":"0.0-13.0-1.49","match_key":"l","participant_id":"09"},{"rt":507.9600000753999,"stimulus":"Images/motorcycle_1.png","key_press":65,"stim_onset":1581556907096,"block":1,"match_type":"non-match","image_category":"motorcycle","sound_category":"rooster","audio_type":"sound","phase":"test","trial_type":"image-keyboard-response","trial_index":250,"time_elapsed":4122702,"internal_node_id":"0.0-13.0-2.49","match_key":"l","participant_id":"09","correct":true},{"rt":null,"stimulus":"Sounds/correct.wav","key_press":null,"block":1,"trial_type":"audio-keyboard-response","trial_index":251,"time_elapsed":4124707,"internal_node_id":"0.0-13.0-3.49","match_key":"l","participant_id":"09"},{"rt":null,"stimulus":"Sounds/frog_label.wav","key_press":null,"block":1,"trial_type":"audio-keyboard-response","trial_index":252,"time_elapsed":4125602,"internal_node_id":"0.0-13.0-0.50","match_key":"l","participant_id":"09"},{"rt":null,"stimulus":"<p style=\"font-size: 48px;\">+</p>","key_press":null,"block":1,"trial_type":"html-keyboard-response","trial_index":253,"time_elapsed":4126593,"internal_node_id":"0.0-13.0-1.50","match_key":"l","participant_id":"09"},{"rt":476.1350000044331,"stimulus":"Images/frog_3.png","key_press":76,"stim_onset":1581556911496,"block":1,"match_type":"match","image_category":"frog","sound_category":"frog","audio_type":"label","phase":"test","trial_type":"image-keyboard-response","trial_index":254,"time_elapsed":4127070,"internal_node_id":"0.0-13.0-2.50","match_key":"l","participant_id":"09","correct":true},{"rt":null,"stimulus":"Sounds/correct.wav","key_press":null,"block":1,"trial_type":"audio-keyboard-response","trial_index":255,"time_elapsed":4129079,"internal_node_id":"0.0-13.0-3.50","match_key":"l","participant_id":"09"},{"rt":null,"stimulus":"Sounds/dog_sound.wav","key_press":null,"block":1,"trial_type":"audio-keyboard-response","trial_index":256,"time_elapsed":4129782,"internal_node_id":"0.0-13.0-0.51","match_key":"l","participant_id":"09"},{"rt":null,"stimulus":"<p style=\"font-size: 48px;\">+</p>","key_press":null,"block":1,"trial_type":"html-keyboard-response","trial_index":257,"time_elapsed":4130776,"internal_node_id":"0.0-13.0-1.51","match_key":"l","participant_id":"09"},{"rt":948.5199999762699,"stimulus":"Images/dog_2.png","key_press":76,"stim_onset":1581556915679,"block":1,"match_type":"match","image_category":"dog","sound_category":"dog","audio_type":"sound","phase":"test","trial_type":"image-keyboard-response","trial_index":258,"time_elapsed":4131726,"internal_node_id":"0.0-13.0-2.51","match_key":"l","participant_id":"09","correct":true},{"rt":null,"stimulus":"Sounds/correct.wav","key_press":null,"block":1,"trial_type":"audio-keyboard-response","trial_index":259,"time_elapsed":4133731,"internal_node_id":"0.0-13.0-3.51","match_key":"l","participant_id":"09"},{"rt":null,"stimulus":"Sounds/motorcycle_sound.wav","key_press":null,"block":1,"trial_type":"audio-keyboard-response","trial_index":260,"time_elapsed":4134842,"internal_node_id":"0.0-13.0-0.52","match_key":"l","participant_id":"09"},{"rt":null,"stimulus":"<p style=\"font-size: 48px;\">+</p>","key_press":null,"block":1,"trial_type":"html-keyboard-response","trial_index":261,"time_elapsed":4135876,"internal_node_id":"0.0-13.0-1.52","match_key":"l","participant_id":"09"},{"rt":712.5450000166893,"stimulus":"Images/rooster_3.png","key_press":76,"stim_onset":1581556920779,"block":1,"match_type":"non-match","image_category":"rooster","sound_category":"motorcycle","audio_type":"sound","phase":"test","trial_type":"image-keyboard-response","trial_index":262,"time_elapsed":4136590,"internal_node_id":"0.0-13.0-2.52","match_key":"l","participant_id":"09","correct":false},{"rt":null,"stimulus":"Sounds/incorrect.wav","key_press":null,"block":1,"trial_type":"audio-keyboard-response","trial_index":263,"time_elapsed":4138598,"internal_node_id":"0.0-13.0-3.52","match_key":"l","participant_id":"09"},{"rt":null,"stimulus":"Sounds/car_sound.wav","key_press":null,"block":1,"trial_type":"audio-keyboard-response","trial_index":264,"time_elapsed":4139682,"internal_node_id":"0.0-13.0-0.53","match_key":"l","participant_id":"09"},{"rt":null,"stimulus":"<p style=\"font-size: 48px;\">+</p>","key_press":null,"block":1,"trial_type":"html-keyboard-response","trial_index":265,"time_elapsed":4140676,"internal_node_id":"0.0-13.0-1.53","match_key":"l","participant_id":"09"},{"rt":488.6100000003353,"stimulus":"Images/car_2.png","key_press":76,"stim_onset":1581556925580,"block":1,"match_type":"match","image_category":"car","sound_category":"car","audio_type":"sound","phase":"test","trial_type":"image-keyboard-response","trial_index":266,"time_elapsed":4141166,"internal_node_id":"0.0-13.0-2.53","match_key":"l","participant_id":"09","correct":true},{"rt":null,"stimulus":"Sounds/correct.wav","key_press":null,"block":1,"trial_type":"audio-keyboard-response","trial_index":267,"time_elapsed":4143181,"internal_node_id":"0.0-13.0-3.53","match_key":"l","participant_id":"09"},{"rt":null,"stimulus":"Sounds/cow_sound.wav","key_press":null,"block":1,"trial_type":"audio-keyboard-response","trial_index":268,"time_elapsed":4144202,"internal_node_id":"0.0-13.0-0.54","match_key":"l","participant_id":"09"},{"rt":null,"stimulus":"<p style=\"font-size: 48px;\">+</p>","key_press":null,"block":1,"trial_type":"html-keyboard-response","trial_index":269,"time_elapsed":4145193,"internal_node_id":"0.0-13.0-1.54","match_key":"l","participant_id":"09"},{"rt":627.7349999872968,"stimulus":"Images/cat_orig.png","key_press":65,"stim_onset":1581556930096,"block":1,"match_type":"non-match","image_category":"cat","sound_category":"cow","audio_type":"sound","phase":"test","trial_type":"image-keyboard-response","trial_index":270,"time_elapsed":4145822,"internal_node_id":"0.0-13.0-2.54","match_key":"l","participant_id":"09","correct":true},{"rt":null,"stimulus":"Sounds/correct.wav","key_press":null,"block":1,"trial_type":"audio-keyboard-response","trial_index":271,"time_elapsed":4147831,"internal_node_id":"0.0-13.0-3.54","match_key":"l","participant_id":"09"},{"rt":null,"stimulus":"Sounds/train_label.wav","key_press":null,"block":1,"trial_type":"audio-keyboard-response","trial_index":272,"time_elapsed":4149102,"internal_node_id":"0.0-13.0-0.55","match_key":"l","participant_id":"09"},{"rt":null,"stimulus":"<p style=\"font-size: 48px;\">+</p>","key_press":null,"block":1,"trial_type":"html-keyboard-response","trial_index":273,"time_elapsed":4150093,"internal_node_id":"0.0-13.0-1.55","match_key":"l","participant_id":"09"},{"rt":638.8750000623986,"stimulus":"Images/train_1.png","key_press":76,"stim_onset":1581556934996,"block":1,"match_type":"match","image_category":"train","sound_category":"train","audio_type":"label","phase":"test","trial_type":"image-keyboard-response","trial_index":274,"time_elapsed":4150734,"internal_node_id":"0.0-13.0-2.55","match_key":"l","participant_id":"09","correct":true},{"rt":null,"stimulus":"Sounds/correct.wav","key_press":null,"block":1,"trial_type":"audio-keyboard-response","trial_index":275,"time_elapsed":4152747,"internal_node_id":"0.0-13.0-3.55","match_key":"l","participant_id":"09"},{"rt":null,"stimulus":"Sounds/cow_sound.wav","key_press":null,"block":1,"trial_type":"audio-keyboard-response","trial_index":276,"time_elapsed":4153742,"internal_node_id":"0.0-13.0-0.56","match_key":"l","participant_id":"09"},{"rt":null,"stimulus":"<p style=\"font-size: 48px;\">+</p>","key_press":null,"block":1,"trial_type":"html-keyboard-response","trial_index":277,"time_elapsed":4154760,"internal_node_id":"0.0-13.0-1.56","match_key":"l","participant_id":"09"},{"rt":965.4950000112876,"stimulus":"Images/cow_3.png","key_press":76,"stim_onset":1581556939663,"block":1,"match_type":"match","image_category":"cow","sound_category":"cow","audio_type":"sound","phase":"test","trial_type":"image-keyboard-response","trial_index":278,"time_elapsed":4155726,"internal_node_id":"0.0-13.0-2.56","match_key":"l","participant_id":"09","correct":true},{"rt":null,"stimulus":"Sounds/correct.wav","key_press":null,"block":1,"trial_type":"audio-keyboard-response","trial_index":279,"time_elapsed":4157731,"internal_node_id":"0.0-13.0-3.56","match_key":"l","participant_id":"09"},{"rt":null,"stimulus":"Sounds/gun_sound.wav","key_press":null,"block":1,"trial_type":"audio-keyboard-response","trial_index":280,"time_elapsed":4158322,"internal_node_id":"0.0-13.0-0.57","match_key":"l","participant_id":"09"},{"rt":null,"stimulus":"<p style=\"font-size: 48px;\">+</p>","key_press":null,"block":1,"trial_type":"html-keyboard-response","trial_index":281,"time_elapsed":4159327,"internal_node_id":"0.0-13.0-1.57","match_key":"l","participant_id":"09"},{"rt":478.09999994933605,"stimulus":"Images/cow_orig.png","key_press":65,"stim_onset":1581556944230,"block":1,"match_type":"non-match","image_category":"cow","sound_category":"gun","audio_type":"sound","phase":"test","trial_type":"image-keyboard-response","trial_index":282,"time_elapsed":4159806,"internal_node_id":"0.0-13.0-2.57","match_key":"l","participant_id":"09","correct":true},{"rt":null,"stimulus":"Sounds/correct.wav","key_press":null,"block":1,"trial_type":"audio-keyboard-response","trial_index":283,"time_elapsed":4161816,"internal_node_id":"0.0-13.0-3.57","match_key":"l","participant_id":"09"},{"rt":null,"stimulus":"Sounds/gun_sound.wav","key_press":null,"block":1,"trial_type":"audio-keyboard-response","trial_index":284,"time_elapsed":4162362,"internal_node_id":"0.0-13.0-0.58","match_key":"l","participant_id":"09"},{"rt":null,"stimulus":"<p style=\"font-size: 48px;\">+</p>","key_press":null,"block":1,"trial_type":"html-keyboard-response","trial_index":285,"time_elapsed":4163360,"internal_node_id":"0.0-13.0-1.58","match_key":"l","participant_id":"09"},{"rt":508.90499993693084,"stimulus":"Images/gun_cartoon.png","key_press":76,"stim_onset":1581556948263,"block":1,"match_type":"match","image_category":"gun","sound_category":"gun","audio_type":"sound","phase":"test","trial_type":"image-keyboard-response","trial_index":286,"time_elapsed":4163870,"internal_node_id":"0.0-13.0-2.58","match_key":"l","participant_id":"09","correct":true},{"rt":null,"stimulus":"Sounds/correct.wav","key_press":null,"block":1,"trial_type":"audio-keyboard-response","trial_index":287,"time_elapsed":4165882,"internal_node_id":"0.0-13.0-3.58","match_key":"l","participant_id":"09"},{"rt":null,"stimulus":"Sounds/dog_label.wav","key_press":null,"block":1,"trial_type":"audio-keyboard-response","trial_index":288,"time_elapsed":4166542,"internal_node_id":"0.0-13.0-0.59","match_key":"l","participant_id":"09"},{"rt":null,"stimulus":"<p style=\"font-size: 48px;\">+</p>","key_press":null,"block":1,"trial_type":"html-keyboard-response","trial_index":289,"time_elapsed":4167561,"internal_node_id":"0.0-13.0-1.59","match_key":"l","participant_id":"09"},{"rt":677.1549999248236,"stimulus":"Images/car_2.png","key_press":65,"stim_onset":1581556952464,"block":1,"match_type":"non-match","image_category":"car","sound_category":"dog","audio_type":"label","phase":"test","trial_type":"image-keyboard-response","trial_index":290,"time_elapsed":4168239,"internal_node_id":"0.0-13.0-2.59","match_key":"l","participant_id":"09","correct":true},{"rt":null,"stimulus":"Sounds/correct.wav","key_press":null,"block":1,"trial_type":"audio-keyboard-response","trial_index":291,"time_elapsed":4170248,"internal_node_id":"0.0-13.0-3.59","match_key":"l","participant_id":"09"},{"rt":null,"stimulus":"Sounds/cat_sound.wav","key_press":null,"block":1,"trial_type":"audio-keyboard-response","trial_index":292,"time_elapsed":4171083,"internal_node_id":"0.0-13.0-0.60","match_key":"l","participant_id":"09"},{"rt":null,"stimulus":"<p style=\"font-size: 48px;\">+</p>","key_press":null,"block":1,"trial_type":"html-keyboard-response","trial_index":293,"time_elapsed":4172078,"internal_node_id":"0.0-13.0-1.60","match_key":"l","participant_id":"09"},{"rt":464.269999996759,"stimulus":"Images/cat_orig.png","key_press":76,"stim_onset":1581556956981,"block":1,"match_type":"match","image_category":"cat","sound_category":"cat","audio_type":"sound","phase":"test","trial_type":"image-keyboard-response","trial_index":294,"time_elapsed":4172543,"internal_node_id":"0.0-13.0-2.60","match_key":"l","participant_id":"09","correct":true},{"rt":null,"stimulus":"Sounds/correct.wav","key_press":null,"block":1,"trial_type":"audio-keyboard-response","trial_index":295,"time_elapsed":4174549,"internal_node_id":"0.0-13.0-3.60","match_key":"l","participant_id":"09"},{"rt":null,"stimulus":"Sounds/gun_sound.wav","key_press":null,"block":1,"trial_type":"audio-keyboard-response","trial_index":296,"time_elapsed":4175103,"internal_node_id":"0.0-13.0-0.61","match_key":"l","participant_id":"09"},{"rt":null,"stimulus":"<p style=\"font-size: 48px;\">+</p>","key_press":null,"block":1,"trial_type":"html-keyboard-response","trial_index":297,"time_elapsed":4176094,"internal_node_id":"0.0-13.0-1.61","match_key":"l","participant_id":"09"},{"rt":559.415000025183,"stimulus":"Images/car_1.png","key_press":65,"stim_onset":1581556960998,"block":1,"match_type":"non-match","image_category":"car","sound_category":"gun","audio_type":"sound","phase":"test","trial_type":"image-keyboard-response","trial_index":298,"time_elapsed":4176655,"internal_node_id":"0.0-13.0-2.61","match_key":"l","participant_id":"09","correct":true},{"rt":null,"stimulus":"Sounds/correct.wav","key_press":null,"block":1,"trial_type":"audio-keyboard-response","trial_index":299,"time_elapsed":4178664,"internal_node_id":"0.0-13.0-3.61","match_key":"l","participant_id":"09"},{"rt":null,"stimulus":"Sounds/cow_sound.wav","key_press":null,"block":1,"trial_type":"audio-keyboard-response","trial_index":300,"time_elapsed":4179683,"internal_node_id":"0.0-13.0-0.62","match_key":"l","participant_id":"09"},{"rt":null,"stimulus":"<p style=\"font-size: 48px;\">+</p>","key_press":null,"block":1,"trial_type":"html-keyboard-response","trial_index":301,"time_elapsed":4180678,"internal_node_id":"0.0-13.0-1.62","match_key":"l","participant_id":"09"},{"rt":536.2200000090525,"stimulus":"Images/cow_cartoon.png","key_press":76,"stim_onset":1581556965581,"block":1,"match_type":"match","image_category":"cow","sound_category":"cow","audio_type":"sound","phase":"test","trial_type":"image-keyboard-response","trial_index":302,"time_elapsed":4181215,"internal_node_id":"0.0-13.0-2.62","match_key":"l","participant_id":"09","correct":true},{"rt":null,"stimulus":"Sounds/correct.wav","key_press":null,"block":1,"trial_type":"audio-keyboard-response","trial_index":303,"time_elapsed":4183232,"internal_node_id":"0.0-13.0-3.62","match_key":"l","participant_id":"09"},{"rt":null,"stimulus":"Sounds/gun_label.wav","key_press":null,"block":1,"trial_type":"audio-keyboard-response","trial_index":304,"time_elapsed":4183803,"internal_node_id":"0.0-13.0-0.63","match_key":"l","participant_id":"09"},{"rt":null,"stimulus":"<p style=\"font-size: 48px;\">+</p>","key_press":null,"block":1,"trial_type":"html-keyboard-response","trial_index":305,"time_elapsed":4184794,"internal_node_id":"0.0-13.0-1.63","match_key":"l","participant_id":"09"},{"rt":563.4500000160187,"stimulus":"Images/gun_3.png","key_press":76,"stim_onset":1581556969698,"block":1,"match_type":"match","image_category":"gun","sound_category":"gun","audio_type":"label","phase":"test","trial_type":"image-keyboard-response","trial_index":306,"time_elapsed":4185359,"internal_node_id":"0.0-13.0-2.63","match_key":"l","participant_id":"09","correct":true},{"rt":null,"stimulus":"Sounds/correct.wav","key_press":null,"block":1,"trial_type":"audio-keyboard-response","trial_index":307,"time_elapsed":4187369,"internal_node_id":"0.0-13.0-3.63","match_key":"l","participant_id":"09"},{"rt":null,"stimulus":"Sounds/gun_sound.wav","key_press":null,"block":1,"trial_type":"audio-keyboard-response","trial_index":308,"time_elapsed":4187923,"internal_node_id":"0.0-13.0-0.64","match_key":"l","participant_id":"09"},{"rt":null,"stimulus":"<p style=\"font-size: 48px;\">+</p>","key_press":null,"block":1,"trial_type":"html-keyboard-response","trial_index":309,"time_elapsed":4188911,"internal_node_id":"0.0-13.0-1.64","match_key":"l","participant_id":"09"},{"rt":718.6699999729171,"stimulus":"Images/whistle_orig.png","key_press":65,"stim_onset":1581556973815,"block":1,"match_type":"non-match","image_category":"whistle","sound_category":"gun","audio_type":"sound","phase":"test","trial_type":"image-keyboard-response","trial_index":310,"time_elapsed":4189631,"internal_node_id":"0.0-13.0-2.64","match_key":"l","participant_id":"09","correct":true},{"rt":null,"stimulus":"Sounds/correct.wav","key_press":null,"block":1,"trial_type":"audio-keyboard-response","trial_index":311,"time_elapsed":4191649,"internal_node_id":"0.0-13.0-3.64","match_key":"l","participant_id":"09"},{"rt":null,"stimulus":"Sounds/dog_label.wav","key_press":null,"block":1,"trial_type":"audio-keyboard-response","trial_index":312,"time_elapsed":4192303,"internal_node_id":"0.0-13.0-0.65","match_key":"l","participant_id":"09"},{"rt":null,"stimulus":"<p style=\"font-size: 48px;\">+</p>","key_press":null,"block":1,"trial_type":"html-keyboard-response","trial_index":313,"time_elapsed":4193295,"internal_node_id":"0.0-13.0-1.65","match_key":"l","participant_id":"09"},{"rt":447.55000004079193,"stimulus":"Images/dog_3.png","key_press":76,"stim_onset":1581556978198,"block":1,"match_type":"match","image_category":"dog","sound_category":"dog","audio_type":"label","phase":"test","trial_type":"image-keyboard-response","trial_index":314,"time_elapsed":4193743,"internal_node_id":"0.0-13.0-2.65","match_key":"l","participant_id":"09","correct":true},{"rt":null,"stimulus":"Sounds/correct.wav","key_press":null,"block":1,"trial_type":"audio-keyboard-response","trial_index":315,"time_elapsed":4195752,"internal_node_id":"0.0-13.0-3.65","match_key":"l","participant_id":"09"},{"rt":null,"stimulus":"Sounds/train_sound.wav","key_press":null,"block":1,"trial_type":"audio-keyboard-response","trial_index":316,"time_elapsed":4197043,"internal_node_id":"0.0-13.0-0.66","match_key":"l","participant_id":"09"},{"rt":null,"stimulus":"<p style=\"font-size: 48px;\">+</p>","key_press":null,"block":1,"trial_type":"html-keyboard-response","trial_index":317,"time_elapsed":4198061,"internal_node_id":"0.0-13.0-1.66","match_key":"l","participant_id":"09"},{"rt":672.4899999098852,"stimulus":"Images/cat_2.png","key_press":65,"stim_onset":1581556982964,"block":1,"match_type":"non-match","image_category":"cat","sound_category":"train","audio_type":"sound","phase":"test","trial_type":"image-keyboard-response","trial_index":318,"time_elapsed":4198735,"internal_node_id":"0.0-13.0-2.66","match_key":"l","participant_id":"09","correct":true},{"rt":null,"stimulus":"Sounds/correct.wav","key_press":null,"block":1,"trial_type":"audio-keyboard-response","trial_index":319,"time_elapsed":4200748,"internal_node_id":"0.0-13.0-3.66","match_key":"l","participant_id":"09"},{"rt":null,"stimulus":"Sounds/frog_sound.wav","key_press":null,"block":1,"trial_type":"audio-keyboard-response","trial_index":320,"time_elapsed":4201663,"internal_node_id":"0.0-13.0-0.67","match_key":"l","participant_id":"09"},{"rt":null,"stimulus":"<p style=\"font-size: 48px;\">+</p>","key_press":null,"block":1,"trial_type":"html-keyboard-response","trial_index":321,"time_elapsed":4202661,"internal_node_id":"0.0-13.0-1.67","match_key":"l","participant_id":"09"},{"rt":504.54999995417893,"stimulus":"Images/frog_2.png","key_press":76,"stim_onset":1581556987565,"block":1,"match_type":"match","image_category":"frog","sound_category":"frog","audio_type":"sound","phase":"test","trial_type":"image-keyboard-response","trial_index":322,"time_elapsed":4203167,"internal_node_id":"0.0-13.0-2.67","match_key":"l","participant_id":"09","correct":true},{"rt":null,"stimulus":"Sounds/correct.wav","key_press":null,"block":1,"trial_type":"audio-keyboard-response","trial_index":323,"time_elapsed":4205182,"internal_node_id":"0.0-13.0-3.67","match_key":"l","participant_id":"09"},{"rt":null,"stimulus":"Sounds/train_sound.wav","key_press":null,"block":1,"trial_type":"audio-keyboard-response","trial_index":324,"time_elapsed":4206463,"internal_node_id":"0.0-13.0-0.68","match_key":"l","participant_id":"09"},{"rt":null,"stimulus":"<p style=\"font-size: 48px;\">+</p>","key_press":null,"block":1,"trial_type":"html-keyboard-response","trial_index":325,"time_elapsed":4207461,"internal_node_id":"0.0-13.0-1.68","match_key":"l","participant_id":"09"},{"rt":536.6899999789894,"stimulus":"Images/train_cartoon.png","key_press":76,"stim_onset":1581556992365,"block":1,"match_type":"match","image_category":"train","sound_category":"train","audio_type":"sound","phase":"test","trial_type":"image-keyboard-response","trial_index":326,"time_elapsed":4207999,"internal_node_id":"0.0-13.0-2.68","match_key":"l","participant_id":"09","correct":true},{"rt":null,"stimulus":"Sounds/correct.wav","key_press":null,"block":1,"trial_type":"audio-keyboard-response","trial_index":327,"time_elapsed":4210015,"internal_node_id":"0.0-13.0-3.68","match_key":"l","participant_id":"09"},{"rt":null,"stimulus":"Sounds/cow_sound.wav","key_press":null,"block":1,"trial_type":"audio-keyboard-response","trial_index":328,"time_elapsed":4211043,"internal_node_id":"0.0-13.0-0.69","match_key":"l","participant_id":"09"},{"rt":null,"stimulus":"<p style=\"font-size: 48px;\">+</p>","key_press":null,"block":1,"trial_type":"html-keyboard-response","trial_index":329,"time_elapsed":4212045,"internal_node_id":"0.0-13.0-1.69","match_key":"l","participant_id":"09"},{"rt":593.2400000747293,"stimulus":"Images/car_orig.png","key_press":65,"stim_onset":1581556996948,"block":1,"match_type":"non-match","image_category":"car","sound_category":"cow","audio_type":"sound","phase":"test","trial_type":"image-keyboard-response","trial_index":330,"time_elapsed":4212639,"internal_node_id":"0.0-13.0-2.69","match_key":"l","participant_id":"09","correct":true},{"rt":null,"stimulus":"Sounds/correct.wav","key_press":null,"block":1,"trial_type":"audio-keyboard-response","trial_index":331,"time_elapsed":4214650,"internal_node_id":"0.0-13.0-3.69","match_key":"l","participant_id":"09"},{"rt":null,"stimulus":"Sounds/whistle_label.wav","key_press":null,"block":1,"trial_type":"audio-keyboard-response","trial_index":332,"time_elapsed":4215343,"internal_node_id":"0.0-13.0-0.70","match_key":"l","participant_id":"09"},{"rt":null,"stimulus":"<p style=\"font-size: 48px;\">+</p>","key_press":null,"block":1,"trial_type":"html-keyboard-response","trial_index":333,"time_elapsed":4216345,"internal_node_id":"0.0-13.0-1.70","match_key":"l","participant_id":"09"},{"rt":677.1400000434369,"stimulus":"Images/dog_2.png","key_press":65,"stim_onset":1581557001248,"block":1,"match_type":"non-match","image_category":"dog","sound_category":"whistle","audio_type":"label","phase":"test","trial_type":"image-keyboard-response","trial_index":334,"time_elapsed":4217023,"internal_node_id":"0.0-13.0-2.70","match_key":"l","participant_id":"09","correct":true},{"rt":null,"stimulus":"Sounds/correct.wav","key_press":null,"block":1,"trial_type":"audio-keyboard-response","trial_index":335,"time_elapsed":4219033,"internal_node_id":"0.0-13.0-3.70","match_key":"l","participant_id":"09"},{"rt":null,"stimulus":"Sounds/dog_label.wav","key_press":null,"block":1,"trial_type":"audio-keyboard-response","trial_index":336,"time_elapsed":4219683,"internal_node_id":"0.0-13.0-0.71","match_key":"l","participant_id":"09"},{"rt":null,"stimulus":"<p style=\"font-size: 48px;\">+</p>","key_press":null,"block":1,"trial_type":"html-keyboard-response","trial_index":337,"time_elapsed":4220678,"internal_node_id":"0.0-13.0-1.71","match_key":"l","participant_id":"09"},{"rt":535.7749999966472,"stimulus":"Images/train_1.png","key_press":65,"stim_onset":1581557005581,"block":1,"match_type":"non-match","image_category":"train","sound_category":"dog","audio_type":"label","phase":"test","trial_type":"image-keyboard-response","trial_index":338,"time_elapsed":4221215,"internal_node_id":"0.0-13.0-2.71","match_key":"l","participant_id":"09","correct":true},{"rt":null,"stimulus":"Sounds/correct.wav","key_press":null,"block":1,"trial_type":"audio-keyboard-response","trial_index":339,"time_elapsed":4223232,"internal_node_id":"0.0-13.0-3.71","match_key":"l","participant_id":"09"},{"rt":null,"stimulus":"Sounds/gun_label.wav","key_press":null,"block":1,"trial_type":"audio-keyboard-response","trial_index":340,"time_elapsed":4223823,"internal_node_id":"0.0-13.0-0.72","match_key":"l","participant_id":"09"},{"rt":null,"stimulus":"<p style=\"font-size: 48px;\">+</p>","key_press":null,"block":1,"trial_type":"html-keyboard-response","trial_index":341,"time_elapsed":4224812,"internal_node_id":"0.0-13.0-1.72","match_key":"l","participant_id":"09"},{"rt":498.1350000016391,"stimulus":"Images/gun_2.png","key_press":76,"stim_onset":1581557009715,"block":1,"match_type":"match","image_category":"gun","sound_category":"gun","audio_type":"label","phase":"test","trial_type":"image-keyboard-response","trial_index":342,"time_elapsed":4225311,"internal_node_id":"0.0-13.0-2.72","match_key":"l","participant_id":"09","correct":true},{"rt":null,"stimulus":"Sounds/correct.wav","key_press":null,"block":1,"trial_type":"audio-keyboard-response","trial_index":343,"time_elapsed":4227317,"internal_node_id":"0.0-13.0-3.72","match_key":"l","participant_id":"09"},{"rt":null,"stimulus":"Sounds/car_label.wav","key_press":null,"block":1,"trial_type":"audio-keyboard-response","trial_index":344,"time_elapsed":4228404,"internal_node_id":"0.0-13.0-0.73","match_key":"l","participant_id":"09"},{"rt":null,"stimulus":"<p style=\"font-size: 48px;\">+</p>","key_press":null,"block":1,"trial_type":"html-keyboard-response","trial_index":345,"time_elapsed":4229396,"internal_node_id":"0.0-13.0-1.73","match_key":"l","participant_id":"09"},{"rt":490.93500000890344,"stimulus":"Images/car_orig.png","key_press":76,"stim_onset":1581557014299,"block":1,"match_type":"match","image_category":"car","sound_category":"car","audio_type":"label","phase":"test","trial_type":"image-keyboard-response","trial_index":346,"time_elapsed":4229888,"internal_node_id":"0.0-13.0-2.73","match_key":"l","participant_id":"09","correct":true},{"rt":null,"stimulus":"Sounds/correct.wav","key_press":null,"block":1,"trial_type":"audio-keyboard-response","trial_index":347,"time_elapsed":4231899,"internal_node_id":"0.0-13.0-3.73","match_key":"l","participant_id":"09"},{"rt":null,"stimulus":"Sounds/train_label.wav","key_press":null,"block":1,"trial_type":"audio-keyboard-response","trial_index":348,"time_elapsed":4233184,"internal_node_id":"0.0-13.0-0.74","match_key":"l","participant_id":"09"},{"rt":null,"stimulus":"<p style=\"font-size: 48px;\">+</p>","key_press":null,"block":1,"trial_type":"html-keyboard-response","trial_index":349,"time_elapsed":4234179,"internal_node_id":"0.0-13.0-1.74","match_key":"l","participant_id":"09"},{"rt":715.7850000075996,"stimulus":"Images/gun_orig.png","key_press":65,"stim_onset":1581557019082,"block":1,"match_type":"non-match","image_category":"gun","sound_category":"train","audio_type":"label","phase":"test","trial_type":"image-keyboard-response","trial_index":350,"time_elapsed":4234896,"internal_node_id":"0.0-13.0-2.74","match_key":"l","participant_id":"09","correct":true},{"rt":null,"stimulus":"Sounds/correct.wav","key_press":null,"block":1,"trial_type":"audio-keyboard-response","trial_index":351,"time_elapsed":4236902,"internal_node_id":"0.0-13.0-3.74","match_key":"l","participant_id":"09"},{"rt":null,"stimulus":"Sounds/train_sound.wav","key_press":null,"block":1,"trial_type":"audio-keyboard-response","trial_index":352,"time_elapsed":4238204,"internal_node_id":"0.0-13.0-0.75","match_key":"l","participant_id":"09"},{"rt":null,"stimulus":"<p style=\"font-size: 48px;\">+</p>","key_press":null,"block":1,"trial_type":"html-keyboard-response","trial_index":353,"time_elapsed":4239196,"internal_node_id":"0.0-13.0-1.75","match_key":"l","participant_id":"09"},{"rt":642.9749999660999,"stimulus":"Images/dog_orig.png","key_press":65,"stim_onset":1581557024099,"block":1,"match_type":"non-match","image_category":"dog","sound_category":"train","audio_type":"sound","phase":"test","trial_type":"image-keyboard-response","trial_index":354,"time_elapsed":4239840,"internal_node_id":"0.0-13.0-2.75","match_key":"l","participant_id":"09","correct":true},{"rt":null,"stimulus":"Sounds/correct.wav","key_press":null,"block":1,"trial_type":"audio-keyboard-response","trial_index":355,"time_elapsed":4241854,"internal_node_id":"0.0-13.0-3.75","match_key":"l","participant_id":"09"},{"rt":null,"stimulus":"Sounds/frog_sound.wav","key_press":null,"block":1,"trial_type":"audio-keyboard-response","trial_index":356,"time_elapsed":4242744,"internal_node_id":"0.0-13.0-0.76","match_key":"l","participant_id":"09"},{"rt":null,"stimulus":"<p style=\"font-size: 48px;\">+</p>","key_press":null,"block":1,"trial_type":"html-keyboard-response","trial_index":357,"time_elapsed":4243746,"internal_node_id":"0.0-13.0-1.76","match_key":"l","participant_id":"09"},{"rt":620.4999999608845,"stimulus":"Images/train_orig.png","key_press":65,"stim_onset":1581557028649,"block":1,"match_type":"non-match","image_category":"train","sound_category":"frog","audio_type":"sound","phase":"test","trial_type":"image-keyboard-response","trial_index":358,"time_elapsed":4244368,"internal_node_id":"0.0-13.0-2.76","match_key":"l","participant_id":"09","correct":true},{"rt":null,"stimulus":"Sounds/correct.wav","key_press":null,"block":1,"trial_type":"audio-keyboard-response","trial_index":359,"time_elapsed":4246383,"internal_node_id":"0.0-13.0-3.76","match_key":"l","participant_id":"09"},{"rt":null,"stimulus":"Sounds/cat_sound.wav","key_press":null,"block":1,"trial_type":"audio-keyboard-response","trial_index":360,"time_elapsed":4247223,"internal_node_id":"0.0-13.0-0.77","match_key":"l","participant_id":"09"},{"rt":null,"stimulus":"<p style=\"font-size: 48px;\">+</p>","key_press":null,"block":1,"trial_type":"html-keyboard-response","trial_index":361,"time_elapsed":4248213,"internal_node_id":"0.0-13.0-1.77","match_key":"l","participant_id":"09"},{"rt":490.25000003166497,"stimulus":"Images/cat_cartoon.png","key_press":76,"stim_onset":1581557033116,"block":1,"match_type":"match","image_category":"cat","sound_category":"cat","audio_type":"sound","phase":"test","trial_type":"image-keyboard-response","trial_index":362,"time_elapsed":4248704,"internal_node_id":"0.0-13.0-2.77","match_key":"l","participant_id":"09","correct":true},{"rt":null,"stimulus":"Sounds/correct.wav","key_press":null,"block":1,"trial_type":"audio-keyboard-response","trial_index":363,"time_elapsed":4250716,"internal_node_id":"0.0-13.0-3.77","match_key":"l","participant_id":"09"},{"rt":null,"stimulus":"Sounds/whistle_label.wav","key_press":null,"block":1,"trial_type":"audio-keyboard-response","trial_index":364,"time_elapsed":4251424,"internal_node_id":"0.0-13.0-0.78","match_key":"l","participant_id":"09"},{"rt":null,"stimulus":"<p style=\"font-size: 48px;\">+</p>","key_press":null,"block":1,"trial_type":"html-keyboard-response","trial_index":365,"time_elapsed":4252413,"internal_node_id":"0.0-13.0-1.78","match_key":"l","participant_id":"09"},{"rt":946.1149999406189,"stimulus":"Images/whistle_3.png","key_press":76,"stim_onset":1581557037316,"block":1,"mat