[{"rt":5583.669999963604,"responses":"{\"Q0\":\"24\"}","trial_type":"survey-text","trial_index":0,"time_elapsed":5633,"internal_node_id":"0.0-0.0","match_key":"a","participant_id":"24"},{"rt":94637.77000003029,"stimulus":"<p>Use KEYBOARD 2 (match LEFT)</p><p>Press MATCH to continue.</p>","key_press":65,"trial_type":"html-keyboard-response","trial_index":1,"time_elapsed":100163,"internal_node_id":"0.0-1.0","match_key":"a","participant_id":"24"},{"rt":3328040.694999974,"stimulus":"<p>Welcome to the experiment.</p>","key_press":32,"trial_type":"html-keyboard-response","trial_index":2,"time_elapsed":3427539,"internal_node_id":"0.0-2.0","match_key":"a","participant_id":"24"},{"rt":10891.880000010133,"stimulus":"<p>Thank you for agreeing to participate in this study.</p><p>If during any part of the procedure you must stop for any reason, please inform the researcher that you do not wish to continue.</p>","key_press":40,"trial_type":"html-keyboard-response","trial_index":3,"time_elapsed":3438439,"internal_node_id":"0.0-3.0","match_key":"a","participant_id":"24"},{"rt":19206.57499996014,"stimulus":"<p>In this experiment, you will hear various words or sounds and see pictures of various animals and objects.</p><p>Most of the images will be of common everyday objects, such as cars, cats, cows, firearms, frogs, chickens, whistles, trains, motorcycles, and dogs.</p><p>Some of the images will be real-life stills, while others will be cartoons.</p>","key_press":40,"trial_type":"html-keyboard-response","trial_index":4,"time_elapsed":3457647,"internal_node_id":"0.0-4.0","match_key":"a","participant_id":"24"},{"rt":14023.1850000564,"stimulus":"<p>Sometimes, the word/sound will match the picture, for example you'll hear a meowing sound and see a cat.</p><p>Other times, the picture will not match the sound or word.</p><p>Your task is to decide as quickly as possible if the word/sound matches the picture or not. </p>","key_press":40,"trial_type":"html-keyboard-response","trial_index":5,"time_elapsed":3471672,"internal_node_id":"0.0-5.0","match_key":"a","participant_id":"24"},{"rt":12918.474999954924,"stimulus":"<p>For example, if you hear the word \"cat\" or hear a meowing sound, and then see a picture of a cat, you should press the MATCH key.</p><p> If the sound and image do not match, press the NOT-MATCH key to indicate that there is not a match.</p>","key_press":40,"trial_type":"html-keyboard-response","trial_index":6,"time_elapsed":3484591,"internal_node_id":"0.0-6.0","match_key":"a","participant_id":"24"},{"rt":15103.125000023283,"stimulus":"<p>If you make a mistake, you will hear a buzzing sound instead of a more pleasant sound.</p><p> Try to respond as quickly as possible, while making as few errors as possible. If you are making mistakes, you are probably rushing.</p>","key_press":40,"trial_type":"html-keyboard-response","trial_index":7,"time_elapsed":3499696,"internal_node_id":"0.0-7.0","match_key":"a","participant_id":"24"},{"rt":10702.545000007376,"stimulus":"<p>Please try to not move or blink your eyes during the presentation of the images. You can move and blink between images.</p><p>During the experiment there will be some breaks during which you can rest your eyes.</p>","key_press":40,"trial_type":"html-keyboard-response","trial_index":8,"time_elapsed":3510399,"internal_node_id":"0.0-8.0","match_key":"a","participant_id":"24"},{"rt":21934.815000044182,"stimulus":"<p>We will begin with 10 practice trials. Please let the experimenter know if you have any questions.</p>","key_press":32,"trial_type":"html-keyboard-response","trial_index":9,"time_elapsed":3532335,"internal_node_id":"0.0-9.0","match_key":"a","participant_id":"24"},{"rt":null,"stimulus":"Sounds/train_label.wav","key_press":null,"block":0,"trial_type":"audio-keyboard-response","trial_index":10,"time_elapsed":3533697,"internal_node_id":"0.0-10.0-0.0","match_key":"a","participant_id":"24"},{"rt":null,"stimulus":"<p style=\"font-size: 48px;\">+</p>","key_press":null,"block":0,"trial_type":"html-keyboard-response","trial_index":11,"time_elapsed":3534715,"internal_node_id":"0.0-10.0-1.0","match_key":"a","participant_id":"24"},{"rt":985.6249999720603,"stimulus":"Images/train_1.png","key_press":65,"stim_onset":1582495199983,"block":0,"match_type":"match","image_category":"train","sound_category":"train","audio_type":"label","phase":"practice","trial_type":"image-keyboard-response","trial_index":12,"time_elapsed":3535703,"internal_node_id":"0.0-10.0-2.0","match_key":"a","participant_id":"24","correct":true},{"rt":null,"stimulus":"Sounds/correct.wav","key_press":null,"block":0,"trial_type":"audio-keyboard-response","trial_index":13,"time_elapsed":3537720,"internal_node_id":"0.0-10.0-3.0","match_key":"a","participant_id":"24"},{"rt":null,"stimulus":"Sounds/train_sound.wav","key_press":null,"block":0,"trial_type":"audio-keyboard-response","trial_index":14,"time_elapsed":3539016,"internal_node_id":"0.0-10.0-0.1","match_key":"a","participant_id":"24"},{"rt":null,"stimulus":"<p style=\"font-size: 48px;\">+</p>","key_press":null,"block":0,"trial_type":"html-keyboard-response","trial_index":15,"time_elapsed":3540015,"internal_node_id":"0.0-10.0-1.1","match_key":"a","participant_id":"24"},{"rt":670.1149999862537,"stimulus":"Images/train_3.png","key_press":65,"stim_onset":1582495205283,"block":0,"match_type":"match","image_category":"train","sound_category":"train","audio_type":"sound","phase":"practice","trial_type":"image-keyboard-response","trial_index":16,"time_elapsed":3540686,"internal_node_id":"0.0-10.0-2.1","match_key":"a","participant_id":"24","correct":true},{"rt":null,"stimulus":"Sounds/correct.wav","key_press":null,"block":0,"trial_type":"audio-keyboard-response","trial_index":17,"time_elapsed":3542696,"internal_node_id":"0.0-10.0-3.1","match_key":"a","participant_id":"24"},{"rt":null,"stimulus":"Sounds/dog_sound.wav","key_press":null,"block":0,"trial_type":"audio-keyboard-response","trial_index":18,"time_elapsed":3543396,"internal_node_id":"0.0-10.0-0.2","match_key":"a","participant_id":"24"},{"rt":null,"stimulus":"<p style=\"font-size: 48px;\">+</p>","key_press":null,"block":0,"trial_type":"html-keyboard-response","trial_index":19,"time_elapsed":3544398,"internal_node_id":"0.0-10.0-1.2","match_key":"a","participant_id":"24"},{"rt":687.0300000300631,"stimulus":"Images/whistle_1.png","key_press":76,"stim_onset":1582495209666,"block":0,"match_type":"non-match","image_category":"whistle","sound_category":"dog","audio_type":"sound","phase":"practice","trial_type":"image-keyboard-response","trial_index":20,"time_elapsed":3545087,"internal_node_id":"0.0-10.0-2.2","match_key":"a","participant_id":"24","correct":true},{"rt":null,"stimulus":"Sounds/correct.wav","key_press":null,"block":0,"trial_type":"audio-keyboard-response","trial_index":21,"time_elapsed":3547095,"internal_node_id":"0.0-10.0-3.2","match_key":"a","participant_id":"24"},{"rt":null,"stimulus":"Sounds/frog_label.wav","key_press":null,"block":0,"trial_type":"audio-keyboard-response","trial_index":22,"time_elapsed":3547996,"internal_node_id":"0.0-10.0-0.3","match_key":"a","participant_id":"24"},{"rt":null,"stimulus":"<p style=\"font-size: 48px;\">+</p>","key_press":null,"block":0,"trial_type":"html-keyboard-response","trial_index":23,"time_elapsed":3548998,"internal_node_id":"0.0-10.0-1.3","match_key":"a","participant_id":"24"},{"rt":654.8450000118464,"stimulus":"Images/cat_orig.png","key_press":76,"stim_onset":1582495214267,"block":0,"match_type":"non-match","image_category":"cat","sound_category":"frog","audio_type":"label","phase":"practice","trial_type":"image-keyboard-response","trial_index":24,"time_elapsed":3549654,"internal_node_id":"0.0-10.0-2.3","match_key":"a","participant_id":"24","correct":true},{"rt":null,"stimulus":"Sounds/correct.wav","key_press":null,"block":0,"trial_type":"audio-keyboard-response","trial_index":25,"time_elapsed":3551665,"internal_node_id":"0.0-10.0-3.3","match_key":"a","participant_id":"24"},{"rt":null,"stimulus":"Sounds/cow_label.wav","key_press":null,"block":0,"trial_type":"audio-keyboard-response","trial_index":26,"time_elapsed":3552676,"internal_node_id":"0.0-10.0-0.4","match_key":"a","participant_id":"24"},{"rt":null,"stimulus":"<p style=\"font-size: 48px;\">+</p>","key_press":null,"block":0,"trial_type":"html-keyboard-response","trial_index":27,"time_elapsed":3553682,"internal_node_id":"0.0-10.0-1.4","match_key":"a","participant_id":"24"},{"rt":603.5449999617413,"stimulus":"Images/cat_cartoon.png","key_press":76,"stim_onset":1582495218950,"block":0,"match_type":"non-match","image_category":"cat","sound_category":"cow","audio_type":"label","phase":"practice","trial_type":"image-keyboard-response","trial_index":28,"time_elapsed":3554286,"internal_node_id":"0.0-10.0-2.4","match_key":"a","participant_id":"24","correct":true},{"rt":null,"stimulus":"Sounds/correct.wav","key_press":null,"block":0,"trial_type":"audio-keyboard-response","trial_index":29,"time_elapsed":3556303,"internal_node_id":"0.0-10.0-3.4","match_key":"a","participant_id":"24"},{"rt":null,"stimulus":"Sounds/car_sound.wav","key_press":null,"block":0,"trial_type":"audio-keyboard-response","trial_index":30,"time_elapsed":3557376,"internal_node_id":"0.0-10.0-0.5","match_key":"a","participant_id":"24"},{"rt":null,"stimulus":"<p style=\"font-size: 48px;\">+</p>","key_press":null,"block":0,"trial_type":"html-keyboard-response","trial_index":31,"time_elapsed":3558382,"internal_node_id":"0.0-10.0-1.5","match_key":"a","participant_id":"24"},{"rt":791.3450000341982,"stimulus":"Images/car_3.png","key_press":65,"stim_onset":1582495223650,"block":0,"match_type":"match","image_category":"car","sound_category":"car","audio_type":"sound","phase":"practice","trial_type":"image-keyboard-response","trial_index":32,"time_elapsed":3559174,"internal_node_id":"0.0-10.0-2.5","match_key":"a","participant_id":"24","correct":true},{"rt":null,"stimulus":"Sounds/correct.wav","key_press":null,"block":0,"trial_type":"audio-keyboard-response","trial_index":33,"time_elapsed":3561187,"internal_node_id":"0.0-10.0-3.5","match_key":"a","participant_id":"24"},{"rt":null,"stimulus":"Sounds/car_sound.wav","key_press":null,"block":0,"trial_type":"audio-keyboard-response","trial_index":34,"time_elapsed":3562236,"internal_node_id":"0.0-10.0-0.6","match_key":"a","participant_id":"24"},{"rt":null,"stimulus":"<p style=\"font-size: 48px;\">+</p>","key_press":null,"block":0,"trial_type":"html-keyboard-response","trial_index":35,"time_elapsed":3563232,"internal_node_id":"0.0-10.0-1.6","match_key":"a","participant_id":"24"},{"rt":749.6549999341369,"stimulus":"Images/car_cartoon.png","key_press":65,"stim_onset":1582495228500,"block":0,"match_type":"match","image_category":"car","sound_category":"car","audio_type":"sound","phase":"practice","trial_type":"image-keyboard-response","trial_index":36,"time_elapsed":3563982,"internal_node_id":"0.0-10.0-2.6","match_key":"a","participant_id":"24","correct":true},{"rt":null,"stimulus":"Sounds/correct.wav","key_press":null,"block":0,"trial_type":"audio-keyboard-response","trial_index":37,"time_elapsed":3565993,"internal_node_id":"0.0-10.0-3.6","match_key":"a","participant_id":"24"},{"rt":null,"stimulus":"Sounds/whistle_label.wav","key_press":null,"block":0,"trial_type":"audio-keyboard-response","trial_index":38,"time_elapsed":3566696,"internal_node_id":"0.0-10.0-0.7","match_key":"a","participant_id":"24"},{"rt":null,"stimulus":"<p style=\"font-size: 48px;\">+</p>","key_press":null,"block":0,"trial_type":"html-keyboard-response","trial_index":39,"time_elapsed":3567698,"internal_node_id":"0.0-10.0-1.7","match_key":"a","participant_id":"24"},{"rt":666.9400000246242,"stimulus":"Images/gun_3.png","key_press":76,"stim_onset":1582495232967,"block":0,"match_type":"non-match","image_category":"gun","sound_category":"whistle","audio_type":"label","phase":"practice","trial_type":"image-keyboard-response","trial_index":40,"time_elapsed":3568366,"internal_node_id":"0.0-10.0-2.7","match_key":"a","participant_id":"24","correct":true},{"rt":null,"stimulus":"Sounds/correct.wav","key_press":null,"block":0,"trial_type":"audio-keyboard-response","trial_index":41,"time_elapsed":3570371,"internal_node_id":"0.0-10.0-3.7","match_key":"a","participant_id":"24"},{"rt":null,"stimulus":"Sounds/whistle_label.wav","key_press":null,"block":0,"trial_type":"audio-keyboard-response","trial_index":42,"time_elapsed":3571036,"internal_node_id":"0.0-10.0-0.8","match_key":"a","participant_id":"24"},{"rt":null,"stimulus":"<p style=\"font-size: 48px;\">+</p>","key_press":null,"block":0,"trial_type":"html-keyboard-response","trial_index":43,"time_elapsed":3572032,"internal_node_id":"0.0-10.0-1.8","match_key":"a","participant_id":"24"},{"rt":557.4999999953434,"stimulus":"Images/motorcycle_3.png","key_press":76,"stim_onset":1582495237300,"block":0,"match_type":"non-match","image_category":"motorcycle","sound_category":"whistle","audio_type":"label","phase":"practice","trial_type":"image-keyboard-response","trial_index":44,"time_elapsed":3572591,"internal_node_id":"0.0-10.0-2.8","match_key":"a","participant_id":"24","correct":true},{"rt":null,"stimulus":"Sounds/correct.wav","key_press":null,"block":0,"trial_type":"audio-keyboard-response","trial_index":45,"time_elapsed":3574593,"internal_node_id":"0.0-10.0-3.8","match_key":"a","participant_id":"24"},{"rt":null,"stimulus":"Sounds/car_label.wav","key_press":null,"block":0,"trial_type":"audio-keyboard-response","trial_index":46,"time_elapsed":3575676,"internal_node_id":"0.0-10.0-0.9","match_key":"a","participant_id":"24"},{"rt":null,"stimulus":"<p style=\"font-size: 48px;\">+</p>","key_press":null,"block":0,"trial_type":"html-keyboard-response","trial_index":47,"time_elapsed":3576682,"internal_node_id":"0.0-10.0-1.9","match_key":"a","participant_id":"24"},{"rt":651.0600000619888,"stimulus":"Images/motorcycle_2.png","key_press":76,"stim_onset":1582495241950,"block":0,"match_type":"non-match","image_category":"motorcycle","sound_category":"car","audio_type":"label","phase":"practice","trial_type":"image-keyboard-response","trial_index":48,"time_elapsed":3577334,"internal_node_id":"0.0-10.0-2.9","match_key":"a","participant_id":"24","correct":true},{"rt":null,"stimulus":"Sounds/correct.wav","key_press":null,"block":0,"trial_type":"audio-keyboard-response","trial_index":49,"time_elapsed":3579347,"internal_node_id":"0.0-10.0-3.9","match_key":"a","participant_id":"24"},{"rt":42939.160000067204,"stimulus":"<p>The rest of the experiment is divided into five blocks with 100 trials in each block. It will take about 45 minutes to complete.</p><p>The experimenter will be in the outer room and you can communicate with them through the monitor if you have any questions or wish to stop the experiment.</p>","key_press":32,"trial_type":"html-keyboard-response","trial_index":50,"time_elapsed":3622287,"internal_node_id":"0.0-11.0","match_key":"a","participant_id":"24"},{"rt":12734.464999986812,"stimulus":"<p>Remember, please try not to move or blink your eyes during the presentation of the images. </p><p>At the end of the experiment, we will show you your scores on the task so you can see how you did.</p><p>The experiment will start on the next screen.</p>","key_press":32,"trial_type":"html-keyboard-response","trial_index":51,"time_elapsed":3635023,"internal_node_id":"0.0-12.0","match_key":"a","participant_id":"24"},{"rt":null,"stimulus":"Sounds/cat_sound.wav","key_press":null,"block":1,"trial_type":"audio-keyboard-response","trial_index":52,"time_elapsed":3637892,"internal_node_id":"0.0-13.0-0.0","match_key":"a","participant_id":"24"},{"rt":null,"stimulus":"<p style=\"font-size: 48px;\">+</p>","key_press":null,"block":1,"trial_type":"html-keyboard-response","trial_index":53,"time_elapsed":3638883,"internal_node_id":"0.0-13.0-1.0","match_key":"a","participant_id":"24"},{"rt":594.3849999457598,"stimulus":"Images/cat_1.png","key_press":65,"stim_onset":1582495304151,"block":1,"match_type":"match","image_category":"cat","sound_category":"cat","audio_type":"sound","phase":"test","trial_type":"image-keyboard-response","trial_index":54,"time_elapsed":3639478,"internal_node_id":"0.0-13.0-2.0","match_key":"a","participant_id":"24","correct":true},{"rt":null,"stimulus":"Sounds/correct.wav","key_press":null,"block":1,"trial_type":"audio-keyboard-response","trial_index":55,"time_elapsed":3641491,"internal_node_id":"0.0-13.0-3.0","match_key":"a","participant_id":"24"},{"rt":null,"stimulus":"Sounds/whistle_sound.wav","key_press":null,"block":1,"trial_type":"audio-keyboard-response","trial_index":56,"time_elapsed":3642194,"internal_node_id":"0.0-13.0-0.1","match_key":"a","participant_id":"24"},{"rt":null,"stimulus":"<p style=\"font-size: 48px;\">+</p>","key_press":null,"block":1,"trial_type":"html-keyboard-response","trial_index":57,"time_elapsed":3643183,"internal_node_id":"0.0-13.0-1.1","match_key":"a","participant_id":"24"},{"rt":534.709999919869,"stimulus":"Images/train_orig.png","key_press":76,"stim_onset":1582495308451,"block":1,"match_type":"non-match","image_category":"train","sound_category":"whistle","audio_type":"sound","phase":"test","trial_type":"image-keyboard-response","trial_index":58,"time_elapsed":3643718,"internal_node_id":"0.0-13.0-2.1","match_key":"a","participant_id":"24","correct":true},{"rt":null,"stimulus":"Sounds/correct.wav","key_press":null,"block":1,"trial_type":"audio-keyboard-response","trial_index":59,"time_elapsed":3645726,"internal_node_id":"0.0-13.0-3.1","match_key":"a","participant_id":"24"},{"rt":null,"stimulus":"Sounds/gun_sound.wav","key_press":null,"block":1,"trial_type":"audio-keyboard-response","trial_index":60,"time_elapsed":3646313,"internal_node_id":"0.0-13.0-0.2","match_key":"a","participant_id":"24"},{"rt":null,"stimulus":"<p style=\"font-size: 48px;\">+</p>","key_press":null,"block":1,"trial_type":"html-keyboard-response","trial_index":61,"time_elapsed":3647316,"internal_node_id":"0.0-13.0-1.2","match_key":"a","participant_id":"24"},{"rt":577.5000000139698,"stimulus":"Images/cow_1.png","key_press":76,"stim_onset":1582495312584,"block":1,"match_type":"non-match","image_category":"cow","sound_category":"gun","audio_type":"sound","phase":"test","trial_type":"image-keyboard-response","trial_index":62,"time_elapsed":3647894,"internal_node_id":"0.0-13.0-2.2","match_key":"a","participant_id":"24","correct":true},{"rt":null,"stimulus":"Sounds/correct.wav","key_press":null,"block":1,"trial_type":"audio-keyboard-response","trial_index":63,"time_elapsed":3649904,"internal_node_id":"0.0-13.0-3.2","match_key":"a","participant_id":"24"},{"rt":null,"stimulus":"Sounds/frog_sound.wav","key_press":null,"block":1,"trial_type":"audio-keyboard-response","trial_index":64,"time_elapsed":3650812,"internal_node_id":"0.0-13.0-0.3","match_key":"a","participant_id":"24"},{"rt":null,"stimulus":"<p style=\"font-size: 48px;\">+</p>","key_press":null,"block":1,"trial_type":"html-keyboard-response","trial_index":65,"time_elapsed":3651816,"internal_node_id":"0.0-13.0-1.3","match_key":"a","participant_id":"24"},{"rt":565.2049999916926,"stimulus":"Images/motorcycle_orig.png","key_press":76,"stim_onset":1582495317084,"block":1,"match_type":"non-match","image_category":"motorcycle","sound_category":"frog","audio_type":"sound","phase":"test","trial_type":"image-keyboard-response","trial_index":66,"time_elapsed":3652382,"internal_node_id":"0.0-13.0-2.3","match_key":"a","participant_id":"24","correct":true},{"rt":null,"stimulus":"Sounds/correct.wav","key_press":null,"block":1,"trial_type":"audio-keyboard-response","trial_index":67,"time_elapsed":3654389,"internal_node_id":"0.0-13.0-3.3","match_key":"a","participant_id":"24"},{"rt":null,"stimulus":"Sounds/cat_sound.wav","key_press":null,"block":1,"trial_type":"audio-keyboard-response","trial_index":68,"time_elapsed":3655192,"internal_node_id":"0.0-13.0-0.4","match_key":"a","participant_id":"24"},{"rt":null,"stimulus":"<p style=\"font-size: 48px;\">+</p>","key_press":null,"block":1,"trial_type":"html-keyboard-response","trial_index":69,"time_elapsed":3656199,"internal_node_id":"0.0-13.0-1.4","match_key":"a","participant_id":"24"},{"rt":646.0050001041964,"stimulus":"Images/cow_3.png","key_press":76,"stim_onset":1582495321467,"block":1,"match_type":"non-match","image_category":"cow","sound_category":"cat","audio_type":"sound","phase":"test","trial_type":"image-keyboard-response","trial_index":70,"time_elapsed":3656846,"internal_node_id":"0.0-13.0-2.4","match_key":"a","participant_id":"24","correct":true},{"rt":null,"stimulus":"Sounds/correct.wav","key_press":null,"block":1,"trial_type":"audio-keyboard-response","trial_index":71,"time_elapsed":3658850,"internal_node_id":"0.0-13.0-3.4","match_key":"a","participant_id":"24"},{"rt":null,"stimulus":"Sounds/motorcycle_sound.wav","key_press":null,"block":1,"trial_type":"audio-keyboard-response","trial_index":72,"time_elapsed":3659972,"internal_node_id":"0.0-13.0-0.5","match_key":"a","participant_id":"24"},{"rt":null,"stimulus":"<p style=\"font-size: 48px;\">+</p>","key_press":null,"block":1,"trial_type":"html-keyboard-response","trial_index":73,"time_elapsed":3660966,"internal_node_id":"0.0-13.0-1.5","match_key":"a","participant_id":"24"},{"rt":631.3649999210611,"stimulus":"Images/cat_3.png","key_press":76,"stim_onset":1582495326234,"block":1,"match_type":"non-match","image_category":"cat","sound_category":"motorcycle","audio_type":"sound","phase":"test","trial_type":"image-keyboard-response","trial_index":74,"time_elapsed":3661598,"internal_node_id":"0.0-13.0-2.5","match_key":"a","participant_id":"24","correct":true},{"rt":null,"stimulus":"Sounds/correct.wav","key_press":null,"block":1,"trial_type":"audio-keyboard-response","trial_index":75,"time_elapsed":3663602,"internal_node_id":"0.0-13.0-3.5","match_key":"a","participant_id":"24"},{"rt":null,"stimulus":"Sounds/whistle_label.wav","key_press":null,"block":1,"trial_type":"audio-keyboard-response","trial_index":76,"time_elapsed":3664292,"internal_node_id":"0.0-13.0-0.6","match_key":"a","participant_id":"24"},{"rt":null,"stimulus":"<p style=\"font-size: 48px;\">+</p>","key_press":null,"block":1,"trial_type":"html-keyboard-response","trial_index":77,"time_elapsed":3665283,"internal_node_id":"0.0-13.0-1.6","match_key":"a","participant_id":"24"},{"rt":602.2249999223277,"stimulus":"Images/whistle_2.png","key_press":65,"stim_onset":1582495330551,"block":1,"match_type":"match","image_category":"whistle","sound_category":"whistle","audio_type":"label","phase":"test","trial_type":"image-keyboard-response","trial_index":78,"time_elapsed":3665886,"internal_node_id":"0.0-13.0-2.6","match_key":"a","participant_id":"24","correct":true},{"rt":null,"stimulus":"Sounds/correct.wav","key_press":null,"block":1,"trial_type":"audio-keyboard-response","trial_index":79,"time_elapsed":3667902,"internal_node_id":"0.0-13.0-3.6","match_key":"a","participant_id":"24"},{"rt":null,"stimulus":"Sounds/train_sound.wav","key_press":null,"block":1,"trial_type":"audio-keyboard-response","trial_index":80,"time_elapsed":3669192,"internal_node_id":"0.0-13.0-0.7","match_key":"a","participant_id":"24"},{"rt":null,"stimulus":"<p style=\"font-size: 48px;\">+</p>","key_press":null,"block":1,"trial_type":"html-keyboard-response","trial_index":81,"time_elapsed":3670183,"internal_node_id":"0.0-13.0-1.7","match_key":"a","participant_id":"24"},{"rt":502.3700000019744,"stimulus":"Images/rooster_1.png","key_press":76,"stim_onset":1582495335451,"block":1,"match_type":"non-match","image_category":"rooster","sound_category":"train","audio_type":"sound","phase":"test","trial_type":"image-keyboard-response","trial_index":82,"time_elapsed":3670686,"internal_node_id":"0.0-13.0-2.7","match_key":"a","participant_id":"24","correct":true},{"rt":null,"stimulus":"Sounds/correct.wav","key_press":null,"block":1,"trial_type":"audio-keyboard-response","trial_index":83,"time_elapsed":3672694,"internal_node_id":"0.0-13.0-3.7","match_key":"a","participant_id":"24"},{"rt":null,"stimulus":"Sounds/frog_sound.wav","key_press":null,"block":1,"trial_type":"audio-keyboard-response","trial_index":84,"time_elapsed":3673612,"internal_node_id":"0.0-13.0-0.8","match_key":"a","participant_id":"24"},{"rt":null,"stimulus":"<p style=\"font-size: 48px;\">+</p>","key_press":null,"block":1,"trial_type":"html-keyboard-response","trial_index":85,"time_elapsed":3674616,"internal_node_id":"0.0-13.0-1.8","match_key":"a","participant_id":"24"},{"rt":477.2400000365451,"stimulus":"Images/frog_cartoon.png","key_press":65,"stim_onset":1582495339884,"block":1,"match_type":"match","image_category":"frog","sound_category":"frog","audio_type":"sound","phase":"test","trial_type":"image-keyboard-response","trial_index":86,"time_elapsed":3675094,"internal_node_id":"0.0-13.0-2.8","match_key":"a","participant_id":"24","correct":true},{"rt":null,"stimulus":"Sounds/correct.wav","key_press":null,"block":1,"trial_type":"audio-keyboard-response","trial_index":87,"time_elapsed":3677097,"internal_node_id":"0.0-13.0-3.8","match_key":"a","participant_id":"24"},{"rt":null,"stimulus":"Sounds/dog_sound.wav","key_press":null,"block":1,"trial_type":"audio-keyboard-response","trial_index":88,"time_elapsed":3677812,"internal_node_id":"0.0-13.0-0.9","match_key":"a","participant_id":"24"},{"rt":null,"stimulus":"<p style=\"font-size: 48px;\">+</p>","key_press":null,"block":1,"trial_type":"html-keyboard-response","trial_index":89,"time_elapsed":3678816,"internal_node_id":"0.0-13.0-1.9","match_key":"a","participant_id":"24"},{"rt":524.6449999976903,"stimulus":"Images/motorcycle_3.png","key_press":65,"stim_onset":1582495344084,"block":1,"match_type":"non-match","image_category":"motorcycle","sound_category":"dog","audio_type":"sound","phase":"test","trial_type":"image-keyboard-response","trial_index":90,"time_elapsed":3679342,"internal_node_id":"0.0-13.0-2.9","match_key":"a","participant_id":"24","correct":false},{"rt":null,"stimulus":"Sounds/incorrect.wav","key_press":null,"block":1,"trial_type":"audio-keyboard-response","trial_index":91,"time_elapsed":3681358,"internal_node_id":"0.0-13.0-3.9","match_key":"a","participant_id":"24"},{"rt":null,"stimulus":"Sounds/motorcycle_label.wav","key_press":null,"block":1,"trial_type":"audio-keyboard-response","trial_index":92,"time_elapsed":3682472,"internal_node_id":"0.0-13.0-0.10","match_key":"a","participant_id":"24"},{"rt":null,"stimulus":"<p style=\"font-size: 48px;\">+</p>","key_press":null,"block":1,"trial_type":"html-keyboard-response","trial_index":93,"time_elapsed":3683466,"internal_node_id":"0.0-13.0-1.10","match_key":"a","participant_id":"24"},{"rt":570.8350000204518,"stimulus":"Images/whistle_2.png","key_press":76,"stim_onset":1582495348734,"block":1,"match_type":"non-match","image_category":"whistle","sound_category":"motorcycle","audio_type":"label","phase":"test","trial_type":"image-keyboard-response","trial_index":94,"time_elapsed":3684038,"internal_node_id":"0.0-13.0-2.10","match_key":"a","participant_id":"24","correct":true},{"rt":null,"stimulus":"Sounds/correct.wav","key_press":null,"block":1,"trial_type":"audio-keyboard-response","trial_index":95,"time_elapsed":3686055,"internal_node_id":"0.0-13.0-3.10","match_key":"a","participant_id":"24"},{"rt":null,"stimulus":"Sounds/dog_sound.wav","key_press":null,"block":1,"trial_type":"audio-keyboard-response","trial_index":96,"time_elapsed":3686752,"internal_node_id":"0.0-13.0-0.11","match_key":"a","participant_id":"24"},{"rt":null,"stimulus":"<p style=\"font-size: 48px;\">+</p>","key_press":null,"block":1,"trial_type":"html-keyboard-response","trial_index":97,"time_elapsed":3687749,"internal_node_id":"0.0-13.0-1.11","match_key":"a","participant_id":"24"},{"rt":623.5249999444932,"stimulus":"Images/gun_2.png","key_press":76,"stim_onset":1582495353017,"block":1,"match_type":"non-match","image_category":"gun","sound_category":"dog","audio_type":"sound","phase":"test","trial_type":"image-keyboard-response","trial_index":98,"time_elapsed":3688374,"internal_node_id":"0.0-13.0-2.11","match_key":"a","participant_id":"24","correct":true},{"rt":null,"stimulus":"Sounds/correct.wav","key_press":null,"block":1,"trial_type":"audio-keyboard-response","trial_index":99,"time_elapsed":3690384,"internal_node_id":"0.0-13.0-3.11","match_key":"a","participant_id":"24"},{"rt":null,"stimulus":"Sounds/rooster_sound.wav","key_press":null,"block":1,"trial_type":"audio-keyboard-response","trial_index":100,"time_elapsed":3691092,"internal_node_id":"0.0-13.0-0.12","match_key":"a","participant_id":"24"},{"rt":null,"stimulus":"<p style=\"font-size: 48px;\">+</p>","key_press":null,"block":1,"trial_type":"html-keyboard-response","trial_index":101,"time_elapsed":3692083,"internal_node_id":"0.0-13.0-1.12","match_key":"a","participant_id":"24"},{"rt":650.2199999522418,"stimulus":"Images/rooster_orig.png","key_press":65,"stim_onset":1582495357351,"block":1,"match_type":"match","image_category":"rooster","sound_category":"rooster","audio_type":"sound","phase":"test","trial_type":"image-keyboard-response","trial_index":102,"time_elapsed":3692734,"internal_node_id":"0.0-13.0-2.12","match_key":"a","participant_id":"24","correct":true},{"rt":null,"stimulus":"Sounds/correct.wav","key_press":null,"block":1,"trial_type":"audio-keyboard-response","trial_index":103,"time_elapsed":3694750,"internal_node_id":"0.0-13.0-3.12","match_key":"a","participant_id":"24"},{"rt":null,"stimulus":"Sounds/cat_sound.wav","key_press":null,"block":1,"trial_type":"audio-keyboard-response","trial_index":104,"time_elapsed":3695592,"internal_node_id":"0.0-13.0-0.13","match_key":"a","participant_id":"24"},{"rt":null,"stimulus":"<p style=\"font-size: 48px;\">+</p>","key_press":null,"block":1,"trial_type":"html-keyboard-response","trial_index":105,"time_elapsed":3696583,"internal_node_id":"0.0-13.0-1.13","match_key":"a","participant_id":"24"},{"rt":541.9800000963733,"stimulus":"Images/rooster_orig.png","key_press":76,"stim_onset":1582495361851,"block":1,"match_type":"non-match","image_category":"rooster","sound_category":"cat","audio_type":"sound","phase":"test","trial_type":"image-keyboard-response","trial_index":106,"time_elapsed":3697126,"internal_node_id":"0.0-13.0-2.13","match_key":"a","participant_id":"24","correct":true},{"rt":null,"stimulus":"Sounds/correct.wav","key_press":null,"block":1,"trial_type":"audio-keyboard-response","trial_index":107,"time_elapsed":3699140,"internal_node_id":"0.0-13.0-3.13","match_key":"a","participant_id":"24"},{"rt":null,"stimulus":"Sounds/motorcycle_label.wav","key_press":null,"block":1,"trial_type":"audio-keyboard-response","trial_index":108,"time_elapsed":3700252,"internal_node_id":"0.0-13.0-0.14","match_key":"a","participant_id":"24"},{"rt":null,"stimulus":"<p style=\"font-size: 48px;\">+</p>","key_press":null,"block":1,"trial_type":"html-keyboard-response","trial_index":109,"time_elapsed":3701249,"internal_node_id":"0.0-13.0-1.14","match_key":"a","participant_id":"24"},{"rt":619.2449999507517,"stimulus":"Images/motorcycle_cartoon.png","key_press":65,"stim_onset":1582495366518,"block":1,"match_type":"match","image_category":"motorcycle","sound_category":"motorcycle","audio_type":"label","phase":"test","trial_type":"image-keyboard-response","trial_index":110,"time_elapsed":3701870,"internal_node_id":"0.0-13.0-2.14","match_key":"a","participant_id":"24","correct":true},{"rt":null,"stimulus":"Sounds/correct.wav","key_press":null,"block":1,"trial_type":"audio-keyboard-response","trial_index":111,"time_elapsed":3703884,"internal_node_id":"0.0-13.0-3.14","match_key":"a","participant_id":"24"},{"rt":null,"stimulus":"Sounds/gun_sound.wav","key_press":null,"block":1,"trial_type":"audio-keyboard-response","trial_index":112,"time_elapsed":3704452,"internal_node_id":"0.0-13.0-0.15","match_key":"a","participant_id":"24"},{"rt":null,"stimulus":"<p style=\"font-size: 48px;\">+</p>","key_press":null,"block":1,"trial_type":"html-keyboard-response","trial_index":113,"time_elapsed":3705449,"internal_node_id":"0.0-13.0-1.15","match_key":"a","participant_id":"24"},{"rt":859.5450000138953,"stimulus":"Images/gun_3.png","key_press":65,"stim_onset":1582495370718,"block":1,"match_type":"match","image_category":"gun","sound_category":"gun","audio_type":"sound","phase":"test","trial_type":"image-keyboard-response","trial_index":114,"time_elapsed":3706310,"internal_node_id":"0.0-13.0-2.15","match_key":"a","participant_id":"24","correct":true},{"rt":null,"stimulus":"Sounds/correct.wav","key_press":null,"block":1,"trial_type":"audio-keyboard-response","trial_index":115,"time_elapsed":3708317,"internal_node_id":"0.0-13.0-3.15","match_key":"a","participant_id":"24"},{"rt":null,"stimulus":"Sounds/car_label.wav","key_press":null,"block":1,"trial_type":"audio-keyboard-response","trial_index":116,"time_elapsed":3709392,"internal_node_id":"0.0-13.0-0.16","match_key":"a","participant_id":"24"},{"rt":null,"stimulus":"<p style=\"font-size: 48px;\">+</p>","key_press":null,"block":1,"trial_type":"html-keyboard-response","trial_index":117,"time_elapsed":3710383,"internal_node_id":"0.0-13.0-1.16","match_key":"a","participant_id":"24"},{"rt":574.06000001356,"stimulus":"Images/car_1.png","key_press":65,"stim_onset":1582495375651,"block":1,"match_type":"match","image_category":"car","sound_category":"car","audio_type":"label","phase":"test","trial_type":"image-keyboard-response","trial_index":118,"time_elapsed":3710958,"internal_node_id":"0.0-13.0-2.16","match_key":"a","participant_id":"24","correct":true},{"rt":null,"stimulus":"Sounds/correct.wav","key_press":null,"block":1,"trial_type":"audio-keyboard-response","trial_index":119,"time_elapsed":3712973,"internal_node_id":"0.0-13.0-3.16","match_key":"a","participant_id":"24"},{"rt":null,"stimulus":"Sounds/whistle_label.wav","key_press":null,"block":1,"trial_type":"audio-keyboard-response","trial_index":120,"time_elapsed":3713672,"internal_node_id":"0.0-13.0-0.17","match_key":"a","participant_id":"24"},{"rt":null,"stimulus":"<p style=\"font-size: 48px;\">+</p>","key_press":null,"block":1,"trial_type":"html-keyboard-response","trial_index":121,"time_elapsed":3714666,"internal_node_id":"0.0-13.0-1.17","match_key":"a","participant_id":"24"},{"rt":546.7750000534579,"stimulus":"Images/whistle_cartoon.png","key_press":65,"stim_onset":1582495379935,"block":1,"match_type":"match","image_category":"whistle","sound_category":"whistle","audio_type":"label","phase":"test","trial_type":"image-keyboard-response","trial_index":122,"time_elapsed":3715214,"internal_node_id":"0.0-13.0-2.17","match_key":"a","participant_id":"24","correct":true},{"rt":null,"stimulus":"Sounds/correct.wav","key_press":null,"block":1,"trial_type":"audio-keyboard-response","trial_index":123,"time_elapsed":3717225,"internal_node_id":"0.0-13.0-3.17","match_key":"a","participant_id":"24"},{"rt":null,"stimulus":"Sounds/car_sound.wav","key_press":null,"block":1,"trial_type":"audio-keyboard-response","trial_index":124,"time_elapsed":3718292,"internal_node_id":"0.0-13.0-0.18","match_key":"a","participant_id":"24"},{"rt":null,"stimulus":"<p style=\"font-size: 48px;\">+</p>","key_press":null,"block":1,"trial_type":"html-keyboard-response","trial_index":125,"time_elapsed":3719283,"internal_node_id":"0.0-13.0-1.18","match_key":"a","participant_id":"24"},{"rt":609.9000000394881,"stimulus":"Images/car_cartoon.png","key_press":65,"stim_onset":1582495384551,"block":1,"match_type":"match","image_category":"car","sound_category":"car","audio_type":"sound","phase":"test","trial_type":"image-keyboard-response","trial_index":126,"time_elapsed":3719894,"internal_node_id":"0.0-13.0-2.18","match_key":"a","participant_id":"24","correct":true},{"rt":null,"stimulus":"Sounds/correct.wav","key_press":null,"block":1,"trial_type":"audio-keyboard-response","trial_index":127,"time_elapsed":3721904,"internal_node_id":"0.0-13.0-3.18","match_key":"a","participant_id":"24"},{"rt":null,"stimulus":"Sounds/frog_label.wav","key_press":null,"block":1,"trial_type":"audio-keyboard-response","trial_index":128,"time_elapsed":3722792,"internal_node_id":"0.0-13.0-0.19","match_key":"a","participant_id":"24"},{"rt":null,"stimulus":"<p style=\"font-size: 48px;\">+</p>","key_press":null,"block":1,"trial_type":"html-keyboard-response","trial_index":129,"time_elapsed":3723783,"internal_node_id":"0.0-13.0-1.19","match_key":"a","participant_id":"24"},{"rt":549.8150000348687,"stimulus":"Images/gun_cartoon.png","key_press":76,"stim_onset":1582495389051,"block":1,"match_type":"non-match","image_category":"gun","sound_category":"frog","audio_type":"label","phase":"test","trial_type":"image-keyboard-response","trial_index":130,"time_elapsed":3724334,"internal_node_id":"0.0-13.0-2.19","match_key":"a","participant_id":"24","correct":true},{"rt":null,"stimulus":"Sounds/correct.wav","key_press":null,"block":1,"trial_type":"audio-keyboard-response","trial_index":131,"time_elapsed":3726343,"internal_node_id":"0.0-13.0-3.19","match_key":"a","participant_id":"24"},{"rt":null,"stimulus":"Sounds/motorcycle_label.wav","key_press":null,"block":1,"trial_type":"audio-keyboard-response","trial_index":132,"time_elapsed":3727472,"internal_node_id":"0.0-13.0-0.20","match_key":"a","participant_id":"24"},{"rt":null,"stimulus":"<p style=\"font-size: 48px;\">+</p>","key_press":null,"block":1,"trial_type":"html-keyboard-response","trial_index":133,"time_elapsed":3728466,"internal_node_id":"0.0-13.0-1.20","match_key":"a","participant_id":"24"},{"rt":530.6600000476465,"stimulus":"Images/motorcycle_2.png","key_press":65,"stim_onset":1582495393735,"block":1,"match_type":"match","image_category":"motorcycle","sound_category":"motorcycle","audio_type":"label","phase":"test","trial_type":"image-keyboard-response","trial_index":134,"time_elapsed":3728998,"internal_node_id":"0.0-13.0-2.20","match_key":"a","participant_id":"24","correct":true},{"rt":null,"stimulus":"Sounds/correct.wav","key_press":null,"block":1,"trial_type":"audio-keyboard-response","trial_index":135,"time_elapsed":3731010,"internal_node_id":"0.0-13.0-3.20","match_key":"a","participant_id":"24"},{"rt":null,"stimulus":"Sounds/motorcycle_sound.wav","key_press":null,"block":1,"trial_type":"audio-keyboard-response","trial_index":136,"time_elapsed":3732132,"internal_node_id":"0.0-13.0-0.21","match_key":"a","participant_id":"24"},{"rt":null,"stimulus":"<p style=\"font-size: 48px;\">+</p>","key_press":null,"block":1,"trial_type":"html-keyboard-response","trial_index":137,"time_elapsed":3733150,"internal_node_id":"0.0-13.0-1.21","match_key":"a","participant_id":"24"},{"rt":703.099999926053,"stimulus":"Images/train_cartoon.png","key_press":76,"stim_onset":1582495398418,"block":1,"match_type":"non-match","image_category":"train","sound_category":"motorcycle","audio_type":"sound","phase":"test","trial_type":"image-keyboard-response","trial_index":138,"time_elapsed":3733854,"internal_node_id":"0.0-13.0-2.21","match_key":"a","participant_id":"24","correct":true},{"rt":null,"stimulus":"Sounds/correct.wav","key_press":null,"block":1,"trial_type":"audio-keyboard-response","trial_index":139,"time_elapsed":3735861,"internal_node_id":"0.0-13.0-3.21","match_key":"a","participant_id":"24"},{"rt":null,"stimulus":"Sounds/cow_sound.wav","key_press":null,"block":1,"trial_type":"audio-keyboard-response","trial_index":140,"time_elapsed":3736872,"internal_node_id":"0.0-13.0-0.22","match_key":"a","participant_id":"24"},{"rt":null,"stimulus":"<p style=\"font-size: 48px;\">+</p>","key_press":null,"block":1,"trial_type":"html-keyboard-response","trial_index":141,"time_elapsed":3737867,"internal_node_id":"0.0-13.0-1.22","match_key":"a","participant_id":"24"},{"rt":434.27499989047647,"stimulus":"Images/cow_2.png","key_press":65,"stim_onset":1582495403135,"block":1,"match_type":"match","image_category":"cow","sound_category":"cow","audio_type":"sound","phase":"test","trial_type":"image-keyboard-response","trial_index":142,"time_elapsed":3738302,"internal_node_id":"0.0-13.0-2.22","match_key":"a","participant_id":"24","correct":true},{"rt":null,"stimulus":"Sounds/correct.wav","key_press":null,"block":1,"trial_type":"audio-keyboard-response","trial_index":143,"time_elapsed":3740315,"internal_node_id":"0.0-13.0-3.22","match_key":"a","participant_id":"24"},{"rt":null,"stimulus":"Sounds/frog_label.wav","key_press":null,"block":1,"trial_type":"audio-keyboard-response","trial_index":144,"time_elapsed":3741212,"internal_node_id":"0.0-13.0-0.23","match_key":"a","participant_id":"24"},{"rt":null,"stimulus":"<p style=\"font-size: 48px;\">+</p>","key_press":null,"block":1,"trial_type":"html-keyboard-response","trial_index":145,"time_elapsed":3742217,"internal_node_id":"0.0-13.0-1.23","match_key":"a","participant_id":"24"},{"rt":548.3249999815598,"stimulus":"Images/frog_2.png","key_press":65,"stim_onset":1582495407485,"block":1,"match_type":"match","image_category":"frog","sound_category":"frog","audio_type":"label","phase":"test","trial_type":"image-keyboard-response","trial_index":146,"time_elapsed":3742766,"internal_node_id":"0.0-13.0-2.23","match_key":"a","participant_id":"24","correct":true},{"rt":null,"stimulus":"Sounds/correct.wav","key_press":null,"block":1,"trial_type":"audio-keyboard-response","trial_index":147,"time_elapsed":3744773,"internal_node_id":"0.0-13.0-3.23","match_key":"a","participant_id":"24"},{"rt":null,"stimulus":"Sounds/frog_sound.wav","key_press":null,"block":1,"trial_type":"audio-keyboard-response","trial_index":148,"time_elapsed":3745672,"internal_node_id":"0.0-13.0-0.24","match_key":"a","participant_id":"24"},{"rt":null,"stimulus":"<p style=\"font-size: 48px;\">+</p>","key_press":null,"block":1,"trial_type":"html-keyboard-response","trial_index":149,"time_elapsed":3746667,"internal_node_id":"0.0-13.0-1.24","match_key":"a","participant_id":"24"},{"rt":546.0200000088662,"stimulus":"Images/rooster_3.png","key_press":76,"stim_onset":1582495411935,"block":1,"match_type":"non-match","image_category":"rooster","sound_category":"frog","audio_type":"sound","phase":"test","trial_type":"image-keyboard-response","trial_index":150,"time_elapsed":3747214,"internal_node_id":"0.0-13.0-2.24","match_key":"a","participant_id":"24","correct":true},{"rt":null,"stimulus":"Sounds/correct.wav","key_press":null,"block":1,"trial_type":"audio-keyboard-response","trial_index":151,"time_elapsed":3749226,"internal_node_id":"0.0-13.0-3.24","match_key":"a","participant_id":"24"},{"rt":null,"stimulus":"Sounds/gun_label.wav","key_press":null,"block":1,"trial_type":"audio-keyboard-response","trial_index":152,"time_elapsed":3749812,"internal_node_id":"0.0-13.0-0.25","match_key":"a","participant_id":"24"},{"rt":null,"stimulus":"<p style=\"font-size: 48px;\">+</p>","key_press":null,"block":1,"trial_type":"html-keyboard-response","trial_index":153,"time_elapsed":3750817,"internal_node_id":"0.0-13.0-1.25","match_key":"a","participant_id":"24"},{"rt":539.9000000907108,"stimulus":"Images/gun_1.png","key_press":65,"stim_onset":1582495416085,"block":1,"match_type":"match","image_category":"gun","sound_category":"gun","audio_type":"label","phase":"test","trial_type":"image-keyboard-response","trial_index":154,"time_elapsed":3751358,"internal_node_id":"0.0-13.0-2.25","match_key":"a","participant_id":"24","correct":true},{"rt":null,"stimulus":"Sounds/correct.wav","key_press":null,"block":1,"trial_type":"audio-keyboard-response","trial_index":155,"time_elapsed":3753375,"internal_node_id":"0.0-13.0-3.25","match_key":"a","participant_id":"24"},{"rt":null,"stimulus":"Sounds/frog_sound.wav","key_press":null,"block":1,"trial_type":"audio-keyboard-response","trial_index":156,"time_elapsed":3754272,"internal_node_id":"0.0-13.0-0.26","match_key":"a","participant_id":"24"},{"rt":null,"stimulus":"<p style=\"font-size: 48px;\">+</p>","key_press":null,"block":1,"trial_type":"html-keyboard-response","trial_index":157,"time_elapsed":3755267,"internal_node_id":"0.0-13.0-1.26","match_key":"a","participant_id":"24"},{"rt":490.23499991744757,"stimulus":"Images/frog_1.png","key_press":65,"stim_onset":1582495420535,"block":1,"match_type":"match","image_category":"frog","sound_category":"frog","audio_type":"sound","phase":"test","trial_type":"image-keyboard-response","trial_index":158,"time_elapsed":3755758,"internal_node_id":"0.0-13.0-2.26","match_key":"a","participant_id":"24","correct":true},{"rt":null,"stimulus":"Sounds/correct.wav","key_press":null,"block":1,"trial_type":"audio-keyboard-response","trial_index":159,"time_elapsed":3757761,"internal_node_id":"0.0-13.0-3.26","match_key":"a","participant_id":"24"},{"rt":null,"stimulus":"Sounds/cat_label.wav","key_press":null,"block":1,"trial_type":"audio-keyboard-response","trial_index":160,"time_elapsed":3758592,"internal_node_id":"0.0-13.0-0.27","match_key":"a","participant_id":"24"},{"rt":null,"stimulus":"<p style=\"font-size: 48px;\">+</p>","key_press":null,"block":1,"trial_type":"html-keyboard-response","trial_index":161,"time_elapsed":3759583,"internal_node_id":"0.0-13.0-1.27","match_key":"a","participant_id":"24"},{"rt":661.2299999687821,"stimulus":"Images/car_3.png","key_press":76,"stim_onset":1582495424851,"block":1,"match_type":"non-match","image_category":"car","sound_category":"cat","audio_type":"label","phase":"test","trial_type":"image-keyboard-response","trial_index":162,"time_elapsed":3760246,"internal_node_id":"0.0-13.0-2.27","match_key":"a","participant_id":"24","correct":true},{"rt":null,"stimulus":"Sounds/correct.wav","key_press":null,"block":1,"trial_type":"audio-keyboard-response","trial_index":163,"time_elapsed":3762250,"internal_node_id":"0.0-13.0-3.27","match_key":"a","participant_id":"24"},{"rt":null,"stimulus":"Sounds/car_label.wav","key_press":null,"block":1,"trial_type":"audio-keyboard-response","trial_index":164,"time_elapsed":3763332,"internal_node_id":"0.0-13.0-0.28","match_key":"a","participant_id":"24"},{"rt":null,"stimulus":"<p style=\"font-size: 48px;\">+</p>","key_press":null,"block":1,"trial_type":"html-keyboard-response","trial_index":165,"time_elapsed":3764350,"internal_node_id":"0.0-13.0-1.28","match_key":"a","participant_id":"24"},{"rt":582.9149999190122,"stimulus":"Images/cat_cartoon.png","key_press":76,"stim_onset":1582495429618,"block":1,"match_type":"non-match","image_category":"cat","sound_category":"car","audio_type":"label","phase":"test","trial_type":"image-keyboard-response","trial_index":166,"time_elapsed":3764934,"internal_node_id":"0.0-13.0-2.28","match_key":"a","participant_id":"24","correct":true},{"rt":null,"stimulus":"Sounds/correct.wav","key_press":null,"block":1,"trial_type":"audio-keyboard-response","trial_index":167,"time_elapsed":3766944,"internal_node_id":"0.0-13.0-3.28","match_key":"a","participant_id":"24"},{"rt":null,"stimulus":"Sounds/frog_sound.wav","key_press":null,"block":1,"trial_type":"audio-keyboard-response","trial_index":168,"time_elapsed":3767832,"internal_node_id":"0.0-13.0-0.29","match_key":"a","participant_id":"24"},{"rt":null,"stimulus":"<p style=\"font-size: 48px;\">+</p>","key_press":null,"block":1,"trial_type":"html-keyboard-response","trial_index":169,"time_elapsed":3768850,"internal_node_id":"0.0-13.0-1.29","match_key":"a","participant_id":"24"},{"rt":658.835000009276,"stimulus":"Images/cow_2.png","key_press":76,"stim_onset":1582495434118,"block":1,"match_type":"non-match","image_category":"cow","sound_category":"frog","audio_type":"sound","phase":"test","trial_type":"image-keyboard-response","trial_index":170,"time_elapsed":3769510,"internal_node_id":"0.0-13.0-2.29","match_key":"a","participant_id":"24","correct":true},{"rt":null,"stimulus":"Sounds/correct.wav","key_press":null,"block":1,"trial_type":"audio-keyboard-response","trial_index":171,"time_elapsed":3771521,"internal_node_id":"0.0-13.0-3.29","match_key":"a","participant_id":"24"},{"rt":null,"stimulus":"Sounds/cat_sound.wav","key_press":null,"block":1,"trial_type":"audio-keyboard-response","trial_index":172,"time_elapsed":3772352,"internal_node_id":"0.0-13.0-0.30","match_key":"a","participant_id":"24"},{"rt":null,"stimulus":"<p style=\"font-size: 48px;\">+</p>","key_press":null,"block":1,"trial_type":"html-keyboard-response","trial_index":173,"time_elapsed":3773350,"internal_node_id":"0.0-13.0-1.30","match_key":"a","participant_id":"24"},{"rt":430.6850000284612,"stimulus":"Images/cat_cartoon.png","key_press":65,"stim_onset":1582495438618,"block":1,"match_type":"match","image_category":"cat","sound_category":"cat","audio_type":"sound","phase":"test","trial_type":"image-keyboard-response","trial_index":174,"time_elapsed":3773782,"internal_node_id":"0.0-13.0-2.30","match_key":"a","participant_id":"24","correct":true},{"rt":null,"stimulus":"Sounds/correct.wav","key_press":null,"block":1,"trial_type":"audio-keyboard-response","trial_index":175,"time_elapsed":3775798,"internal_node_id":"0.0-13.0-3.30","match_key":"a","participant_id":"24"},{"rt":null,"stimulus":"Sounds/motorcycle_label.wav","key_press":null,"block":1,"trial_type":"audio-keyboard-response","trial_index":176,"time_elapsed":3776932,"internal_node_id":"0.0-13.0-0.31","match_key":"a","participant_id":"24"},{"rt":null,"stimulus":"<p style=\"font-size: 48px;\">+</p>","key_press":null,"block":1,"trial_type":"html-keyboard-response","trial_index":177,"time_elapsed":3777950,"internal_node_id":"0.0-13.0-1.31","match_key":"a","participant_id":"24"},{"rt":710.5699999956414,"stimulus":"Images/frog_2.png","key_press":76,"stim_onset":1582495443218,"block":1,"match_type":"non-match","image_category":"frog","sound_category":"motorcycle","audio_type":"label","phase":"test","trial_type":"image-keyboard-response","trial_index":178,"time_elapsed":3778662,"internal_node_id":"0.0-13.0-2.31","match_key":"a","participant_id":"24","correct":true},{"rt":null,"stimulus":"Sounds/correct.wav","key_press":null,"block":1,"trial_type":"audio-keyboard-response","trial_index":179,"time_elapsed":3780677,"internal_node_id":"0.0-13.0-3.31","match_key":"a","participant_id":"24"},{"rt":null,"stimulus":"Sounds/gun_label.wav","key_press":null,"block":1,"trial_type":"audio-keyboard-response","trial_index":180,"time_elapsed":3781252,"internal_node_id":"0.0-13.0-0.32","match_key":"a","participant_id":"24"},{"rt":null,"stimulus":"<p style=\"font-size: 48px;\">+</p>","key_press":null,"block":1,"trial_type":"html-keyboard-response","trial_index":181,"time_elapsed":3782250,"internal_node_id":"0.0-13.0-1.32","match_key":"a","participant_id":"24"},{"rt":553.1900000059977,"stimulus":"Images/gun_2.png","key_press":65,"stim_onset":1582495447518,"block":1,"match_type":"match","image_category":"gun","sound_category":"gun","audio_type":"label","phase":"test","trial_type":"image-keyboard-response","trial_index":182,"time_elapsed":3782806,"internal_node_id":"0.0-13.0-2.32","match_key":"a","participant_id":"24","correct":true},{"rt":null,"stimulus":"Sounds/correct.wav","key_press":null,"block":1,"trial_type":"audio-keyboard-response","trial_index":183,"time_elapsed":3784810,"internal_node_id":"0.0-13.0-3.32","match_key":"a","participant_id":"24"},{"rt":null,"stimulus":"Sounds/rooster_label.wav","key_press":null,"block":1,"trial_type":"audio-keyboard-response","trial_index":184,"time_elapsed":3785512,"internal_node_id":"0.0-13.0-0.33","match_key":"a","participant_id":"24"},{"rt":null,"stimulus":"<p style=\"font-size: 48px;\">+</p>","key_press":null,"block":1,"trial_type":"html-keyboard-response","trial_index":185,"time_elapsed":3786500,"internal_node_id":"0.0-13.0-1.33","match_key":"a","participant_id":"24"},{"rt":560.289999935776,"stimulus":"Images/train_2.png","key_press":76,"stim_onset":1582495451768,"block":1,"match_type":"non-match","image_category":"train","sound_category":"rooster","audio_type":"label","phase":"test","trial_type":"image-keyboard-response","trial_index":186,"time_elapsed":3787062,"internal_node_id":"0.0-13.0-2.33","match_key":"a","participant_id":"24","correct":true},{"rt":null,"stimulus":"Sounds/correct.wav","key_press":null,"block":1,"trial_type":"audio-keyboard-response","trial_index":187,"time_elapsed":3789072,"internal_node_id":"0.0-13.0-3.33","match_key":"a","participant_id":"24"},{"rt":null,"stimulus":"Sounds/rooster_sound.wav","key_press":null,"block":1,"trial_type":"audio-keyboard-response","trial_index":188,"time_elapsed":3789772,"internal_node_id":"0.0-13.0-0.34","match_key":"a","participant_id":"24"},{"rt":null,"stimulus":"<p style=\"font-size: 48px;\">+</p>","key_press":null,"block":1,"trial_type":"html-keyboard-response","trial_index":189,"time_elapsed":3790766,"internal_node_id":"0.0-13.0-1.34","match_key":"a","participant_id":"24"},{"rt":565.9049999667332,"stimulus":"Images/rooster_3.png","key_press":65,"stim_onset":1582495456035,"block":1,"match_type":"match","image_category":"rooster","sound_category":"rooster","audio_type":"sound","phase":"test","trial_type":"image-keyboard-response","trial_index":190,"time_elapsed":3791333,"internal_node_id":"0.0-13.0-2.34","match_key":"a","participant_id":"24","correct":true},{"rt":null,"stimulus":"Sounds/correct.wav","key_press":null,"block":1,"trial_type":"audio-keyboard-response","trial_index":191,"time_elapsed":3793340,"internal_node_id":"0.0-13.0-3.34","match_key":"a","participant_id":"24"},{"rt":null,"stimulus":"Sounds/rooster_label.wav","key_press":null,"block":1,"trial_type":"audio-keyboard-response","trial_index":192,"time_elapsed":3794012,"internal_node_id":"0.0-13.0-0.35","match_key":"a","participant_id":"24"},{"rt":null,"stimulus":"<p style=\"font-size: 48px;\">+</p>","key_press":null,"block":1,"trial_type":"html-keyboard-response","trial_index":193,"time_elapsed":3795000,"internal_node_id":"0.0-13.0-1.35","match_key":"a","participant_id":"24"},{"rt":724.515000008978,"stimulus":"Images/rooster_cartoon.png","key_press":76,"stim_onset":1582495460268,"block":1,"match_type":"match","image_category":"rooster","sound_category":"rooster","audio_type":"label","phase":"test","trial_type":"image-keyboard-response","trial_index":194,"time_elapsed":3795726,"internal_node_id":"0.0-13.0-2.35","match_key":"a","participant_id":"24","correct":false},{"rt":null,"stimulus":"Sounds/incorrect.wav","key_press":null,"block":1,"trial_type":"audio-keyboard-response","trial_index":195,"time_elapsed":3797729,"internal_node_id":"0.0-13.0-3.35","match_key":"a","participant_id":"24"},{"rt":null,"stimulus":"Sounds/whistle_sound.wav","key_press":null,"block":1,"trial_type":"audio-keyboard-response","trial_index":196,"time_elapsed":3798432,"internal_node_id":"0.0-13.0-0.36","match_key":"a","participant_id":"24"},{"rt":null,"stimulus":"<p style=\"font-size: 48px;\">+</p>","key_press":null,"block":1,"trial_type":"html-keyboard-response","trial_index":197,"time_elapsed":3799450,"internal_node_id":"0.0-13.0-1.36","match_key":"a","participant_id":"24"},{"rt":506.4249999122694,"stimulus":"Images/whistle_1.png","key_press":65,"stim_onset":1582495464718,"block":1,"match_type":"match","image_category":"whistle","sound_category":"whistle","audio_type":"sound","phase":"test","trial_type":"image-keyboard-response","trial_index":198,"time_elapsed":3799957,"internal_node_id":"0.0-13.0-2.36","match_key":"a","participant_id":"24","correct":true},{"rt":null,"stimulus":"Sounds/correct.wav","key_press":null,"block":1,"trial_type":"audio-keyboard-response","trial_index":199,"time_elapsed":3801975,"internal_node_id":"0.0-13.0-3.36","match_key":"a","participant_id":"24"},{"rt":null,"stimulus":"Sounds/cow_sound.wav","key_press":null,"block":1,"trial_type":"audio-keyboard-response","trial_index":200,"time_elapsed":3802992,"internal_node_id":"0.0-13.0-0.37","match_key":"a","participant_id":"24"},{"rt":null,"stimulus":"<p style=\"font-size: 48px;\">+</p>","key_press":null,"block":1,"trial_type":"html-keyboard-response","trial_index":201,"time_elapsed":3803983,"internal_node_id":"0.0-13.0-1.37","match_key":"a","participant_id":"24"},{"rt":509.0600000694394,"stimulus":"Images/cow_cartoon.png","key_press":65,"stim_onset":1582495469251,"block":1,"match_type":"match","image_category":"cow","sound_category":"cow","audio_type":"sound","phase":"test","trial_type":"image-keyboard-response","trial_index":202,"time_elapsed":3804493,"internal_node_id":"0.0-13.0-2.37","match_key":"a","participant_id":"24","correct":true},{"rt":null,"stimulus":"Sounds/correct.wav","key_press":null,"block":1,"trial_type":"audio-keyboard-response","trial_index":203,"time_elapsed":3806497,"internal_node_id":"0.0-13.0-3.37","match_key":"a","participant_id":"24"},{"rt":null,"stimulus":"Sounds/cat_sound.wav","key_press":null,"block":1,"trial_type":"audio-keyboard-response","trial_index":204,"time_elapsed":3807332,"internal_node_id":"0.0-13.0-0.38","match_key":"a","participant_id":"24"},{"rt":null,"stimulus":"<p style=\"font-size: 48px;\">+</p>","key_press":null,"block":1,"trial_type":"html-keyboard-response","trial_index":205,"time_elapsed":3808333,"internal_node_id":"0.0-13.0-1.38","match_key":"a","participant_id":"24"},{"rt":647.1599999349564,"stimulus":"Images/dog_3.png","key_press":76,"stim_onset":1582495473602,"block":1,"match_type":"non-match","image_category":"dog","sound_category":"cat","audio_type":"sound","phase":"test","trial_type":"image-keyboard-response","trial_index":206,"time_elapsed":3808982,"internal_node_id":"0.0-13.0-2.38","match_key":"a","participant_id":"24","correct":true},{"rt":null,"stimulus":"Sounds/correct.wav","key_press":null,"block":1,"trial_type":"audio-keyboard-response","trial_index":207,"time_elapsed":3810992,"internal_node_id":"0.0-13.0-3.38","match_key":"a","participant_id":"24"},{"rt":null,"stimulus":"Sounds/whistle_sound.wav","key_press":null,"block":1,"trial_type":"audio-keyboard-response","trial_index":208,"time_elapsed":3811672,"internal_node_id":"0.0-13.0-0.39","match_key":"a","participant_id":"24"},{"rt":null,"stimulus":"<p style=\"font-size: 48px;\">+</p>","key_press":null,"block":1,"trial_type":"html-keyboard-response","trial_index":209,"time_elapsed":3812667,"internal_node_id":"0.0-13.0-1.39","match_key":"a","participant_id":"24"},{"rt":609.5500000519678,"stimulus":"Images/gun_3.png","key_press":76,"stim_onset":1582495477935,"block":1,"match_type":"non-match","image_category":"gun","sound_category":"whistle","audio_type":"sound","phase":"test","trial_type":"image-keyboard-response","trial_index":210,"time_elapsed":3813277,"internal_node_id":"0.0-13.0-2.39","match_key":"a","participant_id":"24","correct":true},{"rt":null,"stimulus":"Sounds/correct.wav","key_press":null,"block":1,"trial_type":"audio-keyboard-response","trial_index":211,"time_elapsed":3815287,"internal_node_id":"0.0-13.0-3.39","match_key":"a","participant_id":"24"},{"rt":null,"stimulus":"Sounds/motorcycle_label.wav","key_press":null,"block":1,"trial_type":"audio-keyboard-response","trial_index":212,"time_elapsed":3816432,"internal_node_id":"0.0-13.0-0.40","match_key":"a","participant_id":"24"},{"rt":null,"stimulus":"<p style=\"font-size: 48px;\">+</p>","key_press":null,"block":1,"trial_type":"html-keyboard-response","trial_index":213,"time_elapsed":3817433,"internal_node_id":"0.0-13.0-1.40","match_key":"a","participant_id":"24"},{"rt":490.85000006016344,"stimulus":"Images/motorcycle_3.png","key_press":65,"stim_onset":1582495482702,"block":1,"match_type":"match","image_category":"motorcycle","sound_category":"motorcycle","audio_type":"label","phase":"test","trial_type":"image-keyboard-response","trial_index":214,"time_elapsed":3817925,"internal_node_id":"0.0-13.0-2.40","match_key":"a","participant_id":"24","correct":true},{"rt":null,"stimulus":"Sounds/correct.wav","key_press":null,"block":1,"trial_type":"audio-keyboard-response","trial_index":215,"time_elapsed":3819928,"internal_node_id":"0.0-13.0-3.40","match_key":"a","participant_id":"24"},{"rt":null,"stimulus":"Sounds/dog_label.wav","key_press":null,"block":1,"trial_type":"audio-keyboard-response","trial_index":216,"time_elapsed":3820592,"internal_node_id":"0.0-13.0-0.41","match_key":"a","participant_id":"24"},{"rt":null,"stimulus":"<p style=\"font-size: 48px;\">+</p>","key_press":null,"block":1,"trial_type":"html-keyboard-response","trial_index":217,"time_elapsed":3821584,"internal_node_id":"0.0-13.0-1.41","match_key":"a","participant_id":"24"},{"rt":628.8199999835342,"stimulus":"Images/frog_3.png","key_press":76,"stim_onset":1582495486852,"block":1,"match_type":"non-match","image_category":"frog","sound_category":"dog","audio_type":"label","phase":"test","trial_type":"image-keyboard-response","trial_index":218,"time_elapsed":3822213,"internal_node_id":"0.0-13.0-2.41","match_key":"a","participant_id":"24","correct":true},{"rt":null,"stimulus":"Sounds/correct.wav","key_press":null,"block":1,"trial_type":"audio-keyboard-response","trial_index":219,"time_elapsed":3824222,"internal_node_id":"0.0-13.0-3.41","match_key":"a","participant_id":"24"},{"rt":null,"stimulus":"Sounds/cow_sound.wav","key_press":null,"block":1,"trial_type":"audio-keyboard-response","trial_index":220,"time_elapsed":3825231,"internal_node_id":"0.0-13.0-0.42","match_key":"a","participant_id":"24"},{"rt":null,"stimulus":"<p style=\"font-size: 48px;\">+</p>","key_press":null,"block":1,"trial_type":"html-keyboard-response","trial_index":221,"time_elapsed":3826234,"internal_node_id":"0.0-13.0-1.42","match_key":"a","participant_id":"24"},{"rt":522.7700000395998,"stimulus":"Images/cow_1.png","key_press":65,"stim_onset":1582495491502,"block":1,"match_type":"match","image_category":"cow","sound_category":"cow","audio_type":"sound","phase":"test","trial_type":"image-keyboard-response","trial_index":222,"time_elapsed":3826757,"internal_node_id":"0.0-13.0-2.42","match_key":"a","participant_id":"24","correct":true},{"rt":null,"stimulus":"Sounds/correct.wav","key_press":null,"block":1,"trial_type":"audio-keyboard-response","trial_index":223,"time_elapsed":3828775,"internal_node_id":"0.0-13.0-3.42","match_key":"a","participant_id":"24"},{"rt":null,"stimulus":"Sounds/car_label.wav","key_press":null,"block":1,"trial_type":"audio-keyboard-response","trial_index":224,"time_elapsed":3829852,"internal_node_id":"0.0-13.0-0.43","match_key":"a","participant_id":"24"},{"rt":null,"stimulus":"<p style=\"font-size: 48px;\">+</p>","key_press":null,"block":1,"trial_type":"html-keyboard-response","trial_index":225,"time_elapsed":3830850,"internal_node_id":"0.0-13.0-1.43","match_key":"a","participant_id":"24"},{"rt":530.0950000528246,"stimulus":"Images/dog_1.png","key_press":76,"stim_onset":1582495496118,"block":1,"match_type":"non-match","image_category":"dog","sound_category":"car","audio_type":"label","phase":"test","trial_type":"image-keyboard-response","trial_index":226,"time_elapsed":3831381,"internal_node_id":"0.0-13.0-2.43","match_key":"a","participant_id":"24","correct":true},{"rt":null,"stimulus":"Sounds/correct.wav","key_press":null,"block":1,"trial_type":"audio-keyboard-response","trial_index":227,"time_elapsed":3833391,"internal_node_id":"0.0-13.0-3.43","match_key":"a","participant_id":"24"},{"rt":null,"stimulus":"Sounds/train_sound.wav","key_press":null,"block":1,"trial_type":"audio-keyboard-response","trial_index":228,"time_elapsed":3834692,"internal_node_id":"0.0-13.0-0.44","match_key":"a","participant_id":"24"},{"rt":null,"stimulus":"<p style=\"font-size: 48px;\">+</p>","key_press":null,"block":1,"trial_type":"html-keyboard-response","trial_index":229,"time_elapsed":3835684,"internal_node_id":"0.0-13.0-1.44","match_key":"a","participant_id":"24"},{"rt":496.3599999900907,"stimulus":"Images/gun_1.png","key_press":76,"stim_onset":1582495500951,"block":1,"match_type":"non-match","image_category":"gun","sound_category":"train","audio_type":"sound","phase":"test","trial_type":"image-keyboard-response","trial_index":230,"time_elapsed":3836181,"internal_node_id":"0.0-13.0-2.44","match_key":"a","participant_id":"24","correct":true},{"rt":null,"stimulus":"Sounds/correct.wav","key_press":null,"block":1,"trial_type":"audio-keyboard-response","trial_index":231,"time_elapsed":3838194,"internal_node_id":"0.0-13.0-3.44","match_key":"a","participant_id":"24"},{"rt":null,"stimulus":"Sounds/whistle_sound.wav","key_press":null,"block":1,"trial_type":"audio-keyboard-response","trial_index":232,"time_elapsed":3838892,"internal_node_id":"0.0-13.0-0.45","match_key":"a","participant_id":"24"},{"rt":null,"stimulus":"<p style=\"font-size: 48px;\">+</p>","key_press":null,"block":1,"trial_type":"html-keyboard-response","trial_index":233,"time_elapsed":3839884,"internal_node_id":"0.0-13.0-1.45","match_key":"a","participant_id":"24"},{"rt":816.6850000852719,"stimulus":"Images/whistle_3.png","key_press":65,"stim_onset":1582495505152,"block":1,"match_type":"match","image_category":"whistle","sound_category":"whistle","audio_type":"sound","phase":"test","trial_type":"image-keyboard-response","trial_index":234,"time_elapsed":3840702,"internal_node_id":"0.0-13.0-2.45","match_key":"a","participant_id":"24","correct":true},{"rt":null,"stimulus":"Sounds/correct.wav","key_press":null,"block":1,"trial_type":"audio-keyboard-response","trial_index":235,"time_elapsed":3842705,"internal_node_id":"0.0-13.0-3.45","match_key":"a","participant_id":"24"},{"rt":null,"stimulus":"Sounds/dog_sound.wav","key_press":null,"block":1,"trial_type":"audio-keyboard-response","trial_index":236,"time_elapsed":3843412,"internal_node_id":"0.0-13.0-0.46","match_key":"a","participant_id":"24"},{"rt":null,"stimulus":"<p style=\"font-size: 48px;\">+</p>","key_press":null,"block":1,"trial_type":"html-keyboard-response","trial_index":237,"time_elapsed":3844401,"internal_node_id":"0.0-13.0-1.46","match_key":"a","participant_id":"24"},{"rt":459.84499994665384,"stimulus":"Images/dog_3.png","key_press":65,"stim_onset":1582495509669,"block":1,"match_type":"match","image_category":"dog","sound_category":"dog","audio_type":"sound","phase":"test","trial_type":"image-keyboard-response","trial_index":238,"time_elapsed":3844861,"internal_node_id":"0.0-13.0-2.46","match_key":"a","participant_id":"24","correct":true},{"rt":null,"stimulus":"Sounds/correct.wav","key_press":null,"block":1,"trial_type":"audio-keyboard-response","trial_index":239,"time_elapsed":3846866,"internal_node_id":"0.0-13.0-3.46","match_key":"a","participant_id":"24"},{"rt":null,"stimulus":"Sounds/train_sound.wav","key_press":null,"block":1,"trial_type":"audio-keyboard-response","trial_index":240,"time_elapsed":3848132,"internal_node_id":"0.0-13.0-0.47","match_key":"a","participant_id":"24"},{"rt":null,"stimulus":"<p style=\"font-size: 48px;\">+</p>","key_press":null,"block":1,"trial_type":"html-keyboard-response","trial_index":241,"time_elapsed":3849135,"internal_node_id":"0.0-13.0-1.47","match_key":"a","participant_id":"24"},{"rt":638.7000000104308,"stimulus":"Images/train_1.png","key_press":65,"stim_onset":1582495514403,"block":1,"match_type":"match","image_category":"train","sound_category":"train","audio_type":"sound","phase":"test","trial_type":"image-keyboard-response","trial_index":242,"time_elapsed":3849775,"internal_node_id":"0.0-13.0-2.47","match_key":"a","participant_id":"24","correct":true},{"rt":null,"stimulus":"Sounds/correct.wav","key_press":null,"block":1,"trial_type":"audio-keyboard-response","trial_index":243,"time_elapsed":3851785,"internal_node_id":"0.0-13.0-3.47","match_key":"a","participant_id":"24"},{"rt":null,"stimulus":"Sounds/cat_label.wav","key_press":null,"block":1,"trial_type":"audio-keyboard-response","trial_index":244,"time_elapsed":3852613,"internal_node_id":"0.0-13.0-0.48","match_key":"a","participant_id":"24"},{"rt":null,"stimulus":"<p style=\"font-size: 48px;\">+</p>","key_press":null,"block":1,"trial_type":"html-keyboard-response","trial_index":245,"time_elapsed":3853602,"internal_node_id":"0.0-13.0-1.48","match_key":"a","participant_id":"24"},{"rt":459.874999942258,"stimulus":"Images/train_3.png","key_press":76,"stim_onset":1582495518870,"block":1,"match_type":"non-match","image_category":"train","sound_category":"cat","audio_type":"label","phase":"test","trial_type":"image-keyboard-response","trial_index":246,"time_elapsed":3854062,"internal_node_id":"0.0-13.0-2.48","match_key":"a","participant_id":"24","correct":true},{"rt":null,"stimulus":"Sounds/correct.wav","key_press":null,"block":1,"trial_type":"audio-keyboard-response","trial_index":247,"time_elapsed":3856073,"internal_node_id":"0.0-13.0-3.48","match_key":"a","participant_id":"24"},{"rt":null,"stimulus":"Sounds/whistle_label.wav","key_press":null,"block":1,"trial_type":"audio-keyboard-response","trial_index":248,"time_elapsed":3856773,"internal_node_id":"0.0-13.0-0.49","match_key":"a","participant_id":"24"},{"rt":null,"stimulus":"<p style=\"font-size: 48px;\">+</p>","key_press":null,"block":1,"trial_type":"html-keyboard-response","trial_index":249,"time_elapsed":3857768,"internal_node_id":"0.0-13.0-1.49","match_key":"a","participant_id":"24"},{"rt":581.0950000304729,"stimulus":"Images/car_1.png","key_press":76,"stim_onset":1582495523036,"block":1,"match_type":"non-match","image_category":"car","sound_category":"whistle","audio_type":"label","phase":"test","trial_type":"image-keyboard-response","trial_index":250,"time_elapsed":3858350,"internal_node_id":"0.0-13.0-2.49","match_key":"a","participant_id":"24","correct":true},{"rt":null,"stimulus":"Sounds/correct.wav","key_press":null,"block":1,"trial_type":"audio-keyboard-response","trial_index":251,"time_elapsed":3860358,"internal_node_id":"0.0-13.0-3.49","match_key":"a","participant_id":"24"},{"rt":null,"stimulus":"Sounds/gun_sound.wav","key_press":null,"block":1,"trial_type":"audio-keyboard-response","trial_index":252,"time_elapsed":3860933,"internal_node_id":"0.0-13.0-0.50","match_key":"a","participant_id":"24"},{"rt":null,"stimulus":"<p style=\"font-size: 48px;\">+</p>","key_press":null,"block":1,"trial_type":"html-keyboard-response","trial_index":253,"time_elapsed":3861935,"internal_node_id":"0.0-13.0-1.50","match_key":"a","participant_id":"24"},{"rt":526.7549999989569,"stimulus":"Images/cat_orig.png","key_press":76,"stim_onset":1582495527203,"block":1,"match_type":"non-match","image_category":"cat","sound_category":"gun","audio_type":"sound","phase":"test","trial_type":"image-keyboard-response","trial_index":254,"time_elapsed":3862463,"internal_node_id":"0.0-13.0-2.50","match_key":"a","participant_id":"24","correct":true},{"rt":null,"stimulus":"Sounds/correct.wav","key_press":null,"block":1,"trial_type":"audio-keyboard-response","trial_index":255,"time_elapsed":3864478,"internal_node_id":"0.0-13.0-3.50","match_key":"a","participant_id":"24"},{"rt":null,"stimulus":"Sounds/car_label.wav","key_press":null,"block":1,"trial_type":"audio-keyboard-response","trial_index":256,"time_elapsed":3865553,"internal_node_id":"0.0-13.0-0.51","match_key":"a","participant_id":"24"},{"rt":null,"stimulus":"<p style=\"font-size: 48px;\">+</p>","key_press":null,"block":1,"trial_type":"html-keyboard-response","trial_index":257,"time_elapsed":3866552,"internal_node_id":"0.0-13.0-1.51","match_key":"a","participant_id":"24"},{"rt":565.5300000216812,"stimulus":"Images/train_1.png","key_press":76,"stim_onset":1582495531820,"block":1,"match_type":"non-match","image_category":"train","sound_category":"car","audio_type":"label","phase":"test","trial_type":"image-keyboard-response","trial_index":258,"time_elapsed":3867118,"internal_node_id":"0.0-13.0-2.51","match_key":"a","participant_id":"24","correct":true},{"rt":null,"stimulus":"Sounds/correct.wav","key_press":null,"block":1,"trial_type":"audio-keyboard-response","trial_index":259,"time_elapsed":3869128,"internal_node_id":"0.0-13.0-3.51","match_key":"a","participant_id":"24"},{"rt":null,"stimulus":"Sounds/gun_label.wav","key_press":null,"block":1,"trial_type":"audio-keyboard-response","trial_index":260,"time_elapsed":3869713,"internal_node_id":"0.0-13.0-0.52","match_key":"a","participant_id":"24"},{"rt":null,"stimulus":"<p style=\"font-size: 48px;\">+</p>","key_press":null,"block":1,"trial_type":"html-keyboard-response","trial_index":261,"time_elapsed":3870702,"internal_node_id":"0.0-13.0-1.52","match_key":"a","participant_id":"24"},{"rt":575.3999999724329,"stimulus":"Images/gun_cartoon.png","key_press":65,"stim_onset":1582495535970,"block":1,"match_type":"match","image_category":"gun","sound_category":"gun","audio_type":"label","phase":"test","trial_type":"image-keyboard-response","trial_index":262,"time_elapsed":3871278,"internal_node_id":"0.0-13.0-2.52","match_key":"a","participant_id":"24","correct":true},{"rt":null,"stimulus":"Sounds/correct.wav","key_press":null,"block":1,"trial_type":"audio-keyboard-response","trial_index":263,"time_elapsed":3873291,"internal_node_id":"0.0-13.0-3.52","match_key":"a","participant_id":"24"},{"rt":null,"stimulus":"Sounds/train_sound.wav","key_press":null,"block":1,"trial_type":"audio-keyboard-response","trial_index":264,"time_elapsed":3874593,"internal_node_id":"0.0-13.0-0.53","match_key":"a","participant_id":"24"},{"rt":null,"stimulus":"<p style=\"font-size: 48px;\">+</p>","key_press":null,"block":1,"trial_type":"html-keyboard-response","trial_index":265,"time_elapsed":3875585,"internal_node_id":"0.0-13.0-1.53","match_key":"a","participant_id":"24"},{"rt":668.2749999454245,"stimulus":"Images/dog_orig.png","key_press":76,"stim_onset":1582495540853,"block":1,"match_type":"non-match","image_category":"dog","sound_category":"train","audio_type":"sound","phase":"test","trial_type":"image-keyboard-response","trial_index":266,"time_elapsed":3876255,"internal_node_id":"0.0-13.0-2.53","match_key":"a","participant_id":"24","correct":true},{"rt":null,"stimulus":"Sounds/correct.wav","key_press":null,"block":1,"trial_type":"audio-keyboard-response","trial_index":267,"time_elapsed":3878270,"internal_node_id":"0.0-13.0-3.53","match_key":"a","participant_id":"24"},{"rt":null,"stimulus":"Sounds/rooster_label.wav","key_press":null,"block":1,"trial_type":"audio-keyboard-response","trial_index":268,"time_elapsed":3878973,"internal_node_id":"0.0-13.0-0.54","match_key":"a","participant_id":"24"},{"rt":null,"stimulus":"<p style=\"font-size: 48px;\">+</p>","key_press":null,"block":1,"trial_type":"html-keyboard-response","trial_index":269,"time_elapsed":3879969,"internal_node_id":"0.0-13.0-1.54","match_key":"a","participant_id":"24"},{"rt":596.7749999836087,"stimulus":"Images/cat_2.png","key_press":76,"stim_onset":1582495545237,"block":1,"match_type":"non-match","image_category":"cat","sound_category":"rooster","audio_type":"label","phase":"test","trial_type":"image-keyboard-response","trial_index":270,"time_elapsed":3880566,"internal_node_id":"0.0-13.0-2.54","match_key":"a","participant_id":"24","correct":true},{"rt":null,"stimulus":"Sounds/correct.wav","key_press":null,"block":1,"trial_type":"audio-keyboard-response","trial_index":271,"time_elapsed":3882572,"internal_node_id":"0.0-13.0-3.54","match_key":"a","participant_id":"24"},{"rt":null,"stimulus":"Sounds/cat_sound.wav","key_press":null,"block":1,"trial_type":"audio-keyboard-response","trial_index":272,"time_elapsed":3883413,"internal_node_id":"0.0-13.0-0.55","match_key":"a","participant_id":"24"},{"rt":null,"stimulus":"<p style=\"font-size: 48px;\">+</p>","key_press":null,"block":1,"trial_type":"html-keyboard-response","trial_index":273,"time_elapsed":3884402,"internal_node_id":"0.0-13.0-1.55","match_key":"a","participant_id":"24"},{"rt":459.4450000440702,"stimulus":"Images/cat_3.png","key_press":65,"stim_onset":1582495549670,"block":1,"match_type":"match","image_category":"cat","sound_category":"cat","audio_type":"sound","phase":"test","trial_type":"image-keyboard-response","trial_index":274,"time_elapsed":3884862,"internal_node_id":"0.0-13.0-2.55","match_key":"a","participant_id":"24","correct":true},{"rt":null,"stimulus":"Sounds/correct.wav","key_press":null,"block":1,"trial_type":"audio-keyboard-response","trial_index":275,"time_elapsed":3886867,"internal_node_id":"0.0-13.0-3.55","match_key":"a","participant_id":"24"},{"rt":null,"stimulus":"Sounds/cow_label.wav","key_press":null,"block":1,"trial_type":"audio-keyboard-response","trial_index":276,"time_elapsed":3887893,"internal_node_id":"0.0-13.0-0.56","match_key":"a","participant_id":"24"},{"rt":null,"stimulus":"<p style=\"font-size: 48px;\">+</p>","key_press":null,"block":1,"trial_type":"html-keyboard-response","trial_index":277,"time_elapsed":3888885,"internal_node_id":"0.0-13.0-1.56","match_key":"a","participant_id":"24"},{"rt":488.2350000552833,"stimulus":"Images/cow_orig.png","key_press":65,"stim_onset":1582495554154,"block":1,"match_type":"match","image_category":"cow","sound_category":"cow","audio_type":"label","phase":"test","trial_type":"image-keyboard-response","trial_index":278,"time_elapsed":3889375,"internal_node_id":"0.0-13.0-2.56","match_key":"a","participant_id":"24","correct":true},{"rt":null,"stimulus":"Sounds/correct.wav","key_press":null,"block":1,"trial_type":"audio-keyboard-response","trial_index":279,"time_elapsed":3891380,"internal_node_id":"0.0-13.0-3.56","match_key":"a","participant_id":"24"},{"rt":null,"stimulus":"Sounds/cat_label.wav","key_press":null,"block":1,"trial_type":"audio-keyboard-response","trial_index":280,"time_elapsed":3892213,"internal_node_id":"0.0-13.0-0.57","match_key":"a","participant_id":"24"},{"rt":null,"stimulus":"<p style=\"font-size: 48px;\">+</p>","key_press":null,"block":1,"trial_type":"html-keyboard-response","trial_index":281,"time_elapsed":3893202,"internal_node_id":"0.0-13.0-1.57","match_key":"a","participant_id":"24"},{"rt":459.49999999720603,"stimulus":"Images/cat_orig.png","key_press":65,"stim_onset":1582495558470,"block":1,"match_type":"match","image_category":"cat","sound_category":"cat","audio_type":"label","phase":"test","trial_type":"image-keyboard-response","trial_index":282,"time_elapsed":3893662,"internal_node_id":"0.0-13.0-2.57","match_key":"a","participant_id":"24","correct":true},{"rt":null,"stimulus":"Sounds/correct.wav","key_press":null,"block":1,"trial_type":"audio-keyboard-response","trial_index":283,"time_elapsed":3895668,"internal_node_id":"0.0-13.0-3.57","match_key":"a","participant_id":"24"},{"rt":null,"stimulus":"Sounds/motorcycle_sound.wav","key_press":null,"block":1,"trial_type":"audio-keyboard-response","trial_index":284,"time_elapsed":3896793,"internal_node_id":"0.0-13.0-0.58","match_key":"a","participant_id":"24"},{"rt":null,"stimulus":"<p style=\"font-size: 48px;\">+</p>","key_press":null,"block":1,"trial_type":"html-keyboard-response","trial_index":285,"time_elapsed":3897785,"internal_node_id":"0.0-13.0-1.58","match_key":"a","participant_id":"24"},{"rt":916.0300000803545,"stimulus":"Images/motorcycle_1.png","key_press":65,"stim_onset":1582495563053,"block":1,"match_type":"match","image_category":"motorcycle","sound_category":"motorcycle","audio_type":"sound","phase":"test","trial_type":"image-keyboard-response","trial_index":286,"time_elapsed":3898703,"internal_node_id":"0.0-13.0-2.58","match_key":"a","participant_id":"24","correct":true},{"rt":null,"stimulus":"Sounds/correct.wav","key_press":null,"block":1,"trial_type":"audio-keyboard-response","trial_index":287,"time_elapsed":3900715,"internal_node_id":"0.0-13.0-3.58","match_key":"a","participant_id":"24"},{"rt":null,"stimulus":"Sounds/cow_label.wav","key_press":null,"block":1,"trial_type":"audio-keyboard-response","trial_index":288,"time_elapsed":3901713,"internal_node_id":"0.0-13.0-0.59","match_key":"a","participant_id":"24"},{"rt":null,"stimulus":"<p style=\"font-size: 48px;\">+</p>","key_press":null,"block":1,"trial_type":"html-keyboard-response","trial_index":289,"time_elapsed":3902702,"internal_node_id":"0.0-13.0-1.59","match_key":"a","participant_id":"24"},{"rt":607.4099999386817,"stimulus":"Images/dog_2.png","key_press":76,"stim_onset":1582495567970,"block":1,"match_type":"non-match","image_category":"dog","sound_category":"cow","audio_type":"label","phase":"test","trial_type":"image-keyboard-response","trial_index":290,"time_elapsed":3903311,"internal_node_id":"0.0-13.0-2.59","match_key":"a","participant_id":"24","correct":true},{"rt":null,"stimulus":"Sounds/correct.wav","key_press":null,"block":1,"trial_type":"audio-keyboard-response","trial_index":291,"time_elapsed":3905322,"internal_node_id":"0.0-13.0-3.59","match_key":"a","participant_id":"24"},{"rt":null,"stimulus":"Sounds/cow_sound.wav","key_press":null,"block":1,"trial_type":"audio-keyboard-response","trial_index":292,"time_elapsed":3906333,"internal_node_id":"0.0-13.0-0.60","match_key":"a","participant_id":"24"},{"rt":null,"stimulus":"<p style=\"font-size: 48px;\">+</p>","key_press":null,"block":1,"trial_type":"html-keyboard-response","trial_index":293,"time_elapsed":3907336,"internal_node_id":"0.0-13.0-1.60","match_key":"a","participant_id":"24"},{"rt":461.72999998088926,"stimulus":"Images/cow_3.png","key_press":65,"stim_onset":1582495572604,"block":1,"match_type":"match","image_category":"cow","sound_category":"cow","audio_type":"sound","phase":"test","trial_type":"image-keyboard-response","trial_index":294,"time_elapsed":3907798,"internal_node_id":"0.0-13.0-2.60","match_key":"a","participant_id":"24","correct":true},{"rt":null,"stimulus":"Sounds/correct.wav","key_press":null,"block":1,"trial_type":"audio-keyboard-response","trial_index":295,"time_elapsed":3909818,"internal_node_id":"0.0-13.0-3.60","match_key":"a","participant_id":"24"},{"rt":null,"stimulus":"Sounds/gun_label.wav","key_press":null,"block":1,"trial_type":"audio-keyboard-response","trial_index":296,"time_elapsed":3910395,"internal_node_id":"0.0-13.0-0.61","match_key":"a","participant_id":"24"},{"rt":null,"stimulus":"<p style=\"font-size: 48px;\">+</p>","key_press":null,"block":1,"trial_type":"html-keyboard-response","trial_index":297,"time_elapsed":3911388,"internal_node_id":"0.0-13.0-1.61","match_key":"a","participant_id":"24"},{"rt":475.9449999546632,"stimulus":"Images/motorcycle_2.png","key_press":76,"stim_onset":1582495576656,"block":1,"match_type":"non-match","image_category":"motorcycle","sound_category":"gun","audio_type":"label","phase":"test","trial_type":"image-keyboard-response","trial_index":298,"time_elapsed":3911865,"internal_node_id":"0.0-13.0-2.61","match_key":"a","participant_id":"24","correct":true},{"rt":null,"stimulus":"Sounds/correct.wav","key_press":null,"block":1,"trial_type":"audio-keyboard-response","trial_index":299,"time_elapsed":3913882,"internal_node_id":"0.0-13.0-3.61","match_key":"a","participant_id":"24"},{"rt":null,"stimulus":"Sounds/rooster_sound.wav","key_press":null,"block":1,"trial_type":"audio-keyboard-response","trial_index":300,"time_elapsed":3914575,"internal_node_id":"0.0-13.0-0.62","match_key":"a","participant_id":"24"},{"rt":null,"stimulus":"<p style=\"font-size: 48px;\">+</p>","key_press":null,"block":1,"trial_type":"html-keyboard-response","trial_index":301,"time_elapsed":3915571,"internal_node_id":"0.0-13.0-1.62","match_key":"a","participant_id":"24"},{"rt":524.5049999793991,"stimulus":"Images/gun_orig.png","key_press":76,"stim_onset":1582495580840,"block":1,"match_type":"non-match","image_category":"gun","sound_category":"rooster","audio_type":"sound","phase":"test","trial_type":"image-keyboard-response","trial_index":302,"time_elapsed":3916097,"internal_node_id":"0.0-13.0-2.62","match_key":"a","participant_id":"24","correct":true},{"rt":null,"stimulus":"Sounds/correct.wav","key_press":null,"block":1,"trial_type":"audio-keyboard-response","trial_index":303,"time_elapsed":3918100,"internal_node_id":"0.0-13.0-3.62","match_key":"a","participant_id":"24"},{"rt":null,"stimulus":"Sounds/frog_label.wav","key_press":null,"block":1,"trial_type":"audio-keyboard-response","trial_index":304,"time_elapsed":3918995,"internal_node_id":"0.0-13.0-0.63","match_key":"a","participant_id":"24"},{"rt":null,"stimulus":"<p style=\"font-size: 48px;\">+</p>","key_press":null,"block":1,"trial_type":"html-keyboard-response","trial_index":305,"time_elapsed":3919988,"internal_node_id":"0.0-13.0-1.63","match_key":"a","participant_id":"24"},{"rt":371.7250000918284,"stimulus":"Images/frog_orig.png","key_press":65,"stim_onset":1582495585256,"block":1,"match_type":"match","image_category":"frog","sound_category":"frog","audio_type":"label","phase":"test","trial_type":"image-keyboard-response","trial_index":306,"time_elapsed":3920361,"internal_node_id":"0.0-13.0-2.63","match_key":"a","participant_id":"24","correct":true},{"rt":null,"stimulus":"Sounds/correct.wav","key_press":null,"block":1,"trial_type":"audio-keyboard-response","trial_index":307,"time_elapsed":3922375,"internal_node_id":"0.0-13.0-3.63","match_key":"a","participant_id":"24"},{"rt":null,"stimulus":"Sounds/motorcycle_label.wav","key_press":null,"block":1,"trial_type":"audio-keyboard-response","trial_index":308,"time_elapsed":3923495,"internal_node_id":"0.0-13.0-0.64","match_key":"a","participant_id":"24"},{"rt":null,"stimulus":"<p style=\"font-size: 48px;\">+</p>","key_press":null,"block":1,"trial_type":"html-keyboard-response","trial_index":309,"time_elapsed":3924488,"internal_node_id":"0.0-13.0-1.64","match_key":"a","participant_id":"24"},{"rt":599.709999980405,"stimulus":"Images/motorcycle_orig.png","key_press":65,"stim_onset":1582495589756,"block":1,"match_type":"match","image_category":"motorcycle","sound_category":"motorcycle","audio_type":"label","phase":"test","trial_type":"image-keyboard-response","trial_index":310,"time_elapsed":3925089,"internal_node_id":"0.0-13.0-2.64","match_key":"a","participant_id":"24","correct":true},{"rt":null,"stimulus":"Sounds/correct.wav","key_press":null,"block":1,"trial_type":"audio-keyboard-response","trial_index":311,"time_elapsed":3927093,"internal_node_id":"0.0-13.0-3.64","match_key":"a","participant_id":"24"},{"rt":null,"stimulus":"Sounds/car_sound.wav","key_press":null,"block":1,"trial_type":"audio-keyboard-response","trial_index":312,"time_elapsed":3928175,"internal_node_id":"0.0-13.0-0.65","match_key":"a","participant_id":"24"},{"rt":null,"stimulus":"<p style=\"font-size: 48px;\">+</p>","key_press":null,"block":1,"trial_type":"html-keyboard-response","trial_index":313,"time_elapsed":3929172,"internal_node_id":"0.0-13.0-1.65","match_key":"a","participant_id":"24"},{"rt":476.7050000373274,"stimulus":"Images/car_3.png","key_press":65,"stim_onset":1582495594440,"block":1,"match_type":"match","image_category":"car","sound_category":"car","audio_type":"sound","phase":"test","trial_type":"image-keyboard-response","trial_index":314,"time_elapsed":3929649,"internal_node_id":"0.0-13.0-2.65","match_key":"a","participant_id":"24","correct":true},{"rt":null,"stimulus":"Sounds/correct.wav","key_press":null,"block":1,"trial_type":"audio-keyboard-response","trial_index":315,"time_elapsed":3931653,"internal_node_id":"0.0-13.0-3.65","match_key":"a","participant_id":"24"},{"rt":null,"stimulus":"Sounds/cat_sound.wav","key_press":null,"block":1,"trial_type":"audio-keyboard-response","trial_index":316,"time_elapsed":3932495,"internal_node_id":"0.0-13.0-0.66","match_key":"a","participant_id":"24"},{"rt":null,"stimulus":"<p style=\"font-size: 48px;\">+</p>","key_press":null,"block":1,"trial_type":"html-keyboard-response","trial_index":317,"time_elapsed":3933488,"internal_node_id":"0.0-13.0-1.66","match_key":"a","participant_id":"24"},{"rt":503.46999999601394,"stimulus":"Images/cat_2.png","key_press":65,"stim_onset":1582495598757,"block":1,"match_type":"match","image_category":"cat","sound_category":"cat","audio_type":"sound","phase":"test","trial_type":"image-keyboard-response","trial_index":318,"time_elapsed":3933993,"internal_node_id":"0.0-13.0-2.66","match_key":"a","participant_id":"24","correct":true},{"rt":null,"stimulus":"Sounds/correct.wav","key_press":null,"block":1,"trial_type":"audio-keyboard-response","trial_index":319,"time_elapsed":3936001,"internal_node_id":"0.0-13.0-3.66","match_key":"a","participant_id":"24"},{"rt":null,"stimulus":"Sounds/whistle_label.wav","key_press":null,"block":1,"trial_type":"audio-keyboard-response","trial_index":320,"time_elapsed":3936695,"internal_node_id":"0.0-13.0-0.67","match_key":"a","participant_id":"24"},{"rt":null,"stimulus":"<p style=\"font-size: 48px;\">+</p>","key_press":null,"block":1,"trial_type":"html-keyboard-response","trial_index":321,"time_elapsed":3937688,"internal_node_id":"0.0-13.0-1.67","match_key":"a","participant_id":"24"},{"rt":559.4800000544637,"stimulus":"Images/dog_cartoon.png","key_press":76,"stim_onset":1582495602957,"block":1,"match_type":"non-match","image_category":"dog","sound_category":"whistle","audio_type":"label","phase":"test","trial_type":"image-keyboard-response","trial_index":322,"time_elapsed":3938249,"internal_node_id":"0.0-13.0-2.67","match_key":"a","participant_id":"24","correct":true},{"rt":null,"stimulus":"Sounds/correct.wav","key_press":null,"block":1,"trial_type":"audio-keyboard-response","trial_index":323,"time_elapsed":3940264,"internal_node_id":"0.0-13.0-3.67","match_key":"a","participant_id":"24"},{"rt":null,"stimulus":"Sounds/dog_sound.wav","key_press":null,"block":1,"trial_type":"audio-keyboard-response","trial_index":324,"time_elapsed":3940975,"internal_node_id":"0.0-13.0-0.68","match_key":"a","participant_id":"24"},{"rt":null,"stimulus":"<p style=\"font-size: 48px;\">+</p>","key_press":null,"block":1,"trial_type":"html-keyboard-response","trial_index":325,"time_elapsed":3941972,"internal_node_id":"0.0-13.0-1.68","match_key":"a","participant_id":"24"},{"rt":444.4849999854341,"stimulus":"Images/dog_cartoon.png","key_press":76,"stim_onset":1582495607240,"block":1,"match_type":"match","image_category":"dog","sound_category":"dog","audio_type":"sound","phase":"test","trial_type":"image-keyboard-response","trial_index":326,"time_elapsed":3942417,"internal_node_id":"0.0-13.0-2.68","match_key":"a","participant_id":"24","correct":false},{"rt":null,"stimulus":"Sounds/incorrect.wav","key_press":null,"block":1,"trial_type":"audio-keyboard-response","trial_index":327,"time_elapsed":3944426,"internal_node_id":"0.0-13.0-3.68","match_key":"a","participant_id":"24"},{"rt":null,"stimulus":"Sounds/gun_label.wav","key_press":null,"block":1,"trial_type":"audio-keyboard-response","trial_index":328,"time_elapsed":3944995,"internal_node_id":"0.0-13.0-0.69","match_key":"a","participant_id":"24"},{"rt":null,"stimulus":"<p style=\"font-size: 48px;\">+</p>","key_press":null,"block":1,"trial_type":"html-keyboard-response","trial_index":329,"time_elapsed":3945988,"internal_node_id":"0.0-13.0-1.69","match_key":"a","participant_id":"24"},{"rt":715.4799998970702,"stimulus":"Images/whistle_cartoon.png","key_press":76,"stim_onset":1582495611257,"block":1,"match_type":"non-match","image_category":"whistle","sound_category":"gun","audio_type":"label","phase":"test","trial_type":"image-keyboard-response","trial_index":330,"time_elapsed":3946705,"internal_node_id":"0.0-13.0-2.69","match_key":"a","participant_id":"24","correct":true},{"rt":null,"stimulus":"Sounds/correct.wav","key_press":null,"block":1,"trial_type":"audio-keyboard-response","trial_index":331,"time_elapsed":3948716,"internal_node_id":"0.0-13.0-3.69","match_key":"a","participant_id":"24"},{"rt":null,"stimulus":"Sounds/rooster_label.wav","key_press":null,"block":1,"trial_type":"audio-keyboard-response","trial_index":332,"time_elapsed":3949415,"internal_node_id":"0.0-13.0-0.70","match_key":"a","participant_id":"24"},{"rt":null,"stimulus":"<p style=\"font-size: 48px;\">+</p>","key_press":null,"block":1,"trial_type":"html-keyboard-response","trial_index":333,"time_elapsed":3950405,"internal_node_id":"0.0-13.0-1.70","match_key":"a","participant_id":"24"},{"rt":418.73999999370426,"stimulus":"Images/rooster_1.png","key_press":65,"stim_onset":1582495615673,"block":1,"match_type":"match","image_category":"rooster","sound_category":"rooster","audio_type":"label","phase":"test","trial_type":"image-keyboard-response","trial_index":334,"time_elapsed":3950825,"internal_node_id":"0.0-13.0-2.70","match_key":"a","participant_id":"24","correct":true},{"rt":null,"stimulus":"Sounds/correct.wav","key_press":null,"block":1,"trial_type":"audio-keyboard-response","trial_index":335,"time_elapsed":3952840,"internal_node_id":"0.0-13.0-3.70","match_key":"a","participant_id":"24"},{"rt":null,"stimulus":"Sounds/dog_sound.wav","key_press":null,"block":1,"trial_type":"audio-keyboard-response","trial_index":336,"time_elapsed":3953535,"internal_node_id":"0.0-13.0-0.71","match_key":"a","participant_id":"24"},{"rt":null,"stimulus":"<p style=\"font-size: 48px;\">+</p>","key_press":null,"block":1,"trial_type":"html-keyboard-response","trial_index":337,"time_elapsed":3954539,"internal_node_id":"0.0-13.0-1.71","match_key":"a","participant_id":"24"},{"rt":557.6350000919774,"stimulus":"Images/car_cartoon.png","key_press":76,"stim_onset":1582495619807,"block":1,"match_type":"non-match","image_category":"car","sound_category":"dog","audio_type":"sound","phase":"test","trial_type":"image-keyboard-response","trial_index":338,"time_elapsed":3955097,"internal_node_id":"0.0-13.0-2.71","match_key":"a","participant_id":"24","correct":true},{"rt":null,"stimulus":"Sounds/correct.wav","key_press":null,"block":1,"trial_type":"audio-keyboard-response","trial_index":339,"time_elapsed":3957113,"internal_node_id":"0.0-13.0-3.71","match_key":"a","participant_id":"24"},{"rt":null,"stimulus":"Sounds/train_label.wav","key_press":null,"block":1,"trial_type":"audio-keyboard-response","trial_index":340,"time_elapsed":3958395,"internal_node_id":"0.0-13.0-0.72","match_key":"a","participant_id":"24"},{"rt":null,"stimulus":"<p style=\"font-size: 48px;\">+</p>","key_press":null,"block":1,"trial_type":"html-keyboard-response","trial_index":341,"time_elapsed":3959389,"internal_node_id":"0.0-13.0-1.72","match_key":"a","participant_id":"24"},{"rt":523.505000048317,"stimulus":"Images/train_3.png","key_press":65,"stim_onset":1582495624657,"block":1,"match_type":"match","image_category":"train","sound_category":"train","audio_type":"label","phase":"test","trial_type":"image-keyboard-response","trial_index":342,"time_elapsed":3959913,"internal_node_id":"0.0-13.0-2.72","match_key":"a","participant_id":"24","correct":true},{"rt":null,"stimulus":"Sounds/correct.wav","key_press":null,"block":1,"trial_type":"audio-keyboard-response","trial_index":343,"time_elapsed":3961930,"internal_node_id":"0.0-13.0-3.72","match_key":"a","participant_id":"24"},{"rt":null,"stimulus":"Sounds/frog_sound.wav","key_press":null,"block":1,"trial_type":"audio-keyboard-response","trial_index":344,"time_elapsed":3962835,"internal_node_id":"0.0-13.0-0.73","match_key":"a","participant_id":"24"},{"rt":null,"stimulus":"<p style=\"font-size: 48px;\">+</p>","key_press":null,"block":1,"trial_type":"html-keyboard-response","trial_index":345,"time_elapsed":3963839,"internal_node_id":"0.0-13.0-1.73","match_key":"a","participant_id":"24"},{"rt":537.3750000726432,"stimulus":"Images/frog_3.png","key_press":65,"stim_onset":1582495629107,"block":1,"match_type":"match","image_category":"frog","sound_category":"frog","audio_type":"sound","phase":"test","trial_type":"image-keyboard-response","trial_index":346,"time_elapsed":3964377,"internal_node_id":"0.0-13.0-2.73","match_key":"a","participant_id":"24","correct":true},{"rt":null,"stimulus":"Sounds/correct.wav","key_press":null,"block":1,"trial_type":"audio-keyboard-response","trial_index":347,"time_elapsed":3966385,"internal_node_id":"0.0-13.0-3.73","match_key":"a","participant_id":"24"},{"rt":null,"stimulus":"Sounds/cow_label.wav","key_press":null,"block":1,"trial_type":"audio-keyboard-response","trial_index":348,"time_elapsed":3967395,"internal_node_id":"0.0-13.0-0.74","match_key":"a","participant_id":"24"},{"rt":null,"stimulus":"<p style=\"font-size: 48px;\">+</p>","key_press":null,"block":1,"trial_type":"html-keyboard-response","trial_index":349,"time_elapsed":3968389,"internal_node_id":"0.0-13.0-1.74","match_key":"a","participant_id":"24"},{"rt":483.3349999971688,"stimulus":"Images/rooster_2.png","key_press":76,"stim_onset":1582495633657,"block":1,"match_type":"non-match","image_category":"rooster","sound_category":"cow","audio_type":"label","phase":"test","trial_type":"image-keyboard-response","trial_index":350,"time_elapsed":3968873,"internal_node_id":"0.0-13.0-2.74","match_key":"a","participant_id":"24","correct":true},{"rt":null,"stimulus":"Sounds/correct.wav","key_press":null,"block":1,"trial_type":"audio-keyboard-response","trial_index":351,"time_elapsed":3970887,"internal_node_id":"0.0-13.0-3.74","match_key":"a","participant_id":"24"},{"rt":null,"stimulus":"Sounds/dog_label.wav","key_press":null,"block":1,"trial_type":"audio-keyboard-response","trial_index":352,"time_elapsed":3971538,"internal_node_id":"0.0-13.0-0.75","match_key":"a","participant_id":"24"},{"rt":null,"stimulus":"<p style=\"font-size: 48px;\">+</p>","key_press":null,"block":1,"trial_type":"html-keyboard-response","trial_index":353,"time_elapsed":3972541,"internal_node_id":"0.0-13.0-1.75","match_key":"a","participant_id":"24"},{"rt":533.1849999492988,"stimulus":"Images/dog_orig.png","key_press":65,"stim_onset":1582495637809,"block":1,"match_type":"match","image_category":"dog","sound_category":"dog","audio_type":"label","phase":"test","trial_type":"image-keyboard-response","trial_index":354,"time_elapsed":3973075,"internal_node_id":"0.0-13.0-2.75","match_key":"a","participant_id":"24","correct":true},{"rt":null,"stimulus":"Sounds/correct.wav","key_press":null,"block":1,"trial_type":"audio-keyboard-response","trial_index":355,"time_elapsed":3975083,"internal_node_id":"0.0-13.0-3.75","match_key":"a","participant_id":"24"},{"rt":null,"stimulus":"Sounds/rooster_label.wav","key_press":null,"block":1,"trial_type":"audio-keyboard-response","trial_index":356,"time_elapsed":3975778,"internal_node_id":"0.0-13.0-0.76","match_key":"a","participant_id":"24"},{"rt":null,"stimulus":"<p style=\"font-size: 48px;\">+</p>","key_press":null,"block":1,"trial_type":"html-keyboard-response","trial_index":357,"time_elapsed":3976775,"internal_node_id":"0.0-13.0-1.76","match_key":"a","participant_id":"24"},{"rt":451.7700000433251,"stimulus":"Images/cow_orig.png","key_press":76,"stim_onset":1582495642043,"block":1,"match_type":"non-match","image_category":"cow","sound_category":"rooster","audio_type":"label","phase":"test","trial_type":"image-keyboard-response","trial_index":358,"time_elapsed":3977228,"internal_node_id":"0.0-13.0-2.76","match_key":"a","participant_id":"24","correct":true},{"rt":null,"stimulus":"Sounds/correct.wav","key_press":null,"block":1,"trial_type":"audio-keyboard-response","trial_index":359,"time_elapsed":3979245,"internal_node_id":"0.0-13.0-3.76","match_key":"a","participant_id":"24"},{"rt":null,"stimulus":"Sounds/dog_label.wav","key_press":null,"block":1,"trial_type":"audio-keyboard-response","trial_index":360,"time_elapsed":3979878,"internal_node_id":"0.0-13.0-0.77","match_key":"a","participant_id":"24"},{"rt":null,"stimulus":"<p style=\"font-size: 48px;\">+</p>","key_press":null,"block":1,"trial_type":"html-keyboard-response","trial_index":361,"time_elapsed":3980875,"internal_node_id":"0.0-13.0-1.77","match_key":"a","participant_id":"24"},{"rt":535.9750000061467,"stimulus":"Images/dog_1.png","key_press":65,"stim_onset":1582495646143,"block":1,"match_type":"match","image_category":"dog","sound_category":"dog","audio_type":"label","phase":"test","trial_type":"image-keyboard-response","trial_index":362,"time_elapsed":3981412,"internal_node_id":"0.0-13.0-2.77","match_key":"a","participant_id":"24","correct":true},{"rt":null,"stimulus":"Sounds/correct.wav","key_press":null,"block":1,"trial_type":"audio-keyboard-response","trial_index":363,"time_elapsed":3983417,"internal_node_id":"0.0-13.0-3.77","match_key":"a","participant_id":"24"},{"rt":null,"stimulus":"Sounds/car_label.wav","key_press":null,"block":1,"trial_type":"audio-keyboard-response","trial_index":364,"time_elapsed":3984498,"internal_node_id":"0.0-13.0-0.78","match_key":"a","participant_id":"24"},{"rt":null,"stimulus":"<p style=\"font-size: 48px;\">+</p>","key_press":null,"block":1,"trial_type":"html-keyboard-response","trial_index":365,"time_elapsed":3985491,"internal_node_id":"0.0-13.0-1.78","match_key":"a","participant_id":"24"},{"rt":462.9450000356883,"stimulus":"Images/car_orig.png","key_press":65,"stim_onset":1