"rt","responses","trial_type","trial_index","time_elapsed","internal_node_id","match_key","participant_id","stimulus","key_press","block","stim_onset","match_type","image_category","sound_category","audio_type","phase","correct"
"29961.04500000365","{""Q0"":""COGS219_2020_08""}","survey-text","0","30014","0.0-0.0","l","COGS219_2020_08","","","","","","","","","",""
"36556.305000092834","","html-keyboard-response","1","66572","0.0-1.0","l","COGS219_2020_08","<p>Use KEYBOARD 1 (match RIGHT)</p><p>Press MATCH to continue.</p>","76","","","","","","","",""
"2606001.845000079","","html-keyboard-response","2","2672250","0.0-2.0","l","COGS219_2020_08","<p>Welcome to the experiment.</p>","32","","","","","","","",""
"16536.525000003166","","html-keyboard-response","3","2688792","0.0-3.0","l","COGS219_2020_08","<p>Thank you for agreeing to participate in this study.</p><p>If during any part of the procedure you must stop for any reason, please inform the researcher that you do not wish to continue.</p>","32","","","","","","","",""
"20350.590000045486","","html-keyboard-response","4","2709144","0.0-4.0","l","COGS219_2020_08","<p>In this experiment, you will hear various words or sounds and see pictures of various animals and objects.</p><p>Most of the images will be of common everyday objects, such as cars, cats, cows, firearms, frogs, chickens, whistles, trains, motorcycles, and dogs.</p><p>Some of the images will be real-life stills, while others will be cartoons.</p>","32","","","","","","","",""
"16639.30999999866","","html-keyboard-response","5","2725784","0.0-5.0","l","COGS219_2020_08","<p>Sometimes, the word/sound will match the picture, for example you'll hear a meowing sound and see a cat.</p><p>Other times, the picture will not match the sound or word.</p><p>Your task is to decide as quickly as possible if the word/sound matches the picture or not. </p>","32","","","","","","","",""
"17134.42999997642","","html-keyboard-response","6","2742914","0.0-6.0","l","COGS219_2020_08","<p>For example, if you hear the word ""cat"" or hear a meowing sound, and then see a picture of a cat, you should press the MATCH key.</p><p> If the sound and image do not match, press the NOT-MATCH key to indicate that there is not a match.</p>","32","","","","","","","",""
"12607.099999906495","","html-keyboard-response","7","2755522","0.0-7.0","l","COGS219_2020_08","<p>If you make a mistake, you will hear a buzzing sound instead of a more pleasant sound.</p><p> Try to respond as quickly as possible, while making as few errors as possible. If you are making mistakes, you are probably rushing.</p>","32","","","","","","","",""
"11887.26999994833","","html-keyboard-response","8","2767410","0.0-8.0","l","COGS219_2020_08","<p>Please try to not move or blink your eyes during the presentation of the images. You can move and blink between images.</p><p>During the experiment there will be some breaks during which you can rest your eyes.</p>","32","","","","","","","",""
"23166.80499992799","","html-keyboard-response","9","2790578","0.0-9.0","l","COGS219_2020_08","<p>We will begin with 10 practice trials. Please let the experimenter know if you have any questions.</p>","32","","","","","","","",""
"null","","audio-keyboard-response","10","2792049","0.0-10.0-0.0","l","COGS219_2020_08","Sounds/cow_sound.wav","null","0","","","","","","",""
"null","","html-keyboard-response","11","2793038","0.0-10.0-1.0","l","COGS219_2020_08","<p style=""font-size: 48px;"">+</p>","null","0","","","","","","",""
"1185.8249999349937","","image-keyboard-response","12","2794226","0.0-10.0-2.0","l","COGS219_2020_08","Images/rooster_orig.png","65","0","1581547991975","non-match","rooster","cow","sound","practice","true"
"null","","audio-keyboard-response","13","2796231","0.0-10.0-3.0","l","COGS219_2020_08","Sounds/correct.wav","null","0","","","","","","",""
"null","","audio-keyboard-response","14","2796889","0.0-10.0-0.1","l","COGS219_2020_08","Sounds/dog_label.wav","null","0","","","","","","",""
"null","","html-keyboard-response","15","2797888","0.0-10.0-1.1","l","COGS219_2020_08","<p style=""font-size: 48px;"">+</p>","null","0","","","","","","",""
"704.5049999142066","","image-keyboard-response","16","2798594","0.0-10.0-2.1","l","COGS219_2020_08","Images/frog_1.png","65","0","1581547996824","non-match","frog","dog","label","practice","true"
"null","","audio-keyboard-response","17","2800600","0.0-10.0-3.1","l","COGS219_2020_08","Sounds/correct.wav","null","0","","","","","","",""
"null","","audio-keyboard-response","18","2801309","0.0-10.0-0.2","l","COGS219_2020_08","Sounds/rooster_sound.wav","null","0","","","","","","",""
"null","","html-keyboard-response","19","2802305","0.0-10.0-1.2","l","COGS219_2020_08","<p style=""font-size: 48px;"">+</p>","null","0","","","","","","",""
"1087.870000046678","","image-keyboard-response","20","2803401","0.0-10.0-2.2","l","COGS219_2020_08","Images/rooster_2.png","76","0","1581548001241","match","rooster","rooster","sound","practice","true"
"null","","audio-keyboard-response","21","2805413","0.0-10.0-3.2","l","COGS219_2020_08","Sounds/correct.wav","null","0","","","","","","",""
"null","","audio-keyboard-response","22","2805995","0.0-10.0-0.3","l","COGS219_2020_08","Sounds/gun_sound.wav","null","0","","","","","","",""
"null","","html-keyboard-response","23","2806995","0.0-10.0-1.3","l","COGS219_2020_08","<p style=""font-size: 48px;"">+</p>","null","0","","","","","","",""
"788.4400000330061","","image-keyboard-response","24","2807785","0.0-10.0-2.3","l","COGS219_2020_08","Images/gun_orig.png","76","0","1581548005931","match","gun","gun","sound","practice","true"
"null","","audio-keyboard-response","25","2809800","0.0-10.0-3.3","l","COGS219_2020_08","Sounds/correct.wav","null","0","","","","","","",""
"null","","audio-keyboard-response","26","2810876","0.0-10.0-0.4","l","COGS219_2020_08","Sounds/car_sound.wav","null","0","","","","","","",""
"null","","html-keyboard-response","27","2811878","0.0-10.0-1.4","l","COGS219_2020_08","<p style=""font-size: 48px;"">+</p>","null","0","","","","","","",""
"528.9699999848381","","image-keyboard-response","28","2812409","0.0-10.0-2.4","l","COGS219_2020_08","Images/whistle_2.png","65","0","1581548010815","non-match","whistle","car","sound","practice","true"
"null","","audio-keyboard-response","29","2814422","0.0-10.0-3.4","l","COGS219_2020_08","Sounds/correct.wav","null","0","","","","","","",""
"null","","audio-keyboard-response","30","2814996","0.0-10.0-0.5","l","COGS219_2020_08","Sounds/gun_label.wav","null","0","","","","","","",""
"null","","html-keyboard-response","31","2815995","0.0-10.0-1.5","l","COGS219_2020_08","<p style=""font-size: 48px;"">+</p>","null","0","","","","","","",""
"556.5749999368563","","image-keyboard-response","32","2816553","0.0-10.0-2.5","l","COGS219_2020_08","Images/gun_1.png","76","0","1581548014931","match","gun","gun","label","practice","true"
"null","","audio-keyboard-response","33","2818567","0.0-10.0-3.5","l","COGS219_2020_08","Sounds/correct.wav","null","0","","","","","","",""
"null","","audio-keyboard-response","34","2819395","0.0-10.0-0.6","l","COGS219_2020_08","Sounds/cat_label.wav","null","0","","","","","","",""
"null","","html-keyboard-response","35","2820395","0.0-10.0-1.6","l","COGS219_2020_08","<p style=""font-size: 48px;"">+</p>","null","0","","","","","","",""
"492.41999990772456","","image-keyboard-response","36","2820889","0.0-10.0-2.6","l","COGS219_2020_08","Images/frog_orig.png","65","0","1581548019331","non-match","frog","cat","label","practice","true"
"null","","audio-keyboard-response","37","2822899","0.0-10.0-3.6","l","COGS219_2020_08","Sounds/correct.wav","null","0","","","","","","",""
"null","","audio-keyboard-response","38","2823915","0.0-10.0-0.7","l","COGS219_2020_08","Sounds/cow_label.wav","null","0","","","","","","",""
"null","","html-keyboard-response","39","2824912","0.0-10.0-1.7","l","COGS219_2020_08","<p style=""font-size: 48px;"">+</p>","null","0","","","","","","",""
"599.4099999079481","","image-keyboard-response","40","2825513","0.0-10.0-2.7","l","COGS219_2020_08","Images/cow_1.png","76","0","1581548023848","match","cow","cow","label","practice","true"
"null","","audio-keyboard-response","41","2827517","0.0-10.0-3.7","l","COGS219_2020_08","Sounds/correct.wav","null","0","","","","","","",""
"null","","audio-keyboard-response","42","2828576","0.0-10.0-0.8","l","COGS219_2020_08","Sounds/car_sound.wav","null","0","","","","","","",""
"null","","html-keyboard-response","43","2829579","0.0-10.0-1.8","l","COGS219_2020_08","<p style=""font-size: 48px;"">+</p>","null","0","","","","","","",""
"749.0250000264496","","image-keyboard-response","44","2830329","0.0-10.0-2.8","l","COGS219_2020_08","Images/cow_2.png","76","0","1581548028515","non-match","cow","car","sound","practice","false"
"null","","audio-keyboard-response","45","2832336","0.0-10.0-3.8","l","COGS219_2020_08","Sounds/incorrect.wav","null","0","","","","","","",""
"null","","audio-keyboard-response","46","2833416","0.0-10.0-0.9","l","COGS219_2020_08","Sounds/car_label.wav","null","0","","","","","","",""
"null","","html-keyboard-response","47","2834412","0.0-10.0-1.9","l","COGS219_2020_08","<p style=""font-size: 48px;"">+</p>","null","0","","","","","","",""
"491.38000002130866","","image-keyboard-response","48","2834905","0.0-10.0-2.9","l","COGS219_2020_08","Images/car_1.png","76","0","1581548033348","match","car","car","label","practice","true"
"null","","audio-keyboard-response","49","2836922","0.0-10.0-3.9","l","COGS219_2020_08","Sounds/correct.wav","null","0","","","","","","",""
"25854.109999956563","","html-keyboard-response","50","2862777","0.0-11.0","l","COGS219_2020_08","<p>The rest of the experiment is divided into five blocks with 100 trials in each block. It will take about 45 minutes to complete.</p><p>The experimenter will be in the outer room and you can communicate with them through the monitor if you have any questions or wish to stop the experiment.</p>","32","","","","","","","",""
"4654.5449999393895","","html-keyboard-response","51","2867424","0.0-12.0","l","COGS219_2020_08","<p>Remember, please try not to move or blink your eyes during the presentation of the images. </p><p>At the end of the experiment, we will show you your scores on the task so you can see how you did.</p><p>The experiment will start on the next screen.</p>","32","","","","","","","",""
"null","","audio-keyboard-response","52","2870175","0.0-13.0-0.0","l","COGS219_2020_08","Sounds/dog_sound.wav","null","1","","","","","","",""
"null","","html-keyboard-response","53","2871170","0.0-13.0-1.0","l","COGS219_2020_08","<p style=""font-size: 48px;"">+</p>","null","1","","","","","","",""
"524.3999999947846","","image-keyboard-response","54","2871695","0.0-13.0-2.0","l","COGS219_2020_08","Images/dog_3.png","76","1","1581548070106","match","dog","dog","sound","test","true"
"null","","audio-keyboard-response","55","2873712","0.0-13.0-3.0","l","COGS219_2020_08","Sounds/correct.wav","null","1","","","","","","",""
"null","","audio-keyboard-response","56","2874556","0.0-13.0-0.1","l","COGS219_2020_08","Sounds/cat_label.wav","null","1","","","","","","",""
"null","","html-keyboard-response","57","2875553","0.0-13.0-1.1","l","COGS219_2020_08","<p style=""font-size: 48px;"">+</p>","null","1","","","","","","",""
"525.3250000532717","","image-keyboard-response","58","2876080","0.0-13.0-2.1","l","COGS219_2020_08","Images/train_3.png","65","1","1581548074489","non-match","train","cat","label","test","true"
"null","","audio-keyboard-response","59","2878084","0.0-13.0-3.1","l","COGS219_2020_08","Sounds/correct.wav","null","1","","","","","","",""
"null","","audio-keyboard-response","60","2879195","0.0-13.0-0.2","l","COGS219_2020_08","Sounds/motorcycle_sound.wav","null","1","","","","","","",""
"null","","html-keyboard-response","61","2880187","0.0-13.0-1.2","l","COGS219_2020_08","<p style=""font-size: 48px;"">+</p>","null","1","","","","","","",""
"899.7599999420345","","image-keyboard-response","62","2881087","0.0-13.0-2.2","l","COGS219_2020_08","Images/train_1.png","65","1","1581548079123","non-match","train","motorcycle","sound","test","true"
"null","","audio-keyboard-response","63","2883101","0.0-13.0-3.2","l","COGS219_2020_08","Sounds/correct.wav","null","1","","","","","","",""
"null","","audio-keyboard-response","64","2883795","0.0-13.0-0.3","l","COGS219_2020_08","Sounds/rooster_sound.wav","null","1","","","","","","",""
"null","","html-keyboard-response","65","2884787","0.0-13.0-1.3","l","COGS219_2020_08","<p style=""font-size: 48px;"">+</p>","null","1","","","","","","",""
"427.5500000221655","","image-keyboard-response","66","2885215","0.0-13.0-2.3","l","COGS219_2020_08","Images/rooster_cartoon.png","76","1","1581548083723","match","rooster","rooster","sound","test","true"
"null","","audio-keyboard-response","67","2887220","0.0-13.0-3.3","l","COGS219_2020_08","Sounds/correct.wav","null","1","","","","","","",""
"null","","audio-keyboard-response","68","2888295","0.0-13.0-0.4","l","COGS219_2020_08","Sounds/car_sound.wav","null","1","","","","","","",""
"null","","html-keyboard-response","69","2889303","0.0-13.0-1.4","l","COGS219_2020_08","<p style=""font-size: 48px;"">+</p>","null","1","","","","","","",""
"551.0300000896677","","image-keyboard-response","70","2889855","0.0-13.0-2.4","l","COGS219_2020_08","Images/rooster_3.png","65","1","1581548088240","non-match","rooster","car","sound","test","true"
"null","","audio-keyboard-response","71","2891862","0.0-13.0-3.4","l","COGS219_2020_08","Sounds/correct.wav","null","1","","","","","","",""
"null","","audio-keyboard-response","72","2892555","0.0-13.0-0.5","l","COGS219_2020_08","Sounds/dog_sound.wav","null","1","","","","","","",""
"null","","html-keyboard-response","73","2893553","0.0-13.0-1.5","l","COGS219_2020_08","<p style=""font-size: 48px;"">+</p>","null","1","","","","","","",""
"589.064999949187","","image-keyboard-response","74","2894143","0.0-13.0-2.5","l","COGS219_2020_08","Images/gun_2.png","65","1","1581548092490","non-match","gun","dog","sound","test","true"
"null","","audio-keyboard-response","75","2896158","0.0-13.0-3.5","l","COGS219_2020_08","Sounds/correct.wav","null","1","","","","","","",""
"null","","audio-keyboard-response","76","2897435","0.0-13.0-0.6","l","COGS219_2020_08","Sounds/train_label.wav","null","1","","","","","","",""
"null","","html-keyboard-response","77","2898437","0.0-13.0-1.6","l","COGS219_2020_08","<p style=""font-size: 48px;"">+</p>","null","1","","","","","","",""
"537.8000000491738","","image-keyboard-response","78","2898975","0.0-13.0-2.6","l","COGS219_2020_08","Images/motorcycle_2.png","65","1","1581548097373","non-match","motorcycle","train","label","test","true"
"null","","audio-keyboard-response","79","2900978","0.0-13.0-3.6","l","COGS219_2020_08","Sounds/correct.wav","null","1","","","","","","",""
"null","","audio-keyboard-response","80","2902055","0.0-13.0-0.7","l","COGS219_2020_08","Sounds/car_label.wav","null","1","","","","","","",""
"null","","html-keyboard-response","81","2903054","0.0-13.0-1.7","l","COGS219_2020_08","<p style=""font-size: 48px;"">+</p>","null","1","","","","","","",""
"656.9899999303743","","image-keyboard-response","82","2903712","0.0-13.0-2.7","l","COGS219_2020_08","Images/car_3.png","76","1","1581548101990","match","car","car","label","test","true"
"null","","audio-keyboard-response","83","2905721","0.0-13.0-3.7","l","COGS219_2020_08","Sounds/correct.wav","null","1","","","","","","",""
"null","","audio-keyboard-response","84","2906615","0.0-13.0-0.8","l","COGS219_2020_08","Sounds/frog_label.wav","null","1","","","","","","",""
"null","","html-keyboard-response","85","2907604","0.0-13.0-1.8","l","COGS219_2020_08","<p style=""font-size: 48px;"">+</p>","null","1","","","","","","",""
"442.73000000976026","","image-keyboard-response","86","2908047","0.0-13.0-2.8","l","COGS219_2020_08","Images/frog_cartoon.png","76","1","1581548106540","match","frog","frog","label","test","true"
"null","","audio-keyboard-response","87","2910053","0.0-13.0-3.8","l","COGS219_2020_08","Sounds/correct.wav","null","1","","","","","","",""
"null","","audio-keyboard-response","88","2911295","0.0-13.0-0.9","l","COGS219_2020_08","Sounds/train_label.wav","null","1","","","","","","",""
"null","","html-keyboard-response","89","2912287","0.0-13.0-1.9","l","COGS219_2020_08","<p style=""font-size: 48px;"">+</p>","null","1","","","","","","",""
"703.5350000951439","","image-keyboard-response","90","2912991","0.0-13.0-2.9","l","COGS219_2020_08","Images/car_1.png","65","1","1581548111223","non-match","car","train","label","test","true"
"null","","audio-keyboard-response","91","2915008","0.0-13.0-3.9","l","COGS219_2020_08","Sounds/correct.wav","null","1","","","","","","",""
"null","","audio-keyboard-response","92","2915715","0.0-13.0-0.10","l","COGS219_2020_08","Sounds/whistle_sound.wav","null","1","","","","","","",""
"null","","html-keyboard-response","93","2916704","0.0-13.0-1.10","l","COGS219_2020_08","<p style=""font-size: 48px;"">+</p>","null","1","","","","","","",""
"558.8249999564141","","image-keyboard-response","94","2917264","0.0-13.0-2.10","l","COGS219_2020_08","Images/whistle_orig.png","76","1","1581548115640","match","whistle","whistle","sound","test","true"
"null","","audio-keyboard-response","95","2919276","0.0-13.0-3.10","l","COGS219_2020_08","Sounds/correct.wav","null","1","","","","","","",""
"null","","audio-keyboard-response","96","2920115","0.0-13.0-0.11","l","COGS219_2020_08","Sounds/cat_sound.wav","null","1","","","","","","",""
"null","","html-keyboard-response","97","2921104","0.0-13.0-1.11","l","COGS219_2020_08","<p style=""font-size: 48px;"">+</p>","null","1","","","","","","",""
"590.4550000559539","","image-keyboard-response","98","2921695","0.0-13.0-2.11","l","COGS219_2020_08","Images/cat_orig.png","76","1","1581548120040","match","cat","cat","sound","test","true"
"null","","audio-keyboard-response","99","2923708","0.0-13.0-3.11","l","COGS219_2020_08","Sounds/correct.wav","null","1","","","","","","",""
"null","","audio-keyboard-response","100","2924295","0.0-13.0-0.12","l","COGS219_2020_08","Sounds/gun_label.wav","null","1","","","","","","",""
"null","","html-keyboard-response","101","2925287","0.0-13.0-1.12","l","COGS219_2020_08","<p style=""font-size: 48px;"">+</p>","null","1","","","","","","",""
"407.08499995525926","","image-keyboard-response","102","2925695","0.0-13.0-2.12","l","COGS219_2020_08","Images/gun_3.png","76","1","1581548124223","match","gun","gun","label","test","true"
"null","","audio-keyboard-response","103","2927713","0.0-13.0-3.12","l","COGS219_2020_08","Sounds/correct.wav","null","1","","","","","","",""
"null","","audio-keyboard-response","104","2928602","0.0-13.0-0.13","l","COGS219_2020_08","Sounds/frog_label.wav","null","1","","","","","","",""
"null","","html-keyboard-response","105","2929595","0.0-13.0-1.13","l","COGS219_2020_08","<p style=""font-size: 48px;"">+</p>","null","1","","","","","","",""
"747.4649999057874","","image-keyboard-response","106","2930343","0.0-13.0-2.13","l","COGS219_2020_08","Images/frog_3.png","76","1","1581548128531","match","frog","frog","label","test","true"
"null","","audio-keyboard-response","107","2932357","0.0-13.0-3.13","l","COGS219_2020_08","Sounds/correct.wav","null","1","","","","","","",""
"null","","audio-keyboard-response","108","2933502","0.0-13.0-0.14","l","COGS219_2020_08","Sounds/motorcycle_label.wav","null","1","","","","","","",""
"null","","html-keyboard-response","109","2934495","0.0-13.0-1.14","l","COGS219_2020_08","<p style=""font-size: 48px;"">+</p>","null","1","","","","","","",""
"615.4749999986961","","image-keyboard-response","110","2935111","0.0-13.0-2.14","l","COGS219_2020_08","Images/rooster_orig.png","65","1","1581548133431","non-match","rooster","motorcycle","label","test","true"
"null","","audio-keyboard-response","111","2937117","0.0-13.0-3.14","l","COGS219_2020_08","Sounds/correct.wav","null","1","","","","","","",""
"null","","audio-keyboard-response","112","2938222","0.0-13.0-0.15","l","COGS219_2020_08","Sounds/motorcycle_label.wav","null","1","","","","","","",""
"null","","html-keyboard-response","113","2939228","0.0-13.0-1.15","l","COGS219_2020_08","<p style=""font-size: 48px;"">+</p>","null","1","","","","","","",""
"681.4999999478459","","image-keyboard-response","114","2939911","0.0-13.0-2.15","l","COGS219_2020_08","Images/car_3.png","65","1","1581548138164","non-match","car","motorcycle","label","test","true"
"null","","audio-keyboard-response","115","2941925","0.0-13.0-3.15","l","COGS219_2020_08","Sounds/correct.wav","null","1","","","","","","",""
"null","","audio-keyboard-response","116","2943202","0.0-13.0-0.16","l","COGS219_2020_08","Sounds/train_label.wav","null","1","","","","","","",""
"null","","html-keyboard-response","117","2944195","0.0-13.0-1.16","l","COGS219_2020_08","<p style=""font-size: 48px;"">+</p>","null","1","","","","","","",""
"691.179999965243","","image-keyboard-response","118","2944887","0.0-13.0-2.16","l","COGS219_2020_08","Images/train_cartoon.png","76","1","1581548143131","match","train","train","label","test","true"
"null","","audio-keyboard-response","119","2946891","0.0-13.0-3.16","l","COGS219_2020_08","Sounds/correct.wav","null","1","","","","","","",""
"null","","audio-keyboard-response","120","2947582","0.0-13.0-0.17","l","COGS219_2020_08","Sounds/rooster_sound.wav","null","1","","","","","","",""
"null","","html-keyboard-response","121","2948578","0.0-13.0-1.17","l","COGS219_2020_08","<p style=""font-size: 48px;"">+</p>","null","1","","","","","","",""
"771.6449999716133","","image-keyboard-response","122","2949351","0.0-13.0-2.17","l","COGS219_2020_08","Images/motorcycle_cartoon.png","65","1","1581548147514","non-match","motorcycle","rooster","sound","test","true"
"null","","audio-keyboard-response","123","2951354","0.0-13.0-3.17","l","COGS219_2020_08","Sounds/correct.wav","null","1","","","","","","",""
"null","","audio-keyboard-response","124","2951942","0.0-13.0-0.18","l","COGS219_2020_08","Sounds/gun_sound.wav","null","1","","","","","","",""
"null","","html-keyboard-response","125","2952945","0.0-13.0-1.18","l","COGS219_2020_08","<p style=""font-size: 48px;"">+</p>","null","1","","","","","","",""
"500.8800000650808","","image-keyboard-response","126","2953447","0.0-13.0-2.18","l","COGS219_2020_08","Images/dog_2.png","65","1","1581548151881","non-match","dog","gun","sound","test","true"
"null","","audio-keyboard-response","127","2955456","0.0-13.0-3.18","l","COGS219_2020_08","Sounds/correct.wav","null","1","","","","","","",""
"null","","audio-keyboard-response","128","2956762","0.0-13.0-0.19","l","COGS219_2020_08","Sounds/train_sound.wav","null","1","","","","","","",""
"null","","html-keyboard-response","129","2957762","0.0-13.0-1.19","l","COGS219_2020_08","<p style=""font-size: 48px;"">+</p>","null","1","","","","","","",""
"451.70500001404434","","image-keyboard-response","130","2958215","0.0-13.0-2.19","l","COGS219_2020_08","Images/gun_3.png","65","1","1581548156698","non-match","gun","train","sound","test","true"
"null","","audio-keyboard-response","131","2960232","0.0-13.0-3.19","l","COGS219_2020_08","Sounds/correct.wav","null","1","","","","","","",""
"null","","audio-keyboard-response","132","2960942","0.0-13.0-0.20","l","COGS219_2020_08","Sounds/dog_sound.wav","null","1","","","","","","",""
"null","","html-keyboard-response","133","2961945","0.0-13.0-1.20","l","COGS219_2020_08","<p style=""font-size: 48px;"">+</p>","null","1","","","","","","",""
"573.0650000041351","","image-keyboard-response","134","2962519","0.0-13.0-2.20","l","COGS219_2020_08","Images/frog_2.png","65","1","1581548160881","non-match","frog","dog","sound","test","true"
"null","","audio-keyboard-response","135","2964533","0.0-13.0-3.20","l","COGS219_2020_08","Sounds/correct.wav","null","1","","","","","","",""
"null","","audio-keyboard-response","136","2965222","0.0-13.0-0.21","l","COGS219_2020_08","Sounds/whistle_sound.wav","null","1","","","","","","",""
"null","","html-keyboard-response","137","2966212","0.0-13.0-1.21","l","COGS219_2020_08","<p style=""font-size: 48px;"">+</p>","null","1","","","","","","",""
"529.880000045523","","image-keyboard-response","138","2966743","0.0-13.0-2.21","l","COGS219_2020_08","Images/whistle_cartoon.png","76","1","1581548165148","match","whistle","whistle","sound","test","true"
"null","","audio-keyboard-response","139","2968753","0.0-13.0-3.21","l","COGS219_2020_08","Sounds/correct.wav","null","1","","","","","","",""
"null","","audio-keyboard-response","140","2969422","0.0-13.0-0.22","l","COGS219_2020_08","Sounds/whistle_sound.wav","null","1","","","","","","",""
"null","","html-keyboard-response","141","2970429","0.0-13.0-1.22","l","COGS219_2020_08","<p style=""font-size: 48px;"">+</p>","null","1","","","","","","",""
"585.3900000220165","","image-keyboard-response","142","2971015","0.0-13.0-2.22","l","COGS219_2020_08","Images/motorcycle_3.png","65","1","1581548169364","non-match","motorcycle","whistle","sound","test","true"
"null","","audio-keyboard-response","143","2973032","0.0-13.0-3.22","l","COGS219_2020_08","Sounds/correct.wav","null","1","","","","","","",""
"null","","audio-keyboard-response","144","2974042","0.0-13.0-0.23","l","COGS219_2020_08","Sounds/cow_sound.wav","null","1","","","","","","",""
"null","","html-keyboard-response","145","2975045","0.0-13.0-1.23","l","COGS219_2020_08","<p style=""font-size: 48px;"">+</p>","null","1","","","","","","",""
"432.68999992869794","","image-keyboard-response","146","2975479","0.0-13.0-2.23","l","COGS219_2020_08","Images/cow_2.png","76","1","1581548173981","match","cow","cow","sound","test","true"
"null","","audio-keyboard-response","147","2977494","0.0-13.0-3.23","l","COGS219_2020_08","Sounds/correct.wav","null","1","","","","","","",""
"null","","audio-keyboard-response","148","2978062","0.0-13.0-0.24","l","COGS219_2020_08","Sounds/gun_label.wav","null","1","","","","","","",""
"null","","html-keyboard-response","149","2979062","0.0-13.0-1.24","l","COGS219_2020_08","<p style=""font-size: 48px;"">+</p>","null","1","","","","","","",""
"464.10500002093613","","image-keyboard-response","150","2979527","0.0-13.0-2.24","l","COGS219_2020_08","Images/car_cartoon.png","65","1","1581548177998","non-match","car","gun","label","test","true"
"null","","audio-keyboard-response","151","2981543","0.0-13.0-3.24","l","COGS219_2020_08","Sounds/correct.wav","null","1","","","","","","",""
"null","","audio-keyboard-response","152","2982122","0.0-13.0-0.25","l","COGS219_2020_08","Sounds/gun_sound.wav","null","1","","","","","","",""
"null","","html-keyboard-response","153","2983112","0.0-13.0-1.25","l","COGS219_2020_08","<p style=""font-size: 48px;"">+</p>","null","1","","","","","","",""
"654.2149999877438","","image-keyboard-response","154","2983767","0.0-13.0-2.25","l","COGS219_2020_08","Images/train_cartoon.png","65","1","1581548182048","non-match","train","gun","sound","test","true"
"null","","audio-keyboard-response","155","2985778","0.0-13.0-3.25","l","COGS219_2020_08","Sounds/correct.wav","null","1","","","","","","",""
"null","","audio-keyboard-response","156","2986682","0.0-13.0-0.26","l","COGS219_2020_08","Sounds/frog_label.wav","null","1","","","","","","",""
"null","","html-keyboard-response","157","2987679","0.0-13.0-1.26","l","COGS219_2020_08","<p style=""font-size: 48px;"">+</p>","null","1","","","","","","",""
"839.2150000436231","","image-keyboard-response","158","2988515","0.0-13.0-2.26","l","COGS219_2020_08","Images/frog_orig.png","76","1","1581548186615","match","frog","frog","label","test","true"
"null","","audio-keyboard-response","159","2990528","0.0-13.0-3.26","l","COGS219_2020_08","Sounds/correct.wav","null","1","","","","","","",""
"null","","audio-keyboard-response","160","2991819","0.0-13.0-0.27","l","COGS219_2020_08","Sounds/train_sound.wav","null","1","","","","","","",""
"null","","html-keyboard-response","161","2992808","0.0-13.0-1.27","l","COGS219_2020_08","<p style=""font-size: 48px;"">+</p>","null","1","","","","","","",""
"458.07500008959323","","image-keyboard-response","162","2993267","0.0-13.0-2.27","l","COGS219_2020_08","Images/train_2.png","76","1","1581548191744","match","train","train","sound","test","true"
"null","","audio-keyboard-response","163","2995273","0.0-13.0-3.27","l","COGS219_2020_08","Sounds/correct.wav","null","1","","","","","","",""
"null","","audio-keyboard-response","164","2996399","0.0-13.0-0.28","l","COGS219_2020_08","Sounds/motorcycle_sound.wav","null","1","","","","","","",""
"null","","html-keyboard-response","165","2997392","0.0-13.0-1.28","l","COGS219_2020_08","<p style=""font-size: 48px;"">+</p>","null","1","","","","","","",""
"466.72000002581626","","image-keyboard-response","166","2997859","0.0-13.0-2.28","l","COGS219_2020_08","Images/motorcycle_1.png","76","1","1581548196328","match","motorcycle","motorcycle","sound","test","true"
"null","","audio-keyboard-response","167","2999865","0.0-13.0-3.28","l","COGS219_2020_08","Sounds/correct.wav","null","1","","","","","","",""
"null","","audio-keyboard-response","168","3000559","0.0-13.0-0.29","l","COGS219_2020_08","Sounds/whistle_sound.wav","null","1","","","","","","",""
"null","","html-keyboard-response","169","3001558","0.0-13.0-1.29","l","COGS219_2020_08","<p style=""font-size: 48px;"">+</p>","null","1","","","","","","",""
"1099.8499999986961","","image-keyboard-response","170","3002659","0.0-13.0-2.29","l","COGS219_2020_08","Images/whistle_1.png","76","1","1581548200494","match","whistle","whistle","sound","test","true"
"null","","audio-keyboard-response","171","3004674","0.0-13.0-3.29","l","COGS219_2020_08","Sounds/correct.wav","null","1","","","","","","",""
"null","","audio-keyboard-response","172","3005759","0.0-13.0-0.30","l","COGS219_2020_08","Sounds/car_sound.wav","null","1","","","","","","",""
"null","","html-keyboard-response","173","3006759","0.0-13.0-1.30","l","COGS219_2020_08","<p style=""font-size: 48px;"">+</p>","null","1","","","","","","",""
"491.65500001981854","","image-keyboard-response","174","3007251","0.0-13.0-2.30","l","COGS219_2020_08","Images/car_2.png","76","1","1581548205695","match","car","car","sound","test","true"
"null","","audio-keyboard-response","175","3009261","0.0-13.0-3.30","l","COGS219_2020_08","Sounds/correct.wav","null","1","","","","","","",""
"null","","audio-keyboard-response","176","3009839","0.0-13.0-0.31","l","COGS219_2020_08","Sounds/gun_sound.wav","null","1","","","","","","",""
"null","","html-keyboard-response","177","3010842","0.0-13.0-1.31","l","COGS219_2020_08","<p style=""font-size: 48px;"">+</p>","null","1","","","","","","",""
"696.4849999640137","","image-keyboard-response","178","3011539","0.0-13.0-2.31","l","COGS219_2020_08","Images/whistle_1.png","65","1","1581548209778","non-match","whistle","gun","sound","test","true"
"null","","audio-keyboard-response","179","3013555","0.0-13.0-3.31","l","COGS219_2020_08","Sounds/correct.wav","null","1","","","","","","",""
"null","","audio-keyboard-response","180","3014259","0.0-13.0-0.32","l","COGS219_2020_08","Sounds/rooster_label.wav","null","1","","","","","","",""
"null","","html-keyboard-response","181","3015258","0.0-13.0-1.32","l","COGS219_2020_08","<p style=""font-size: 48px;"">+</p>","null","1","","","","","","",""
"423.76999999396503","","image-keyboard-response","182","3015683","0.0-13.0-2.32","l","COGS219_2020_08","Images/gun_1.png","65","1","1581548214195","non-match","gun","rooster","label","test","true"
"null","","audio-keyboard-response","183","3017695","0.0-13.0-3.32","l","COGS219_2020_08","Sounds/correct.wav","null","1","","","","","","",""
"null","","audio-keyboard-response","184","3018759","0.0-13.0-0.33","l","COGS219_2020_08","Sounds/car_label.wav","null","1","","","","","","",""
"null","","html-keyboard-response","185","3019758","0.0-13.0-1.33","l","COGS219_2020_08","<p style=""font-size: 48px;"">+</p>","null","1","","","","","","",""
"531.8899999838322","","image-keyboard-response","186","3020291","0.0-13.0-2.33","l","COGS219_2020_08","Images/motorcycle_1.png","65","1","1581548218695","non-match","motorcycle","car","label","test","true"
"null","","audio-keyboard-response","187","3022302","0.0-13.0-3.33","l","COGS219_2020_08","Sounds/correct.wav","null","1","","","","","","",""
"null","","audio-keyboard-response","188","3022959","0.0-13.0-0.34","l","COGS219_2020_08","Sounds/dog_label.wav","null","1","","","","","","",""
"null","","html-keyboard-response","189","3023958","0.0-13.0-1.34","l","COGS219_2020_08","<p style=""font-size: 48px;"">+</p>","null","1","","","","","","",""
"506.4299999503419","","image-keyboard-response","190","3024467","0.0-13.0-2.34","l","COGS219_2020_08","Images/dog_1.png","76","1","1581548222895","match","dog","dog","label","test","true"
"null","","audio-keyboard-response","191","3026485","0.0-13.0-3.34","l","COGS219_2020_08","Sounds/correct.wav","null","1","","","","","","",""
"null","","audio-keyboard-response","192","3027179","0.0-13.0-0.35","l","COGS219_2020_08","Sounds/whistle_sound.wav","null","1","","","","","","",""
"null","","html-keyboard-response","193","3028175","0.0-13.0-1.35","l","COGS219_2020_08","<p style=""font-size: 48px;"">+</p>","null","1","","","","","","",""
"594.8749999515712","","image-keyboard-response","194","3028771","0.0-13.0-2.35","l","COGS219_2020_08","Images/gun_orig.png","65","1","1581548227111","non-match","gun","whistle","sound","test","true"
"null","","audio-keyboard-response","195","3030781","0.0-13.0-3.35","l","COGS219_2020_08","Sounds/correct.wav","null","1","","","","","","",""
"null","","audio-keyboard-response","196","3031679","0.0-13.0-0.36","l","COGS219_2020_08","Sounds/frog_label.wav","null","1","","","","","","",""
"null","","html-keyboard-response","197","3032675","0.0-13.0-1.36","l","COGS219_2020_08","<p style=""font-size: 48px;"">+</p>","null","1","","","","","","",""
"990.9800000023097","","image-keyboard-response","198","3033667","0.0-13.0-2.36","l","COGS219_2020_08","Images/frog_2.png","76","1","1581548231612","match","frog","frog","label","test","true"
"null","","audio-keyboard-response","199","3035682","0.0-13.0-3.36","l","COGS219_2020_08","Sounds/correct.wav","null","1","","","","","","",""
"null","","audio-keyboard-response","200","3036699","0.0-13.0-0.37","l","COGS219_2020_08","Sounds/cow_sound.wav","null","1","","","","","","",""
"null","","html-keyboard-response","201","3037692","0.0-13.0-1.37","l","COGS219_2020_08","<p style=""font-size: 48px;"">+</p>","null","1","","","","","","",""
"582.4700000230223","","image-keyboard-response","202","3038276","0.0-13.0-2.37","l","COGS219_2020_08","Images/train_orig.png","65","1","1581548236628","non-match","train","cow","sound","test","true"
"null","","audio-keyboard-response","203","3040281","0.0-13.0-3.37","l","COGS219_2020_08","Sounds/correct.wav","null","1","","","","","","",""
"null","","audio-keyboard-response","204","3041119","0.0-13.0-0.38","l","COGS219_2020_08","Sounds/cat_sound.wav","null","1","","","","","","",""
"null","","html-keyboard-response","205","3042109","0.0-13.0-1.38","l","COGS219_2020_08","<p style=""font-size: 48px;"">+</p>","null","1","","","","","","",""
"437.389999977313","","image-keyboard-response","206","3042547","0.0-13.0-2.38","l","COGS219_2020_08","Images/cat_cartoon.png","76","1","1581548241045","match","cat","cat","sound","test","true"
"null","","audio-keyboard-response","207","3044558","0.0-13.0-3.38","l","COGS219_2020_08","Sounds/correct.wav","null","1","","","","","","",""
"null","","audio-keyboard-response","208","3045139","0.0-13.0-0.39","l","COGS219_2020_08","Sounds/gun_label.wav","null","1","","","","","","",""
"null","","html-keyboard-response","209","3046142","0.0-13.0-1.39","l","COGS219_2020_08","<p style=""font-size: 48px;"">+</p>","null","1","","","","","","",""
"531.955000013113","","image-keyboard-response","210","3046675","0.0-13.0-2.39","l","COGS219_2020_08","Images/gun_2.png","76","1","1581548245078","match","gun","gun","label","test","true"
"null","","audio-keyboard-response","211","3048681","0.0-13.0-3.39","l","COGS219_2020_08","Sounds/correct.wav","null","1","","","","","","",""
"null","","audio-keyboard-response","212","3049396","0.0-13.0-0.40","l","COGS219_2020_08","Sounds/dog_sound.wav","null","1","","","","","","",""
"null","","html-keyboard-response","213","3050389","0.0-13.0-1.40","l","COGS219_2020_08","<p style=""font-size: 48px;"">+</p>","null","1","","","","","","",""
"490.1850000023842","","image-keyboard-response","214","3050880","0.0-13.0-2.40","l","COGS219_2020_08","Images/train_2.png","65","1","1581548249325","non-match","train","dog","sound","test","true"
"null","","audio-keyboard-response","215","3052884","0.0-13.0-3.40","l","COGS219_2020_08","Sounds/correct.wav","null","1","","","","","","",""
"null","","audio-keyboard-response","216","3053435","0.0-13.0-0.41","l","COGS219_2020_08","Sounds/gun_label.wav","null","1","","","","","","",""
"null","","html-keyboard-response","217","3054439","0.0-13.0-1.41","l","COGS219_2020_08","<p style=""font-size: 48px;"">+</p>","null","1","","","","","","",""
"439.8899999214336","","image-keyboard-response","218","3054880","0.0-13.0-2.41","l","COGS219_2020_08","Images/gun_1.png","76","1","1581548253375","match","gun","gun","label","test","true"
"null","","audio-keyboard-response","219","3056888","0.0-13.0-3.41","l","COGS219_2020_08","Sounds/correct.wav","null","1","","","","","","",""
"null","","audio-keyboard-response","220","3057695","0.0-13.0-0.42","l","COGS219_2020_08","Sounds/cat_sound.wav","null","1","","","","","","",""
"null","","html-keyboard-response","221","3058689","0.0-13.0-1.42","l","COGS219_2020_08","<p style=""font-size: 48px;"">+</p>","null","1","","","","","","",""
"509.8549999529496","","image-keyboard-response","222","3059200","0.0-13.0-2.42","l","COGS219_2020_08","Images/car_2.png","65","1","1581548257625","non-match","car","cat","sound","test","true"
"null","","audio-keyboard-response","223","3061216","0.0-13.0-3.42","l","COGS219_2020_08","Sounds/correct.wav","null","1","","","","","","",""
"null","","audio-keyboard-response","224","3061916","0.0-13.0-0.43","l","COGS219_2020_08","Sounds/whistle_sound.wav","null","1","","","","","","",""
"null","","html-keyboard-response","225","3062906","0.0-13.0-1.43","l","COGS219_2020_08","<p style=""font-size: 48px;"">+</p>","null","1","","","","","","",""
"613.6299999197945","","image-keyboard-response","226","3063520","0.0-13.0-2.43","l","COGS219_2020_08","Images/whistle_2.png","76","1","1581548261842","match","whistle","whistle","sound","test","true"
"null","","audio-keyboard-response","227","3065526","0.0-13.0-3.43","l","COGS219_2020_08","Sounds/correct.wav","null","1","","","","","","",""
"null","","audio-keyboard-response","228","3066595","0.0-13.0-0.44","l","COGS219_2020_08","Sounds/car_label.wav","null","1","","","","","","",""
"null","","html-keyboard-response","229","3067589","0.0-13.0-1.44","l","COGS219_2020_08","<p style=""font-size: 48px;"">+</p>","null","1","","","","","","",""
"505.8450000360608","","image-keyboard-response","230","3068096","0.0-13.0-2.44","l","COGS219_2020_08","Images/cat_orig.png","65","1","1581548266525","non-match","cat","car","label","test","true"
"null","","audio-keyboard-response","231","3070101","0.0-13.0-3.44","l","COGS219_2020_08","Sounds/correct.wav","null","1","","","","","","",""
"null","","audio-keyboard-response","232","3071215","0.0-13.0-0.45","l","COGS219_2020_08","Sounds/motorcycle_sound.wav","null","1","","","","","","",""
"null","","html-keyboard-response","233","3072206","0.0-13.0-1.45","l","COGS219_2020_08","<p style=""font-size: 48px;"">+</p>","null","1","","","","","","",""
"479.6250000363216","","image-keyboard-response","234","3072688","0.0-13.0-2.45","l","COGS219_2020_08","Images/motorcycle_3.png","76","1","1581548271142","match","motorcycle","motorcycle","sound","test","true"
"null","","audio-keyboard-response","235","3074695","0.0-13.0-3.45","l","COGS219_2020_08","Sounds/correct.wav","null","1","","","","","","",""
"null","","audio-keyboard-response","236","3075715","0.0-13.0-0.46","l","COGS219_2020_08","Sounds/cow_sound.wav","null","1","","","","","","",""
"null","","html-keyboard-response","237","3076706","0.0-13.0-1.46","l","COGS219_2020_08","<p style=""font-size: 48px;"">+</p>","null","1","","","","","","",""
"717.4050000030547","","image-keyboard-response","238","3077424","0.0-13.0-2.46","l","COGS219_2020_08","Images/dog_cartoon.png","65","1","1581548275642","non-match","dog","cow","sound","test","true"
"null","","audio-keyboard-response","239","3079436","0.0-13.0-3.46","l","COGS219_2020_08","Sounds/correct.wav","null","1","","","","","","",""
"null","","audio-keyboard-response","240","3080455","0.0-13.0-0.47","l","COGS219_2020_08","Sounds/cow_label.wav","null","1","","","","","","",""
"null","","html-keyboard-response","241","3081456","0.0-13.0-1.47","l","COGS219_2020_08","<p style=""font-size: 48px;"">+</p>","null","1","","","","","","",""
"782.9650000203401","","image-keyboard-response","242","3082240","0.0-13.0-2.47","l","COGS219_2020_08","Images/cow_3.png","76","1","1581548280392","match","cow","cow","label","test","true"
"null","","audio-keyboard-response","243","3084246","0.0-13.0-3.47","l","COGS219_2020_08","Sounds/correct.wav","null","1","","","","","","",""
"null","","audio-keyboard-response","244","3085235","0.0-13.0-0.48","l","COGS219_2020_08","Sounds/cow_sound.wav","null","1","","","","","","",""
"null","","html-keyboard-response","245","3086240","0.0-13.0-1.48","l","COGS219_2020_08","<p style=""font-size: 48px;"">+</p>","null","1","","","","","","",""
"687.2849999926984","","image-keyboard-response","246","3086928","0.0-13.0-2.48","l","COGS219_2020_08","Images/cow_cartoon.png","76","1","1581548285175","match","cow","cow","sound","test","true"
"null","","audio-keyboard-response","247","3088936","0.0-13.0-3.48","l","COGS219_2020_08","Sounds/correct.wav","null","1","","","","","","",""
"null","","audio-keyboard-response","248","3089835","0.0-13.0-0.49","l","COGS219_2020_08","Sounds/frog_sound.wav","null","1","","","","","","",""
"null","","html-keyboard-response","249","3090840","0.0-13.0-1.49","l","COGS219_2020_08","<p style=""font-size: 48px;"">+</p>","null","1","","","","","","",""
"487.42500005755574","","image-keyboard-response","250","3091328","0.0-13.0-2.49","l","COGS219_2020_08","Images/cat_cartoon.png","65","1","1581548289775","non-match","cat","frog","sound","test","true"
"null","","audio-keyboard-response","251","3093334","0.0-13.0-3.49","l","COGS219_2020_08","Sounds/correct.wav","null","1","","","","","","",""
"null","","audio-keyboard-response","252","3094235","0.0-13.0-0.50","l","COGS219_2020_08","Sounds/frog_sound.wav","null","1","","","","","","",""
"null","","html-keyboard-response","253","3095240","0.0-13.0-1.50","l","COGS219_2020_08","<p style=""font-size: 48px;"">+</p>","null","1","","","","","","",""
"439.27000008989125","","image-keyboard-response","254","3095680","0.0-13.0-2.50","l","COGS219_2020_08","Images/frog_1.png","76","1","1581548294176","match","frog","frog","sound","test","true"
"null","","audio-keyboard-response","255","3097687","0.0-13.0-3.50","l","COGS219_2020_08","Sounds/correct.wav","null","1","","","","","","",""
"null","","audio-keyboard-response","256","3098395","0.0-13.0-0.51","l","COGS219_2020_08","Sounds/rooster_sound.wav","null","1","","","","","","",""
"null","","html-keyboard-response","257","3099390","0.0-13.0-1.51","l","COGS219_2020_08","<p style=""font-size: 48px;"">+</p>","null","1","","","","","","",""
"593.3900000527501","","image-keyboard-response","258","3099984","0.0-13.0-2.51","l","COGS219_2020_08","Images/cow_2.png","65","1","1581548298326","non-match","cow","rooster","sound","test","true"
"null","","audio-keyboard-response","259","3101994","0.0-13.0-3.51","l","COGS219_2020_08","Sounds/correct.wav","null","1","","","","","","",""
"null","","audio-keyboard-response","260","3102835","0.0-13.0-0.52","l","COGS219_2020_08","Sounds/cat_label.wav","null","1","","","","","","",""
"null","","html-keyboard-response","261","3103840","0.0-13.0-1.52","l","COGS219_2020_08","<p style=""font-size: 48px;"">+</p>","null","1","","","","","","",""
"447.3299999954179","","image-keyboard-response","262","3104288","0.0-13.0-2.52","l","COGS219_2020_08","Images/cat_1.png","76","1","1581548302776","match","cat","cat","label","test","true"
"null","","audio-keyboard-response","263","3106305","0.0-13.0-3.52","l","COGS219_2020_08","Sounds/correct.wav","null","1","","","","","","",""
"null","","audio-keyboard-response","264","3106996","0.0-13.0-0.53","l","COGS219_2020_08","Sounds/rooster_label.wav","null","1","","","","","","",""
"null","","html-keyboard-response","265","3107990","0.0-13.0-1.53","l","COGS219_2020_08","<p style=""font-size: 48px;"">+</p>","null","1","","","","","","",""
"569.2900000140071","","image-keyboard-response","266","3108560","0.0-13.0-2.53","l","COGS219_2020_08","Images/cat_1.png","65","1","1581548306926","non-match","cat","rooster","label","test","true"
"null","","audio-keyboard-response","267","3110560","0.0-13.0-3.53","l","COGS219_2020_08","Sounds/correct.wav","null","1","","","","","","",""
"null","","audio-keyboard-response","268","3111832","0.0-13.0-0.54","l","COGS219_2020_08","Sounds/train_label.wav","null","1","","","","","","",""
"null","","html-keyboard-response","269","3112836","0.0-13.0-1.54","l","COGS219_2020_08","<p style=""font-size: 48px;"">+</p>","null","1","","","","","","",""
"455.2850000327453","","image-keyboard-response","270","3113293","0.0-13.0-2.54","l","COGS219_2020_08","Images/train_3.png","76","1","1581548311772","match","train","train","label","test","true"
"null","","audio-keyboard-response","271","3115300","0.0-13.0-3.54","l","COGS219_2020_08","Sounds/correct.wav","null","1","","","","","","",""
"null","","audio-keyboard-response","272","3116372","0.0-13.0-0.55","l","COGS219_2020_08","Sounds/car_sound.wav","null","1","","","","","","",""
"null","","html-keyboard-response","273","3117369","0.0-13.0-1.55","l","COGS219_2020_08","<p style=""font-size: 48px;"">+</p>","null","1","","","","","","",""
"720.8850000752136","","image-keyboard-response","274","3118093","0.0-13.0-2.55","l","COGS219_2020_08","Images/car_orig.png","76","1","1581548316306","match","car","car","sound","test","true"
"null","","audio-keyboard-response","275","3120098","0.0-13.0-3.55","l","COGS219_2020_08","Sounds/correct.wav","null","1","","","","","","",""
"null","","audio-keyboard-response","276","3120772","0.0-13.0-0.56","l","COGS219_2020_08","Sounds/rooster_label.wav","null","1","","","","","","",""
"null","","html-keyboard-response","277","3121770","0.0-13.0-1.56","l","COGS219_2020_08","<p style=""font-size: 48px;"">+</p>","null","1","","","","","","",""
"513.8099999167025","","image-keyboard-response","278","3122284","0.0-13.0-2.56","l","COGS219_2020_08","Images/whistle_2.png","65","1","1581548320706","non-match","whistle","rooster","label","test","true"
"null","","audio-keyboard-response","279","3124296","0.0-13.0-3.56","l","COGS219_2020_08","Sounds/correct.wav","null","1","","","","","","",""
"null","","audio-keyboard-response","280","3125552","0.0-13.0-0.57","l","COGS219_2020_08","Sounds/train_label.wav","null","1","","","","","","",""
"null","","html-keyboard-response","281","3126569","0.0-13.0-1.57","l","COGS219_2020_08","<p style=""font-size: 48px;"">+</p>","null","1","","","","","","",""
"450.0849999021739","","image-keyboard-response","282","3127021","0.0-13.0-2.57","l","COGS219_2020_08","Images/train_orig.png","76","1","1581548325506","match","train","train","label","test","true"
"null","","audio-keyboard-response","283","3129032","0.0-13.0-3.57","l","COGS219_2020_08","Sounds/correct.wav","null","1","","","","","","",""
"null","","audio-keyboard-response","284","3130052","0.0-13.0-0.58","l","COGS219_2020_08","Sounds/cow_label.wav","null","1","","","","","","",""
"null","","html-keyboard-response","285","3131070","0.0-13.0-1.58","l","COGS219_2020_08","<p style=""font-size: 48px;"">+</p>","null","1","","","","","","",""
"541.8800000334159","","image-keyboard-response","286","3131613","0.0-13.0-2.58","l","COGS219_2020_08","Images/cat_2.png","76","1","1581548330006","non-match","cat","cow","label","test","false"
"null","","audio-keyboard-response","287","3133625","0.0-13.0-3.58","l","COGS219_2020_08","Sounds/incorrect.wav","null","1","","","","","","",""
"null","","audio-keyboard-response","288","3134472","0.0-13.0-0.59","l","COGS219_2020_08","Sounds/cat_sound.wav","null","1","","","","","","",""
"null","","html-keyboard-response","289","3135470","0.0-13.0-1.59","l","COGS219_2020_08","<p style=""font-size: 48px;"">+</p>","null","1","","","","","","",""
"557.7449999982491","","image-keyboard-response","290","3136029","0.0-13.0-2.59","l","COGS219_2020_08","Images/cow_1.png","65","1","1581548334406","non-match","cow","cat","sound","test","true"
"null","","audio-keyboard-response","291","3138042","0.0-13.0-3.59","l","COGS219_2020_08","Sounds/correct.wav","null","1","","","","","","",""
"null","","audio-keyboard-response","292","3138932","0.0-13.0-0.60","l","COGS219_2020_08","Sounds/frog_label.wav","null","1","","","","","","",""
"null","","html-keyboard-response","293","3139937","0.0-13.0-1.60","l","COGS219_2020_08","<p style=""font-size: 48px;"">+</p>","null","1","","","","","","",""
"458.7750000646338","","image-keyboard-response","294","3140396","0.0-13.0-2.60","l","COGS219_2020_08","Images/cow_cartoon.png","65","1","1581548338872","non-match","cow","frog","label","test","true"
"null","","audio-keyboard-response","295","3142401","0.0-13.0-3.60","l","COGS219_2020_08","Sounds/correct.wav","null","1","","","","","","",""
"null","","audio-keyboard-response","296","3143092","0.0-13.0-0.61","l","COGS219_2020_08","Sounds/rooster_label.wav","null","1","","","","","","",""
"null","","html-keyboard-response","297","3144086","0.0-13.0-1.61","l","COGS219_2020_08","<p style=""font-size: 48px;"">+</p>","null","1","","","","","","",""
"677.629999932833","","image-keyboard-response","298","3144765","0.0-13.0-2.61","l","COGS219_2020_08","Images/rooster_1.png","76","1","1581548343023","match","rooster","rooster","label","test","true"
"null","","audio-keyboard-response","299","3146783","0.0-13.0-3.61","l","COGS219_2020_08","Sounds/correct.wav","null","1","","","","","","",""
"null","","audio-keyboard-response","300","3147492","0.0-13.0-0.62","l","COGS219_2020_08","Sounds/dog_sound.wav","null","1","","","","","","",""
"null","","html-keyboard-response","301","3148486","0.0-13.0-1.62","l","COGS219_2020_08","<p style=""font-size: 48px;"">+</p>","null","1","","","","","","",""
"468.9250000519678","","image-keyboard-response","302","3148956","0.0-13.0-2.62","l","COGS219_2020_08","Images/whistle_orig.png","65","1","1581548347423","non-match","whistle","dog","sound","test","true"
"null","","audio-keyboard-response","303","3150966","0.0-13.0-3.62","l","COGS219_2020_08","Sounds/correct.wav","null","1","","","","","","",""
"null","","audio-keyboard-response","304","3152112","0.0-13.0-0.63","l","COGS219_2020_08","Sounds/motorcycle_label.wav","null","1","","","","","","",""
"null","","html-keyboard-response","305","3153103","0.0-13.0-1.63","l","COGS219_2020_08","<p style=""font-size: 48px;"">+</p>","null","1","","","","","","",""
"476.12999996636063","","image-keyboard-response","306","3153580","0.0-13.0-2.63","l","COGS219_2020_08","Images/dog_3.png","65","1","1581548352039","non-match","dog","motorcycle","label","test","true"
"null","","audio-keyboard-response","307","3155584","0.0-13.0-3.63","l","COGS219_2020_08","Sounds/correct.wav","null","1","","","","","","",""
"null","","audio-keyboard-response","308","3156692","0.0-13.0-0.64","l","COGS219_2020_08","Sounds/motorcycle_label.wav","null","1","","","","","","",""
"null","","html-keyboard-response","309","3157687","0.0-13.0-1.64","l","COGS219_2020_08","<p style=""font-size: 48px;"">+</p>","null","1","","","","","","",""
"580.904999980703","","image-keyboard-response","310","3158269","0.0-13.0-2.64","l","COGS219_2020_08","Images/motorcycle_orig.png","76","1","1581548356623","match","motorcycle","motorcycle","label","test","true"
"null","","audio-keyboard-response","311","3160276","0.0-13.0-3.64","l","COGS219_2020_08","Sounds/correct.wav","null","1","","","","","","",""
"null","","audio-keyboard-response","312","3160972","0.0-13.0-0.65","l","COGS219_2020_08","Sounds/dog_sound.wav","null","1","","","","","","",""
"null","","html-keyboard-response","313","3161970","0.0-13.0-1.65","l","COGS219_2020_08","<p style=""font-size: 48px;"">+</p>","null","1","","","","","","",""
"697.4450000561774","","image-keyboard-response","314","3162669","0.0-13.0-2.65","l","COGS219_2020_08","Images/dog_2.png","76","1","1581548360906","match","dog","dog","sound","test","true"
"null","","audio-keyboard-response","315","3164683","0.0-13.0-3.65","l","COGS219_2020_08","Sounds/correct.wav","null","1","","","","","","",""
"null","","audio-keyboard-response","316","3165692","0.0-13.0-0.66","l","COGS219_2020_08","Sounds/cow_label.wav","null","1","","","","","","",""
"null","","html-keyboard-response","317","3166687","0.0-13.0-1.66","l","COGS219_2020_08","<p style=""font-size: 48px;"">+</p>","null","1","","","","","","",""
"540.7499999273568","","image-keyboard-response","318","3167229","0.0-13.0-2.66","l","COGS219_2020_08","Images/rooster_cartoon.png","65","1","1581548365623","non-match","rooster","cow","label","test","true"
"null","","audio-keyboard-response","319","3169243","0.0-13.0-3.66","l","COGS219_2020_08","Sounds/correct.wav","null","1","","","","","","",""
"null","","audio-keyboard-response","320","3169932","0.0-13.0-0.67","l","COGS219_2020_08","Sounds/rooster_label.wav","null","1","","","","","","",""
"null","","html-keyboard-response","321","3170934","0.0-13.0-1.67","l","COGS219_2020_08","<p style=""font-size: 48px;"">+</p>","null","1","","","","","","",""
"514.6849999437109","","image-keyboard-response","322","3171449","0.0-13.0-2.67","l","COGS219_2020_08","Images/rooster_orig.png","76","1","1581548369869","match","rooster","rooster","label","test","true"
"null","","audio-keyboard-response","323","3173460","0.0-13.0-3.67","l","COGS219_2020_08","Sounds/correct.wav","null","1","","","","","","",""
"null","","audio-keyboard-response","324","3174109","0.0-13.0-0.68","l","COGS219_2020_08","Sounds/dog_label.wav","null","1","","","","","","",""
"null","","html-keyboard-response","325","3175100","0.0-13.0-1.68","l","COGS219_2020_08","<p style=""font-size: 48px;"">+</p>","null","1","","","","","","",""
"427.80500010121614","","image-keyboard-response","326","3175529","0.0-13.0-2.68","l","COGS219_2020_08","Images/dog_cartoon.png","76","1","1581548374036","match","dog","dog","label","test","true"
"null","","audio-keyboard-response","327","3177534","0.0-13.0-3.68","l","COGS219_2020_08","Sounds/correct.wav","null","1","","","","","","",""
"null","","audio-keyboard-response","328","3178649","0.0-13.0-0.69","l","COGS219_2020_08","Sounds/motorcycle_sound.wav","null","1","","","","","","",""
"null","","html-keyboard-response","329","3179667","0.0-13.0-1.69","l","COGS219_2020_08","<p style=""font-size: 48px;"">+</p>","null","1","","","","","","",""
"1140.940000070259","","image-keyboard-response","330","3180809","0.0-13.0-2.69","l","COGS219_2020_08","Images/motorcycle_2.png","76","1","1581548378603","match","motorcycle","motorcycle","sound","test","true"
"null","","audio-keyboard-response","331","3182812","0.0-13.0-3.69","l","COGS219_2020_08","Sounds/correct.wav","null","1","","","","","","",""
"null","","audio-keyboard-response","332","3183649","0.0-13.0-0.70","l","COGS219_2020_08","Sounds/cat_sound.wav","null","1","","","","","","",""
"null","","html-keyboard-response","333","3184667","0.0-13.0-1.70","l","COGS219_2020_08","<p style=""font-size: 48px;"">+</p>","null","1","","","","","","",""
"541.2950000027195","","image-keyboard-response","334","3185209","0.0-13.0-2.70","l","COGS219_2020_08","Images/frog_3.png","65","1","1581548383603","non-match","frog","cat","sound","test","true"
"null","","audio-keyboard-response","335","3187224","0.0-13.0-3.70","l","COGS219_2020_08","Sounds/correct.wav","null","1","","","","","","",""
"null","","audio-keyboard-response","336","3188309","0.0-13.0-0.71","l","COGS219_2020_08","Sounds/car_label.wav","null","1","","","","","","",""
"null","","html-keyboard-response","337","3189300","0.0-13.0-1.71","l","COGS219_2020_08","<p style=""font-size: 48px;"">+</p>","null","1","","","","","","",""
"691.8649999424815","","image-keyboard-response","338","3189993","0.0-13.0-2.71","l","COGS219_2020_08","Images/car_cartoon.png","76","1","1581548388236","match","car","car","label","test","true"
"null","","audio-keyboard-response","339","3192004","0.0-13.0-3.71","l","COGS219_2020_08","Sounds/correct.wav","null","1","","","","","","",""
"null","","audio-keyboard-response","340","3192649","0.0-13.0-0.72","l","COGS219_2020_08","Sounds/dog_label.wav","null","1","","","","","","",""
"null","","html-keyboard-response","341","3193667","0.0-13.0-1.72","l","COGS219_2020_08","<p style=""font-size: 48px;"">+</p>","null","1","","","","","","",""
"453.16999999340624","","image-keyboard-response","342","3194121","0.0-13.0-2.72","l","COGS219_2020_08","Images/dog_orig.png","76","1","1581548392603","match","dog","dog","label","test","true"
"null","","audio-keyboard-response","343","3196138","0.0-13.0-3.72","l","COGS219_2020_08","Sounds/correct.wav","null","1","","","","","","",""
"null","","audio-keyboard-response","344","3197249","0.0-13.0-0.73","l","COGS219_2020_08","Sounds/motorcycle_sound.wav","null","1","","","","","","",""
"null","","html-keyboard-response","345","3198267","0.0-13.0-1.73","l","COGS219_2020_08","<p style=""font-size: 48px;"">+</p>","null","1","","","","","","",""
"429.1700000176206","","image-keyboard-response","346","3198697","0.0-13.0-2.73","l","COGS219_2020_08","Images/frog_1.png","65","1","1581548397203","non-match","frog","motorcycle","sound","test","true"
"null","","audio-keyboard-response","347","3200714","0.0-13.0-3.73","l","COGS219_2020_08","Sounds/correct.wav","null","1","","","","","","",""
"null","","audio-keyboard-response","348","3201729","0.0-13.0-0.74","l","COGS219_2020_08","Sounds/cow_sound.wav","null","1","","","","","","",""
"null","","html-keyboard-response","349","3202734","0.0-13.0-1.74","l","COGS219_2020_08","<p style=""font-size: 48px;"">+</p>","null","1","","","","","","",""
"618.1349999969825","","image-keyboard-response","350","3203353","0.0-13.0-2.74","l","COGS219_2020_08","Images/cow_1.png","76","1","1581548401670","match","cow","cow","sound","test","true"
"null","","audio-keyboard-response","351","3205368","0.0-13.0-3.74","l","COGS219_2020_08","Sounds/correct.wav","null","1","","","","","","",""
"null","","audio-keyboard-response","352","3206069","0.0-13.0-0.75","l","COGS219_2020_08","Sounds/whistle_label.wav","null","1","","","","","","",""
"null","","html-keyboard-response","353","3207067","0.0-13.0-1.75","l","COGS219_2020_08","<p style=""font-size: 48px;"">+</p>","null","1","","","","","","",""
"813.0150000797585","","image-keyboard-response","354","3207881","0.0-13.0-2.75","l","COGS219_2020_08","Images/cat_3.png","65","1","1581548406003","non-match","cat","whistle","label","test","true"
"null","","audio-keyboard-response","355","3209888","0.0-13.0-3.75","l","COGS219_2020_08","Sounds/correct.wav","null","1","","","","","","",""
"null","","audio-keyboard-response","356","3210789","0.0-13.0-0.76","l","COGS219_2020_08","Sounds/frog_label.wav","null","1","","","","","","",""
"null","","html-keyboard-response","357","3211784","0.0-13.0-1.76","l","COGS219_2020_08","<p style=""font-size: 48px;"">+</p>","null","1","","","","","","",""
"496.4749999344349","","image-keyboard-response","358","3212281","0.0-13.0-2.76","l","COGS219_2020_08","Images/motorcycle_orig.png","65","1","1581548410720","non-match","motorcycle","frog","label","test","true"
"null","","audio-keyboard-response","359","3214294","0.0-13.0-3.76","l","COGS219_2020_08","Sounds/correct.wav","null","1","","","","","","",""
"null","","audio-keyboard-response","360","3215169","0.0-13.0-0.77","l","COGS219_2020_08","Sounds/frog_label.wav","null","1","","","","","","",""
"null","","html-keyboard-response","361","3216167","0.0-13.0-1.77","l","COGS219_2020_08","<p style=""font-size: 48px;"">+</p>","null","1","","","","","","",""
"624.9899999238551","","image-keyboard-response","362","3216793","0.0-13.0-2.77","l","COGS219_2020_08","Images/whistle_cartoon.png","65","1","1581548415103","non-match","whistle","frog","label","test","true"
"null","","audio-keyboard-response","363","3218805","0.0-13.0-3.77","l","COGS219_2020_08","Sounds/correct.wav","null","1","","","","","","",""
"null","","audio-keyboard-response","364","3219649","0.0-13.0-0.78","l","COGS219_2020_08","Sounds/cat_label.wav","null","1","","","","","","",""
"null","","html-keyboard-response","365","3220651","0.0-13.0-1.78","l","COGS219_2020_08","<p style=""font-size: 48px;"">+</p>","null","1","","","","","","",""
"573.4550000634044","","image-keyboard-response","366","3221225","0.0-13.0-2.78","l","COGS219_2020_08","Images/whistle_3.png","65","1","1581548419587","non-match","whistle","cat","label","test","true"
"null","","audio-keyboard-response","367","3223238","0.0-13.0-3.78","l","COGS219_2020_08","Sounds/correct.wav","null","1","","","","","","",""
"null","","audio-keyboard-response","368","3224249","0.0-13.0-0.79","l","COGS219_2020_08","Sounds/cow_sound.wav","null","1","","","","","","",""
"null","","html-keyboard-response","369","3225251","0.0-13.0-1.79","l","COGS219_2020_08","<p style=""font-size: 48px;"">+</p>","null","1","","","","","","",""
"453.63000000361353","","image-keyboard-response","370","3225705","0.0-13.0-2.79","l","COGS219_2020_08","Images/frog_cartoon.png","65","1","1581548424187","non-match","frog","cow","sound","test","true"
"null","","audio-keyboard-response","371","3227715","0.0-13.0-3.79","l","COGS219_2020_08","Sounds/correct.wav","null","1","","","","","","",""
"null","","audio-keyboard-response","372","3228989","0.0-13.0-0.80","l","COGS219_2020_08","Sounds/train_label.wav","null","1","","","","","","",""
"null","","html-keyboard-response","373","3229984","0.0-13.0-1.80","l","COGS219_2020_08","<p style=""font-size: 48px;"">+</p>","null","1","","","","","","",""
"583.9249999262393","","image-keyboard-response","374","3230569","0.0-13.0-2.80","l","COGS219_2020_08","Images/dog_1.png","65","1","1581548428920","non-match","dog","train","label","test","true"
"null","","audio-keyboard-response","375","3232573","0.0-13.0-3.80","l","COGS219_2020_08","Sounds/correct.wav","null","1","","","","","","",""
"null","","audio-keyboard-response","376","3233267","0.0-13.0-0.81","l","COGS219_2020_08","Sounds/whistle_sound.wav","null","1","","","","","","",""
"null","","html-keyboard-response","377","3234266","0.0-13.0-1.81","l","COGS219_2020_08","<p style=""font-size: 48px;"">+</p>","null","1","","","","","","",""
"444.5500000147149","","image-keyboard-response","378","3234711","0.0-13.0-2.81","l","COGS219_2020_08","Images/cow_3.png","65","1","1581548433202","non-match","cow","whistle","sound","test","true"
"null","","audio-keyboard-response","379","3236714","0.0-13.0-3.81","l","COGS219_2020_08","Sounds/correct.wav","null","1","","","","","","",""
"null","","audio-keyboard-response","380","3238007","0.0-13.0-0.82","l","COGS219_2020_08","Sounds/train_sound.wav","null","1","","","","","","",""
"null","","html-keyboard-response","381","3238999","0.0-13.0-1.82","l","COGS219_2020_08","<p style=""font-size: 48px;"">+</p>","null","1","","","","","","",""
"415.4250000137836","","image-keyboard-response","382","3239415","0.0-13.0-2.82","l","COGS219_2020_08","Images/rooster_1.png","65","1","1581548437935","non-match","rooster","train","sound","test","true"
"null","","audio-keyboard-response","383","3241418","0.0-13.0-3.82","l","COGS219_2020_08","Sounds/correct.wav","null","1","","","","","","",""
"null","","audio-keyboard-response","384","3242107","0.0-13.0-0.83","l","COGS219_2020_08","Sounds/whistle_label.wav","null","1","","","","","","",""
"null","","html-keyboard-response","385","3243099","0.0-13.0-1.83","l","COGS219_2020_08","<p style=""font-size: 48px;"">+</p>","null","1","","","","","","",""
"699.1649999981746","","image-keyboard-response","386","3243799","0.0-13.0-2.83","l","COGS219_2020_08","Images/whistle_3.png","76","1","1581548442035","match","whistle","whistle","label","test","true"
"null","","audio-keyboard-response","387","3245811","0.0-13.0-3.83","l","COGS219_2020_08","Sounds/correct.wav","null","1","","","","","","",""
"null","","audio-keyboard-response","388","3246827","0.0-13.0-0.84","l","COGS219_2020_08","Sounds/cow_sound.wav","null","1","","","","","","",""
"null","","html-keyboard-response","389","3247832","0.0-13.0-1.84","l","COGS219_2020_08","<p style=""font-size: 48px;"">+</p>","null","1","","","","","","",""
"1101.6850000014529","","image-keyboard-response","390","3248935","0.0-13.0-2.84","l","COGS219_2020_08","Images/cow_orig.png","76","1","1581548446768","match","cow","cow","sound","test","true"
"null","","audio-keyboard-response","391","3250948","0.0-13.0-3.84","l","COGS219_2020_08","Sounds/correct.wav","null","1","","","","","","",""
"null","","audio-keyboard-response","392","3251787","0.0-13.0-0.85","l","COGS219_2020_08","Sounds/cat_label.wav","null","1","","","","","","",""
"null","","html-keyboard-response","393","3252782","0.0-13.0-1.85","l","COGS219_2020_08","<p style=""font-size: 48px;"">+</p>","null","1","","","","","","",""
"596.6200000839308","","image-keyboard-response","394","3253383","0.0-13.0-2.85","l","COGS219_2020_08","Images/cat_3.png","76","1","1581548451719","match","cat","cat","label","test","true"
"null","","audio-keyboard-response","395","3255388","0.0-13.0-3.85","l","COGS219_2020_08","Sounds/correct.wav","null","1","","","","","","",""
"null","","audio-keyboard-response","396","3255967","0.0-13.0-0.86","l","COGS219_2020_08","Sounds/gun_label.wav","null","1","","","","","","",""
"null","","html-keyboard-response","397","3256966","0.0-13.0-1.86","l","COGS219_2020_08","<p style=""font-size: 48px;"">+</p>","null","1","","","","","","",""
"560.4049999965355","","image-keyboard-response","398","3257527","0.0-13.0-2.86","l","COGS219_2020_08","Images/frog_orig.png","65","1","1581548455902","non-match","frog","gun","label","test","true"
"null","","audio-keyboard-response","399","3259538","0.0-13.0-3.86","l","COGS219_2020_08","Sounds/correct.wav","null","1","","","","","","",""
"null","","audio-keyboard-response","400","3260107","0.0-13.0-0.87","l","COGS219_2020_08","Sounds/gun_sound.wav","null","1","","","","","","",""
"null","","html-keyboard-response","401","3261099","0.0-13.0-1.87","l","COGS219_2020_08","<p style=""font-size: 48px;"">+</p>","null","1","","","","","","",""
"442.77999992482364","","image-keyboard-response","402","3261543","0.0-13.0-2.87","l","COGS219_2020_08","Images/gun_cartoon.png","76","1","1581548460035","match","gun","gun","sound","test","true"
"null","","audio-keyboard-response","403","3263549","0.0-13.0-3.87","l","COGS219_2020_08","Sounds/correct.wav","null","1","","","","","","",""
"null","","audio-keyboard-response","404","3264247","0.0-13.0-0.88","l","COGS219_2020_08","Sounds/whistle_label.wav","null","1","","","","","","",""
"null","","html-keyboard-response","405","3265249","0.0-13.0-1.88","l","COGS219_2020_08","<p style=""font-size: 48px;"">+</p>","null","1","","","","","","",""
"677.0549999782816","","image-keyboard-response","406","3265927","0.0-13.0-2.88","l","COGS219_2020_08","Images/rooster_2.png","65","1","1581548464186","non-match","rooster","whistle","label","test","true"
"null","","audio-keyboard-response","407","3267931","0.0-13.0-3.88","l","COGS219_2020_08","Sounds/correct.wav","null","1","","","","","","",""
"null","","audio-keyboard-response","408","3269007","0.0-13.0-0.89","l","COGS219_2020_08","Sounds/car_label.wav","null","1","","","","","","",""
"null","","html-keyboard-response","409","3269999","0.0-13.0-1.89","l","COGS219_2020_08","<p style=""font-size: 48px;"">+</p>","null","1","","","","","","",""
"391.0449999384582","","image-keyboard-response","410","3270391","0.0-13.0-2.89","l","COGS219_2020_08","Images/cow_orig.png","65","1","1581548468935","non-match","cow","car","label","test","true"
"null","","audio-keyboard-response","411","3272402","0.0-13.0-3.89","l","COGS219_2020_08","Sounds/correct.wav","null","1","","","","","","",""
"null","","audio-keyboard-response","412","3273247","0.0-13.0-0.90","l","COGS219_2020_08","Sounds/cat_sound.wav","null","1","","","","","","",""
"null","","html-keyboard-response","413","3274249","0.0-13.0-1.90","l","COGS219_2020_08","<p style=""font-size: 48px;"">+</p>","null","1","","","","","","",""
"700.9049999760464","","image-keyboard-response","414","3274951","0.0-13.0-2.90","l","COGS219_2020_08","Images/cat_2.png","76","1","1581548473186","match","cat","cat","sound","test","true"
"null","","audio-keyboard-response","415","3276954","0.0-13.0-3.90","l","COGS219_2020_08","Sounds/correct.wav","null","1","","","","","","",""
"null","","audio-keyboard-response","416","3277647","0.0-13.0-0.91","l","COGS219_2020_08","Sounds/rooster_sound.wav","null","1","","","","","","",""
"null","","html-keyboard-response","417","3278649","0.0-13.0-1.91","l","COGS219_2020_08","<p style=""font-size: 48px;"">+</p>","null","1","","","","","","",""
"573.2650000136346","","image-keyboard-response","418","3279223","0.0-13.0-2.91","l","COGS219_2020_08","Images/rooster_3.png","76","1","1581548477586","match","rooster","rooster","sound","test","true"
"null","","audio-keyboard-response","419","3281238","0.0-13.0-3.91","l","COGS219_2020_08","Sounds/correct.wav","null","1","","","","","","",""
"null","","audio-keyboard-response","420","3281807","0.0-13.0-0.92","l","COGS219_2020_08","Sounds/gun_sound.wav","null","1","","","","","","",""
"null","","html-keyboard-response","421","3282799","0.0-13.0-1.92","l","COGS219_2020_08","<p style=""font-size: 48px;"">+</p>","null","1","","","","","","",""
"582.8749999636784","","image-keyboard-response","422","3283383","0.0-13.0-2.92","l","COGS219_2020_08","Images/gun_orig.png","65","1","1581548481735","match","gun","gun","sound","test","false"
"null","","audio-keyboard-response","423","3285388","0.0-13.0-3.92","l","COGS219_2020_08","Sounds/incorrect.wav","null","1","","","","","","",""
"null","","audio-keyboard-response","424","3286527","0.0-13.0-0.93","l","COGS219_2020_08","Sounds/motorcycle_label.wav","null","1","","","","","","",""
"null","","html-keyboard-response","425","3287533","0.0-13.0-1.93","l","COGS219_2020_08","<p style=""font-size: 48px;"">+</p>","null","1","","","","","","",""
"409.3250000150874","","image-keyboard-response","426","3287943","0.0-13.0-2.93","l","COGS219_2020_08","Images/motorcycle_cartoon.png","76","1","1581548486469","match","motorcycle","motorcycle","label","test","true"
"null","","audio-keyboard-response","427","3289951","0.0-13.0-3.93","l","COGS219_2020_08","Sounds/correct.wav","null","1","","","","","","",""
"null","","audio-keyboard-response","428","3291027","0.0-13.0-0.94","l","COGS219_2020_08","Sounds/car_label.wav","null","1","","","","","","",""
"null","","html-keyboard-response","429","3292033","0.0-13.0-1.94","l","COGS219_2020_08","<p style=""font-size: 48px;"">+</p>","null","1","","","","","","",""
"501.2450000504032","","image-keyboard-response","430","3292536","0.0-13.0-2.94","l","COGS219_2020_08","Images/car_1.png","76","1","1581548490969","match","car","car","label","test","true"
"null","","audio-keyboard-response","431","3294538","0.0-13.0-3.94","l","COGS219_2020_08","Sounds/correct.wav","null","1","","","","","","",""
"null","","audio-keyboard-response","432","3295806","0.0-13.0-0.95","l","COGS219_2020_08","Sounds/train_label.wav","null","1","","","","","","",""
"null","","html-keyboard-response","433","3296799","0.0-13.0-1.95","l","COGS219_2020_08","<p style=""font-size: 48px;"">+</p>","null","1","","","","","","",""
"549.3299999507144","","image-keyboard-response","434","3297351","0.0-13.0-2.95","l","COGS219_2020_08","Images/train_1.png","76","1","1581548495735","match","train","train","label","test","true"
"null","","audio-keyboard-response","435","3299359","0.0-13.0-3.95","l","COGS219_2020_08","Sounds/correct.wav","null","1","","","","","","",""
"null","","audio-keyboard-response","436","3300246","0.0-13.0-0.96","l","COGS219_2020_08","Sounds/frog_label.wav","null","1","","","","","","",""
"null","","html-keyboard-response","437","3301249","0.0-13.0-1.96","l","COGS219_2020_08","<p style=""font-size: 48px;"">+</p>","null","1","","","","","","",""
"612.6049999147654","","image-keyboard-response","438","3301863","0.0-13.0-2.96","l","COGS219_2020_08","Images/gun_cartoon.png","65","1","1581548500185","non-match","gun","frog","label","test","true"
"null","","audio-keyboard-response","439","3303868","0.0-13.0-3.96","l","COGS219_2020_08","Sounds/correct.wav","null","1","","","","","","",""
"null","","audio-keyboard-response","440","3304566","0.0-13.0-0.97","l","COGS219_2020_08","Sounds/rooster_sound.wav","null","1","","","","","","",""
"null","","html-keyboard-response","441","3305566","0.0-13.0-1.97","l","COGS219_2020_08","<p style=""font-size: 48px;"">+</p>","null","1","","","","","","",""
"600.209999945946","","image-keyboard-response","442","3306167","0.0-13.0-2.97","l","COGS219_2020_08","Images/rooster_2.png","76","1","1581548504502","match","rooster","rooster","sound","test","true"
"null","","audio-keyboard-response","443","3308171","0.0-13.0-3.97","l","COGS219_2020_08","Sounds/correct.wav","null","1","","","","","","",""
"null","","audio-keyboard-response","444","3309246","0.0-13.0-0.98","l","COGS219_2020_08","Sounds/car_label.wav","null","1","","","","","","",""
"null","","html-keyboard-response","445","3310249","0.0-13.0-1.98","l","COGS219_2020_08","<p style=""font-size: 48px;"">+</p>","null","1","","","","","","",""
"508.4399998886511","","image-keyboard-response","446","3310759","0.0-13.0-2.98","l","COGS219_2020_08","Images/dog_orig.png","65","1","1581548509186","non-match","dog","car","label","test","true"
"null","","audio-keyboard-response","447","3312762","0.0-13.0-3.98","l","COGS219_2020_08","Sounds/correct.wav","null","1","","","","","","",""
"null","","audio-keyboard-response","448","3313467","0.0-13.0-0.99","l","COGS219_2020_08","Sounds/dog_sound.wav","null","1","","","","","","",""
"null","","html-keyboard-response","449","3314466","0.0-13.0-1.99","l","COGS219_2020_08","<p style=""font-size: 48px;"">+</p>","null","1","","","","","","",""
"803.9100000169128","","image-keyboard-response","450","3315271","0.0-13.0-2.99","l","COGS219_2020_08","Images/car_orig.png","65","1","1581548513402","non-match","car","dog","sound","test","true"
"null","","audio-keyboard-response","451","3317287","0.0-13.0-3.99","l","COGS219_2020_08","Sounds/correct.wav","null","1","","","","","","",""
"11743.674999917857","","html-keyboard-response","452","3329031","0.0-14.0","l","COGS219_2020_08","<p>Please take this opportunity to rest your eyes before proceeding.</p><p>When ready, press the enter key to continue to the next set of trials.</p>","13","","","","","","","",""
"null","","audio-keyboard-response","453","3331989","0.0-15.0-0.0","l","COGS219_2020_08","Sounds/frog_label.wav","null","2","","","","","","",""
"null","","html-keyboard-response","454","3332983","0.0-15.0-1.0","l","COGS219_2020_08","<p style=""font-size: 48px;"">+</p>","null","2","","","","","","",""
"751.1200000299141","","image-keyboard-response","455","3333735","0.0-15.0-2.0","l","COGS219_2020_08","Images/frog_1.png","76","2","1581548531919","match","frog","frog","label","test","true"
"null","","audio-keyboard-response","456","3335741","0.0-15.0-3.0","l","COGS219_2020_08","Sounds/correct.wav","null","2","","","","","","",""
"null","","audio-keyboard-response","457","3336329","0.0-15.0-0.1","l","COGS219_2020_08","Sounds/gun_label.wav","null","2","","","","","","",""
"null","","html-keyboard-response","458","3337333","0.0-15.0-1.1","l","COGS219_2020_08","<p style=""font-size: 48px;"">+</p>","null","2","","","","","","",""
"608.7899999693036","","image-keyboard-response","459","3337943","0.0-15.0-2.1","l","COGS219_2020_08","Images/cow_2.png","65","2","1581548536269","non-match","cow","gun","label","test","true"
"null","","audio-keyboard-response","460","3339954","0.0-15.0-3.1","l","COGS219_2020_08","Sounds/correct.wav","null","2","","","","","","",""
"null","","audio-keyboard-response","461","3341249","0.0-15.0-0.2","l","COGS219_2020_08","Sounds/train_sound.wav","null","2","","","","","","",""
"null","","html-keyboard-response","462","3342266","0.0-15.0-1.2","l","COGS219_2020_08","<p style=""font-size: 48px;"">+</p>","null","2","","","","","","",""
"635.7549999374896","","image-keyboard-response","463","3342903","0.0-15.0-2.2","l","COGS219_2020_08","Images/train_1.png","76","2","1581548541202","match","train","train","sound","test","true"
"null","","audio-keyboard-response","464","3344920","0.0-15.0-3.2","l","COGS219_2020_08","Sounds/correct.wav","null","2","","","","","","",""
"null","","audio-keyboard-response","465","3345629","0.0-15.0-0.3","l","COGS219_2020_08","Sounds/dog_sound.wav","null","2","","","","","","",""
"null","","html-keyboard-response","466","3346633","0.0-15.0-1.3","l","COGS219_2020_08","<p style=""font-size: 48px;"">+</p>","null","2","","","","","","",""
"604.590000002645","","image-keyboard-response","467","3347239","0.0-15.0-2.3","l","COGS219_2020_08","Images/dog_3.png","76","2","1581548545569","match","dog","dog","sound","test","true"
"null","","audio-keyboard-response","468","3349253","0.0-15.0-3.3","l","COGS219_2020_08","Sounds/correct.wav","null","2","","","","","","",""
"null","","audio-keyboard-response","469","3350329","0.0-15.0-0.4","l","COGS219_2020_08","Sounds/car_label.wav","null","2","","","","","","",""
"null","","html-keyboard-response","470","3351333","0.0-15.0-1.4","l","COGS219_2020_08","<p style=""font-size: 48px;"">+</p>","null","2","","","","","","",""
"608.7200000183657","","image-keyboard-response","471","3351943","0.0-15.0-2.4","l","COGS219_2020_08","Images/car_cartoon.png","76","2","1581548550269","match","car","car","label","test","true"
"null","","audio-keyboard-response","472","3353952","0.0-15.0-3.4","l","COGS219_2020_08","Sounds/correct.wav","null","2","","","","","","",""
"null","","audio-keyboard-response","473","3354649","0.0-15.0-0.5","l","COGS219_2020_08","Sounds/whistle_sound.wav","null","2","","","","","","",""
"null","","html-keyboard-response","474","3355666","0.0-15.0-1.5","l","COGS219_2020_08","<p style=""font-size: 48px;"">+</p>","null","2","","","","","","",""
"435.48500002361834","","image-keyboard-response","475","3356103","0.0-15.0-2.5","l","COGS219_2020_08","Images/whistle_orig.png","65","2","1581548554603","match","whistle","whistle","sound","test","false"
"null","","audio-keyboard-response","476","3358113","0.0-15.0-3.5","l","COGS219_2020_08","Sounds/incorrect.wav","null","2","","","","","","",""
"null","","audio-keyboard-response","477","3359009","0.0-15.0-0.6","l","COGS219_2020_08","Sounds/frog_label.wav","null","2","","","","","","",""
"null","","html-keyboard-response","478","3360000","0.0-15.0-1.6","l","COGS219_2020_08","<p style=""font-size: 48px;"">+</p>","null","2","","","","","","",""
"453.9450000738725","","image-keyboard-response","479","3360455","0.0-15.0-2.6","l","COGS219_2020_08","Images/frog_2.png","76","2","1581548558936","match","frog","frog","label","test","true"
"null","","audio-keyboard-response","480","3362464","0.0-15.0-3.6","l","COGS219_2020_08","Sounds/correct.wav","null","2","","","","","","",""
"null","","audio-keyboard-response","481","3363489","0.0-15.0-0.7","l","COGS219_2020_08","Sounds/cow_sound.wav","null","2","","","","","","",""
"null","","html-keyboard-response","482","3364483","0.0-15.0-1.7","l","COGS219_2020_08","<p style=""font-size: 48px;"">+</p>","null","2","","","","","","",""
"722.6500000106171","","image-keyboard-response","483","3365207","0.0-15.0-2.7","l","COGS219_2020_08","Images/cat_3.png","65","2","1581548563419","non-match","cat","cow","sound","test","true"
"null","","audio-keyboard-response","484","3367212","0.0-15.0-3.7","l","COGS219_2020_08","Sounds/correct.wav","null","2","","","","","","",""
"null","","audio-keyboard-response","485","3367909","0.0-15.0-0.8","l","COGS219_2020_08","Sounds/rooster_sound.wav","null","2","","","","","","",""
"null","","html-keyboard-response","486","3368900","0.0-15.0-1.8","l","COGS219_2020_08","<p style=""font-size: 48px;"">+</p>","null","2","","","","","","",""
"610.0399999413639","","image-keyboard-response","487","3369511","0.0-15.0-2.8","l","COGS219_2020_08","Images/dog_1.png","65","2","1581548567836","non-match","dog","rooster","sound","test","true"
"null","","audio-keyboard-response","488","3371520","0.0-15.0-3.8","l","COGS219_2020_08","Sounds/correct.wav","null","2","","","","","","",""
"null","","audio-keyboard-response","489","3372089","0.0-15.0-0.9","l","COGS219_2020_08","Sounds/gun_sound.wav","null","2","","","","","","",""
"null","","html-keyboard-response","490","3373083","0.0-15.0-1.9","l","COGS219_2020_08","<p style=""font-size: 48px;"">+</p>","null","2","","","","","","",""
"698.5049999784678","","image-keyboard-response","491","3373783","0.0-15.0-2.9","l","COGS219_2020_08","Images/gun_3.png","76","2","1581548572019","match","gun","gun","sound","test","true"
"null","","audio-keyboard-response","492","3375796","0.0-15.0-3.9","l","COGS219_2020_08","Sounds/correct.wav","null","2","","","","","","",""
"null","","audio-keyboard-response","493","3376369","0.0-15.0-0.10","l","COGS219_2020_08","Sounds/gun_label.wav","null","2","","","","","","",""
"null","","html-keyboard-response","494","3377367","0.0-15.0-1.10","l","COGS219_2020_08","<p style=""font-size: 48px;"">+</p>","null","2","","","","","","",""
"463.1150000495836","","image-keyboard-response","495","3377831","0.0-15.0-2.10","l","COGS219_2020_08","Images/gun_1.png","76","2","1581548576303","match","gun","gun","label","test","true"
"null","","audio-keyboard-response","496","3379846","0.0-15.0-3.10","l","COGS219_2020_08","Sounds/correct.wav","null","2","","","","","","",""
"null","","audio-keyboard-response","497","3380749","0.0-15.0-0.11","l","COGS219_2020_08","Sounds/frog_label.wav","null","2","","","","","","",""
"null","","html-keyboard-response","498","3381767","0.0-15.0-1.11","l","COGS219_2020_08","<p style=""font-size: 48px;"">+</p>","null","2","","","","","","",""
"367.04000004101545","","image-keyboard-response","499","3382135","0.0-15.0-2.11","l","COGS219_2020_08","Images/frog_cartoon.png","76","2","1581548580703","match","frog","frog","label","test","true"
"null","","audio-keyboard-response","500","3384152","0.0-15.0-3.11","l","COGS219_2020_08","Sounds/correct.wav","null","2","","","","","","",""
"null","","audio-keyboard-response","501","3385269","0.0-15.0-0.12","l","COGS219_2020_08","Sounds/motorcycle_sound.wav","null","2","","","","","","",""
"null","","html-keyboard-response","502","3386267","0.0-15.0-1.12","l","COGS219_2020_08","<p style=""font-size: 48px;"">+</p>","null","2","","","","","","",""
"427.05499997828156","","image-keyboard-response","503","3386695","0.0-15.0-2.12","l","COGS219_2020_08","Images/motorcycle_1.png","76","2","1581548585203","match","motorcycle","motorcycle","sound","test","true"
"null","","audio-keyboard-response","504","3388705","0.0-15.0-3.12","l","COGS219_2020_08","Sounds/correct.wav","null","2","","","","","","",""
"null","","audio-keyboard-response","505","3389549","0.0-15.0-0.13","l","COGS219_2020_08","Sounds/cat_sound.wav","null","2","","","","","","",""
"null","","html-keyboard-response","506","3390567","0.0-15.0-1.13","l","COGS219_2020_08","<p style=""font-size: 48px;"">+</p>","null","2","","","","","","",""
"782.3349999962375","","image-keyboard-response","507","3391351","0.0-15.0-2.13","l","COGS219_2020_08","Images/dog_orig.png","65","2","1581548589503","non-match","dog","cat","sound","test","true"
"null","","audio-keyboard-response","508","3393356","0.0-15.0-3.13","l","COGS219_2020_08","Sounds/correct.wav","null","2","","","","","","",""
"null","","audio-keyboard-response","509","3393929","0.0-15.0-0.14","l","COGS219_2020_08","Sounds/gun_sound.wav","null","2","","","","","","",""
"null","","html-keyboard-response","510","3394917","0.0-15.0-1.14","l","COGS219_2020_08","<p style=""font-size: 48px;"">+</p>","null","2","","","","","","",""
"577.0900000352412","","image-keyboard-response","511","3395495","0.0-15.0-2.14","l","COGS219_2020_08","Images/gun_orig.png","76","2","1581548593853","match","gun","gun","sound","test","true"
"null","","audio-keyboard-response","512","3397506","0.0-15.0-3.14","l","COGS219_2020_08","Sounds/correct.wav","null","2","","","","","","",""
"null","","audio-keyboard-response","513","3398209","0.0-15.0-0.15","l","COGS219_2020_08","Sounds/whistle_label.wav","null","2","","","","","","",""
"null","","html-keyboard-response","514","3399200","0.0-15.0-1.15","l","COGS219_2020_08","<p style=""font-size: 48px;"">+</p>","null","2","","","","","","",""
"453.5450000548735","","image-keyboard-response","515","3399655","0.0-15.0-2.15","l","COGS219_2020_08","Images/car_3.png","65","2","1581548598136","non-match","car","whistle","label","test","true"
"null","","audio-keyboard-response","516","3401666","0.0-15.0-3.15","l","COGS219_2020_08","Sounds/correct.wav","null","2","","","","","","",""
"null","","audio-keyboard-response","517","3402749","0.0-15.0-0.16","l","COGS219_2020_08","Sounds/car_sound.wav","null","2","","","","","","",""
"null","","html-keyboard-response","518","3403767","0.0-15.0-1.16","l","COGS219_2020_08","<p style=""font-size: 48px;"">+</p>","null","2","","","","","","",""
"430.80500001087785","","image-keyboard-response","519","3404199","0.0-15.0-2.16","l","COGS219_2020_08","Images/car_3.png","76","2","1581548602703","match","car","car","sound","test","true"
"null","","audio-keyboard-response","520","3406216","0.0-15.0-3.16","l","COGS219_2020_08","Sounds/correct.wav","null","2","","","","","","",""
"null","","audio-keyboard-response","521","3406909","0.0-15.0-0.17","l","COGS219_2020_08","Sounds/rooster_sound.wav","null","2","","","","","","",""
"null","","html-keyboard-response","522","3407900","0.0-15.0-1.17","l","COGS219_2020_08","<p style=""font-size: 48px;"">+</p>","null","2","","","","","","",""
"745.7500000018626","","image-keyboard-response","523","3408647","0.0-15.0-2.17","l","COGS219_2020_08","Images/frog_3.png","65","2","1581548606836","non-match","frog","rooster","sound","test","true"
"null","","audio-keyboard-response","524","3410651","0.0-15.0-3.17","l","COGS219_2020_08","Sounds/correct.wav","null","2","","","","","","",""
"null","","audio-keyboard-response","525","3411329","0.0-15.0-0.18","l","COGS219_2020_08","Sounds/whistle_sound.wav","null","2","","","","","","",""
"null","","html-keyboard-response","526","3412334","0.0-15.0-1.18","l","COGS219_2020_08","<p style=""font-size: 48px;"">+</p>","null","2","","","","","","",""
"727.989999926649","","image-keyboard-response","527","3413063","0.0-15.0-2.18","l","COGS219_2020_08","Images/whistle_2.png","76","2","1581548611270","match","whistle","whistle","sound","test","true"
"null","","audio-keyboard-response","528","3415076","0.0-15.0-3.18","l","COGS219_2020_08","Sounds/correct.wav","null","2","","","","","","",""
"null","","audio-keyboard-response","529","3416208","0.0-15.0-0.19","l","COGS219_2020_08","Sounds/motorcycle_label.wav","null","2","","","","","","",""
"null","","html-keyboard-response","530","3417200","0.0-15.0-1.19","l","COGS219_2020_08","<p style=""font-size: 48px;"">+</p>","null","2","","","","","","",""
"661.3799999468029","","image-keyboard-response","531","3417862","0.0-15.0-2.19","l","COGS219_2020_08","Images/motorcycle_orig.png","76","2","1581548616136","match","motorcycle","motorcycle","label","test","true"
"null","","audio-keyboard-response","532","3419872","0.0-15.0-3.19","l","COGS219_2020_08","Sounds/correct.wav","null","2","","","","","","",""
"null","","audio-keyboard-response","533","3421168","0.0-15.0-0.20","l","COGS219_2020_08","Sounds/train_sound.wav","null","2","","","","","","",""
"null","","html-keyboard-response","534","3422166","0.0-15.0-1.20","l","COGS219_2020_08","<p style=""font-size: 48px;"">+</p>","null","2","","","","","","",""
"831.0300000011921","","image-keyboard-response","535","3422998","0.0-15.0-2.20","l","COGS219_2020_08","Images/whistle_2.png","65","2","1581548621102","non-match","whistle","train","sound","test","true"
"null","","audio-keyboard-response","536","3425002","0.0-15.0-3.20","l","COGS219_2020_08","Sounds/correct.wav","null","2","","","","","","",""
"null","","audio-keyboard-response","537","3425588","0.0-15.0-0.21","l","COGS219_2020_08","Sounds/gun_sound.wav","null","2","","","","","","",""
"null","","html-keyboard-response","538","3426583","0.0-15.0-1.21","l","COGS219_2020_08","<p style=""font-size: 48px;"">+</p>","null","2","","","","","","",""
"829.9249999690801","","image-keyboard-response","539","3427414","0.0-15.0-2.21","l","COGS219_2020_08","Images/motorcycle_orig.png","65","2","1581548625519","non-match","motorcycle","gun","sound","test","true"
"null","","audio-keyboard-response","540","3429422","0.0-15.0-3.21","l","COGS219_2020_08","Sounds/correct.wav","null","2","","","","","","",""
"null","","audio-keyboard-response","541","3430328","0.0-15.0-0.22","l","COGS219_2020_08","Sounds/frog_sound.wav","null","2","","","","","","",""
"null","","html-keyboard-response","542","3431317","0.0-15.0-1.22","l","COGS219_2020_08","<p style=""font-size: 48px;"">+</p>","null","2","","","","","","",""
"624.5600000256673","","image-keyboard-response","543","3431942","0.0-15.0-2.22","l","COGS219_2020_08","Images/gun_3.png","65","2","1581548630253","non-match","gun","frog","sound","test","true"
"null","","audio-keyboard-response","544","3433952","0.0-15.0-3.22","l","COGS219_2020_08","Sounds/correct.wav","null","2","","","","","","",""
"null","","audio-keyboard-response","545","3434968","0.0-15.0-0.23","l","COGS219_2020_08","Sounds/cow_label.wav","null","2","","","","","","",""
"null","","html-keyboard-response","546","3435967","0.0-15.0-1.23","l","COGS219_2020_08","<p style=""font-size: 48px;"">+</p>","null","2","","","","","","",""
"502.8150000143796","","image-keyboard-response","547","3436470","0.0-15.0-2.23","l","COGS219_2020_08","Images/motorcycle_1.png","65","2","1581548634903","non-match","motorcycle","cow","label","test","true"
"null","","audio-keyboard-response","548","3438477","0.0-15.0-3.23","l","COGS219_2020_08","Sounds/correct.wav","null","2","","","","","","",""
"null","","audio-keyboard-response","549","3439548","0.0-15.0-0.24","l","COGS219_2020_08","Sounds/car_label.wav","null","2","","","","","","",""
"null","","html-keyboard-response","550","3440550","0.0-15.0-1.24","l","COGS219_2020_08","<p style=""font-size: 48px;"">+</p>","null","2","","","","","","",""
"607.1099999826401","","image-keyboard-response","551","3441158","0.0-15.0-2.24","l","COGS219_2020_08","Images/car_1.png","76","2","1581548639486","match","car","car","label","test","true"
"null","","audio-keyboard-response","552","3443170","0.0-15.0-3.24","l","COGS219_2020_08","Sounds/correct.wav","null","2","","","","","","",""
"null","","audio-keyboard-response","553","3443828","0.0-15.0-0.25","l","COGS219_2020_08","Sounds/dog_label.wav","null","2","","","","","","",""
"null","","html-keyboard-response","554","3444817","0.0-15.0-1.25","l","COGS219_2020_08","<p style=""font-size: 48px;"">+</p>","null","2","","","","","","",""
"500.484999967739","","image-keyboard-response","555","3445318","0.0-15.0-2.25","l","COGS219_2020_08","Images/dog_orig.png","76","2","1581548643753","match","dog","dog","label","test","true"
"null","","audio-keyboard-response","556","3447327","0.0-15.0-3.25","l","COGS219_2020_08","Sounds/correct.wav","null","2","","","","","","",""
"null","","audio-keyboard-response","557","3447908","0.0-15.0-0.26","l","COGS219_2020_08","Sounds/gun_label.wav","null","2","","","","","","",""
"null","","html-keyboard-response","558","3448900","0.0-15.0-1.26","l","COGS219_2020_08","<p style=""font-size: 48px;"">+</p>","null","2","","","","","","",""
"609.1849999502301","","image-keyboard-response","559","3449510","0.0-15.0-2.26","l","COGS219_2020_08","Images/car_orig.png","65","2","1581548647836","non-match","car","gun","label","test","true"
"null","","audio-keyboard-response","560","3451520","0.0-15.0-3.26","l","COGS219_2020_08","Sounds/correct.wav","null","2","","","","","","",""
"null","","audio-keyboard-response","561","3452808","0.0-15.0-0.27","l","COGS219_2020_08","Sounds/train_sound.wav","null","2","","","","","","",""
"null","","html-keyboard-response","562","3453800","0.0-15.0-1.27","l","COGS219_2020_08","<p style=""font-size: 48px;"">+</p>","null","2","","","","","","",""
"525.2049999544397","","image-keyboard-response","563","3454326","0.0-15.0-2.27","l","COGS219_2020_08","Images/cat_1.png","65","2","1581548652736","non-match","cat","train","sound","test","true"
"null","","audio-keyboard-response","564","3456343","0.0-15.0-3.27","l","COGS219_2020_08","Sounds/correct.wav","null","2","","","","","","",""
"null","","audio-keyboard-response","565","3457048","0.0-15.0-0.28","l","COGS219_2020_08","Sounds/dog_sound.wav","null","2","","","","","","",""
"null","","html-keyboard-response","566","3458050","0.0-15.0-1.28","l","COGS219_2020_08","<p style=""font-size: 48px;"">+</p>","null","2","","","","","","",""
"594.8850000277162","","image-keyboard-response","567","3458646","0.0-15.0-2.28","l","COGS219_2020_08","Images/dog_1.png","76","2","1581548656987","match","dog","dog","sound","test","true"
"null","","audio-keyboard-response","568","3460653","0.0-15.0-3.28","l","COGS219_2020_08","Sounds/correct.wav","null","2","","","","","","",""
"null","","audio-keyboard-response","569","3461788","0.0-15.0-0.29","l","COGS219_2020_08","Sounds/motorcycle_label.wav","null","2","","","","","","",""
"null","","html-keyboard-response","570","3462783","0.0-15.0-1.29","l","COGS219_2020_08","<p style=""font-size: 48px;"">+</p>","null","2","","","","","","",""
"469.96000001672655","","image-keyboard-response","571","3463254","0.0-15.0-2.29","l","COGS219_2020_08","Images/motorcycle_2.png","76","2","1581548661720","match","motorcycle","motorcycle","label","test","true"
"null","","audio-keyboard-response","572","3465263","0.0-15.0-3.29","l","COGS219_2020_08","Sounds/correct.wav","null","2","","","","","","",""
"null","","audio-keyboard-response","573","3466528","0.0-15.0-0.30","l","COGS219_2020_08","Sounds/train_sound.wav","null","2","","","","","","",""
"null","","html-keyboard-response","574","3467517","0.0-15.0-1.30","l","COGS219_2020_08","<p style=""font-size: 48px;"">+</p>","null","2","","","","","","",""
"423.50499995518476","","image-keyboard-response","575","3467942","0.0-15.0-2.30","l","COGS219_2020_08","Images/gun_2.png","65","2","1581548666453","non-match","gun","train","sound","test","true"
"null","","audio-keyboard-response","576","3469951","0.0-15.0-3.30","l","COGS219_2020_08","Sounds/correct.wav","null","2","","","","","","",""
"null","","audio-keyboard-response","577","3470848","0.0-15.0-0.31","l","COGS219_2020_08","Sounds/frog_label.wav","null","2","","","","","","",""
"null","","html-keyboard-response","578","3471850","0.0-15.0-1.31","l","COGS219_2020_08","<p style=""font-size: 48px;"">+</p>","null","2","","","","","","",""
"410.7050000457093","","image-keyboard-response","579","3472262","0.0-15.0-2.31","l","COGS219_2020_08","Images/motorcycle_2.png","65","2","1581548670786","non-match","motorcycle","frog","label","test","true"
"null","","audio-keyboard-response","580","3474268","0.0-15.0-3.31","l","COGS219_2020_08","Sounds/correct.wav","null","2","","","","","","",""
"null","","audio-keyboard-response","581","3475388","0.0-15.0-0.32","l","COGS219_2020_08","Sounds/motorcycle_label.wav","null","2","","","","","","",""
"null","","html-keyboard-response","582","3476383","0.0-15.0-1.32","l","COGS219_2020_08","<p style=""font-size: 48px;"">+</p>","null","2","","","","","","",""
"693.8999999547377","","image-keyboard-response","583","3477079","0.0-15.0-2.32","l","COGS219_2020_08","Images/cat_cartoon.png","65","2","1581548675320","non-match","cat","motorcycle","label","test","true"
"null","","audio-keyboard-response","584","3479087","0.0-15.0-3.32","l","COGS219_2020_08","Sounds/correct.wav","null","2","","","","","","",""
"null","","audio-keyboard-response","585","3480108","0.0-15.0-0.33","l","COGS219_2020_08","Sounds/cow_label.wav","null","2","","","","","","",""
"null","","html-keyboard-response","586","3481100","0.0-15.0-1.33","l","COGS219_2020_08","<p style=""font-size: 48px;"">+</p>","null","2","","","","","","",""
"488.64000011235476","","image-keyboard-response","587","3481590","0.0-15.0-2.33","l","COGS219_2020_08","Images/cow_2.png","76","2","1581548680037","match","cow","cow","label","test","true"
"null","","audio-keyboard-response","588","3483595","0.0-15.0-3.33","l","COGS219_2020_08","Sounds/correct.wav","null","2","","","","","","",""
"null","","audio-keyboard-response","589","3484288","0.0-15.0-0.34","l","COGS219_2020_08","Sounds/whistle_label.wav","null","2","","","","","","",""
"null","","html-keyboard-response","590","3485284","0.0-15.0-1.34","l","COGS219_2020_08","<p style=""font-size: 48px;"">+</p>","null","2","","","","","","",""
"449.4500000728294","","image-keyboard-response","591","3485734","0.0-15.0-2.34","l","COGS219_2020_08","Images/whistle_cartoon.png","76","2","1581548684220","match","whistle","whistle","label","test","true"
"null","","audio-keyboard-response","592","3487748","0.0-15.0-3.34","l","COGS219_2020_08","Sounds/correct.wav","null","2","","","","","","",""
"null","","audio-keyboard-response","593","3488408","0.0-15.0-0.35","l","COGS219_2020_08","Sounds/dog_label.wav","null","2","","","","","","",""
"null","","html-keyboard-response","594","3489401","0.0-15.0-1.35","l","COGS219_2020_08","<p style=""font-size: 48px;"">+</p>","null","2","","","","","","",""
"684.5550000434741","","image-keyboard-response","595","3490086","0.0-15.0-2.35","l","COGS219_2020_08","Images/car_cartoon.png","65","2","1581548688337","non-match","car","dog","label","test","true"
"null","","audio-keyboard-response","596","3492089","0.0-15.0-3.35","l","COGS219_2020_08","Sounds/correct.wav","null","2","","","","","","",""
"null","","audio-keyboard-response","597","3492928","0.0-15.0-0.36","l","COGS219_2020_08","Sounds/cat_label.wav","null","2","","","","","","",""
"null","","html-keyboard-response","598","3493917","0.0-15.0-1.36","l","COGS219_2020_08","<p style=""font-size: 48px;"">+</p>","null","2","","","","","","",""
"663.910000002943","","image-keyboard-response","599","3494582","0.0-15.0-2.36","l","COGS219_2020_08","Images/cow_cartoon.png","65","2","1581548692853","non-match","cow","cat","label","test","true"
"null","","audio-keyboard-response","600","3496600","0.0-15.0-3.36","l","COGS219_2020_08","Sounds/correct.wav","null","2","","","","","","",""
"null","","audio-keyboard-response","601","3497688","0.0-15.0-0.37","l","COGS219_2020_08","Sounds/car_label.wav","null","2","","","","","","",""
"null","","html-keyboard-response","602","3498684","0.0-15.0-1.37","l","COGS219_2020_08","<p style=""font-size: 48px;"">+</p>","null","2","","","","","","",""
"889.0799999935552","","image-keyboard-response","603","3499574","0.0-15.0-2.37","l","COGS219_2020_08","Images/car_2.png","76","2","1581548697620","match","car","car","label","test","true"
"null","","audio-keyboard-response","604","3501582","0.0-15.0-3.37","l","COGS219_2020_08","Sounds/correct.wav","null","2","","","","","","",""
"null","","audio-keyboard-response","605","3502268","0.0-15.0-0.38","l","COGS219_2020_08","Sounds/whistle_label.wav","null","2","","","","","","",""
