"rt","responses","trial_type","trial_index","time_elapsed","internal_node_id","match_key","participant_id","stimulus","key_press","block","stim_onset","match_type","image_category","sound_category","audio_type","phase","correct"
"62444.209999986924","{""Q0"":""COGS219_2020_26""}","survey-text","0","62474","0.0-0.0","a","COGS219_2020_26","","","","","","","","","",""
"34846.84500005096","","html-keyboard-response","1","97332","0.0-1.0","a","COGS219_2020_26","<p>Use KEYBOARD 2 (match LEFT)</p><p>Press MATCH to continue.</p>","65","","","","","","","",""
"1826525.3050000174","","html-keyboard-response","2","1923587","0.0-2.0","a","COGS219_2020_26","<p>Welcome to the experiment.</p>","40","","","","","","","",""
"14224.919999949634","","html-keyboard-response","3","1937817","0.0-3.0","a","COGS219_2020_26","<p>Thank you for agreeing to participate in this study.</p><p>If during any part of the procedure you must stop for any reason, please inform the researcher that you do not wish to continue.</p>","39","","","","","","","",""
"18847.769999993034","","html-keyboard-response","4","1956666","0.0-4.0","a","COGS219_2020_26","<p>In this experiment, you will hear various words or sounds and see pictures of various animals and objects.</p><p>Most of the images will be of common everyday objects, such as cars, cats, cows, firearms, frogs, chickens, whistles, trains, motorcycles, and dogs.</p><p>Some of the images will be real-life stills, while others will be cartoons.</p>","39","","","","","","","",""
"15798.320000059903","","html-keyboard-response","5","1972466","0.0-5.0","a","COGS219_2020_26","<p>Sometimes, the word/sound will match the picture, for example you'll hear a meowing sound and see a cat.</p><p>Other times, the picture will not match the sound or word.</p><p>Your task is to decide as quickly as possible if the word/sound matches the picture or not. </p>","39","","","","","","","",""
"12182.934999931604","","html-keyboard-response","6","1984640","0.0-6.0","a","COGS219_2020_26","<p>For example, if you hear the word ""cat"" or hear a meowing sound, and then see a picture of a cat, you should press the MATCH key.</p><p> If the sound and image do not match, press the NOT-MATCH key to indicate that there is not a match.</p>","39","","","","","","","",""
"11174.619999947026","","html-keyboard-response","7","1995816","0.0-7.0","a","COGS219_2020_26","<p>If you make a mistake, you will hear a buzzing sound instead of a more pleasant sound.</p><p> Try to respond as quickly as possible, while making as few errors as possible. If you are making mistakes, you are probably rushing.</p>","39","","","","","","","",""
"10118.875000043772","","html-keyboard-response","8","2005936","0.0-8.0","a","COGS219_2020_26","<p>Please try to not move or blink your eyes during the presentation of the images. You can move and blink between images.</p><p>During the experiment there will be some breaks during which you can rest your eyes.</p>","39","","","","","","","",""
"4350.570000009611","","html-keyboard-response","9","2010287","0.0-9.0","a","COGS219_2020_26","<p>We will begin with 10 practice trials. Please let the experimenter know if you have any questions.</p>","39","","","","","","","",""
"null","","audio-keyboard-response","10","2011649","0.0-10.0-0.0","a","COGS219_2020_26","Sounds/train_label.wav","null","0","","","","","","",""
"null","","html-keyboard-response","11","2012652","0.0-10.0-1.0","a","COGS219_2020_26","<p style=""font-size: 48px;"">+</p>","null","0","","","","","","",""
"1073.2800000114366","","image-keyboard-response","12","2013727","0.0-10.0-2.0","a","COGS219_2020_26","Images/train_orig.png","65","0","1582573342216","match","train","train","label","practice","true"
"null","","audio-keyboard-response","13","2015740","0.0-10.0-3.0","a","COGS219_2020_26","Sounds/correct.wav","null","0","","","","","","",""
"null","","audio-keyboard-response","14","2016809","0.0-10.0-0.1","a","COGS219_2020_26","Sounds/car_sound.wav","null","0","","","","","","",""
"null","","html-keyboard-response","15","2017802","0.0-10.0-1.1","a","COGS219_2020_26","<p style=""font-size: 48px;"">+</p>","null","0","","","","","","",""
"2820.0149999465793","","image-keyboard-response","16","2020623","0.0-10.0-2.1","a","COGS219_2020_26","Images/car_3.png","76","0","1582573347366","match","car","car","sound","practice","false"
"null","","audio-keyboard-response","17","2022628","0.0-10.0-3.1","a","COGS219_2020_26","Sounds/incorrect.wav","null","0","","","","","","",""
"null","","audio-keyboard-response","18","2023769","0.0-10.0-0.2","a","COGS219_2020_26","Sounds/motorcycle_label.wav","null","0","","","","","","",""
"null","","html-keyboard-response","19","2024768","0.0-10.0-1.2","a","COGS219_2020_26","<p style=""font-size: 48px;"">+</p>","null","0","","","","","","",""
"717.255000025034","","image-keyboard-response","20","2025487","0.0-10.0-2.2","a","COGS219_2020_26","Images/motorcycle_3.png","65","0","1582573354333","match","motorcycle","motorcycle","label","practice","true"
"null","","audio-keyboard-response","21","2027492","0.0-10.0-3.2","a","COGS219_2020_26","Sounds/correct.wav","null","0","","","","","","",""
"null","","audio-keyboard-response","22","2028329","0.0-10.0-0.3","a","COGS219_2020_26","Sounds/cat_label.wav","null","0","","","","","","",""
"null","","html-keyboard-response","23","2029318","0.0-10.0-1.3","a","COGS219_2020_26","<p style=""font-size: 48px;"">+</p>","null","0","","","","","","",""
"719.8799999896437","","image-keyboard-response","24","2030039","0.0-10.0-2.3","a","COGS219_2020_26","Images/rooster_3.png","76","0","1582573358882","non-match","rooster","cat","label","practice","true"
"null","","audio-keyboard-response","25","2032042","0.0-10.0-3.3","a","COGS219_2020_26","Sounds/correct.wav","null","0","","","","","","",""
"null","","audio-keyboard-response","26","2032749","0.0-10.0-0.4","a","COGS219_2020_26","Sounds/whistle_sound.wav","null","0","","","","","","",""
"null","","html-keyboard-response","27","2033752","0.0-10.0-1.4","a","COGS219_2020_26","<p style=""font-size: 48px;"">+</p>","null","0","","","","","","",""
"718.155000009574","","image-keyboard-response","28","2034471","0.0-10.0-2.4","a","COGS219_2020_26","Images/car_3.png","76","0","1582573363316","non-match","car","whistle","sound","practice","true"
"null","","audio-keyboard-response","29","2036474","0.0-10.0-3.4","a","COGS219_2020_26","Sounds/correct.wav","null","0","","","","","","",""
"null","","audio-keyboard-response","30","2037129","0.0-10.0-0.5","a","COGS219_2020_26","Sounds/dog_label.wav","null","0","","","","","","",""
"null","","html-keyboard-response","31","2038119","0.0-10.0-1.5","a","COGS219_2020_26","<p style=""font-size: 48px;"">+</p>","null","0","","","","","","",""
"615.1049999753013","","image-keyboard-response","32","2038735","0.0-10.0-2.5","a","COGS219_2020_26","Images/rooster_1.png","76","0","1582573367683","non-match","rooster","dog","label","practice","true"
"null","","audio-keyboard-response","33","2040741","0.0-10.0-3.5","a","COGS219_2020_26","Sounds/correct.wav","null","0","","","","","","",""
"null","","audio-keyboard-response","34","2041369","0.0-10.0-0.6","a","COGS219_2020_26","Sounds/dog_label.wav","null","0","","","","","","",""
"null","","html-keyboard-response","35","2042369","0.0-10.0-1.6","a","COGS219_2020_26","<p style=""font-size: 48px;"">+</p>","null","0","","","","","","",""
"612.8150000004098","","image-keyboard-response","36","2042983","0.0-10.0-2.6","a","COGS219_2020_26","Images/cat_1.png","76","0","1582573371933","non-match","cat","dog","label","practice","true"
"null","","audio-keyboard-response","37","2045001","0.0-10.0-3.6","a","COGS219_2020_26","Sounds/correct.wav","null","0","","","","","","",""
"null","","audio-keyboard-response","38","2045819","0.0-10.0-0.7","a","COGS219_2020_26","Sounds/cat_label.wav","null","0","","","","","","",""
"null","","html-keyboard-response","39","2046812","0.0-10.0-1.7","a","COGS219_2020_26","<p style=""font-size: 48px;"">+</p>","null","0","","","","","","",""
"532.024999964051","","image-keyboard-response","40","2047345","0.0-10.0-2.7","a","COGS219_2020_26","Images/cow_cartoon.png","76","0","1582573376376","non-match","cow","cat","label","practice","true"
"null","","audio-keyboard-response","41","2049351","0.0-10.0-3.7","a","COGS219_2020_26","Sounds/correct.wav","null","0","","","","","","",""
"null","","audio-keyboard-response","42","2050059","0.0-10.0-0.8","a","COGS219_2020_26","Sounds/rooster_label.wav","null","0","","","","","","",""
"null","","html-keyboard-response","43","2051062","0.0-10.0-1.8","a","COGS219_2020_26","<p style=""font-size: 48px;"">+</p>","null","0","","","","","","",""
"641.5050000650808","","image-keyboard-response","44","2051705","0.0-10.0-2.8","a","COGS219_2020_26","Images/motorcycle_3.png","76","0","1582573380626","non-match","motorcycle","rooster","label","practice","true"
"null","","audio-keyboard-response","45","2053716","0.0-10.0-3.8","a","COGS219_2020_26","Sounds/correct.wav","null","0","","","","","","",""
"null","","audio-keyboard-response","46","2054799","0.0-10.0-0.9","a","COGS219_2020_26","Sounds/car_sound.wav","null","0","","","","","","",""
"null","","html-keyboard-response","47","2055795","0.0-10.0-1.9","a","COGS219_2020_26","<p style=""font-size: 48px;"">+</p>","null","0","","","","","","",""
"564.4699999829754","","image-keyboard-response","48","2056361","0.0-10.0-2.9","a","COGS219_2020_26","Images/car_1.png","65","0","1582573385360","match","car","car","sound","practice","true"
"null","","audio-keyboard-response","49","2058369","0.0-10.0-3.9","a","COGS219_2020_26","Sounds/correct.wav","null","0","","","","","","",""
"18023.664999986067","","html-keyboard-response","50","2076393","0.0-11.0","a","COGS219_2020_26","<p>The rest of the experiment is divided into five blocks with 100 trials in each block. It will take about 45 minutes to complete.</p><p>The experimenter will be in the outer room and you can communicate with them through the monitor if you have any questions or wish to stop the experiment.</p>","39","","","","","","","",""
"9966.669999994338","","html-keyboard-response","51","2086361","0.0-12.0","a","COGS219_2020_26","<p>Remember, please try not to move or blink your eyes during the presentation of the images. </p><p>At the end of the experiment, we will show you your scores on the task so you can see how you did.</p><p>The experiment will start on the next screen.</p>","39","","","","","","","",""
"null","","audio-keyboard-response","52","2089045","0.0-13.0-0.0","a","COGS219_2020_26","Sounds/dog_label.wav","null","1","","","","","","",""
"null","","html-keyboard-response","53","2090063","0.0-13.0-1.0","a","COGS219_2020_26","<p style=""font-size: 48px;"">+</p>","null","1","","","","","","",""
"785.3749999776483","","image-keyboard-response","54","2090849","0.0-13.0-2.0","a","COGS219_2020_26","Images/dog_3.png","65","1","1582573419627","match","dog","dog","label","test","true"
"null","","audio-keyboard-response","55","2092867","0.0-13.0-3.0","a","COGS219_2020_26","Sounds/correct.wav","null","1","","","","","","",""
"null","","audio-keyboard-response","56","2094146","0.0-13.0-0.1","a","COGS219_2020_26","Sounds/train_label.wav","null","1","","","","","","",""
"null","","html-keyboard-response","57","2095162","0.0-13.0-1.1","a","COGS219_2020_26","<p style=""font-size: 48px;"">+</p>","null","1","","","","","","",""
"597.0599999418482","","image-keyboard-response","58","2095761","0.0-13.0-2.1","a","COGS219_2020_26","Images/train_cartoon.png","65","1","1582573424727","match","train","train","label","test","true"
"null","","audio-keyboard-response","59","2097768","0.0-13.0-3.1","a","COGS219_2020_26","Sounds/correct.wav","null","1","","","","","","",""
"null","","audio-keyboard-response","60","2099064","0.0-13.0-0.2","a","COGS219_2020_26","Sounds/train_sound.wav","null","1","","","","","","",""
"null","","html-keyboard-response","61","2100063","0.0-13.0-1.2","a","COGS219_2020_26","<p style=""font-size: 48px;"">+</p>","null","1","","","","","","",""
"505.06999995559454","","image-keyboard-response","62","2100569","0.0-13.0-2.2","a","COGS219_2020_26","Images/train_1.png","65","1","1582573429627","match","train","train","sound","test","true"
"null","","audio-keyboard-response","63","2102584","0.0-13.0-3.2","a","COGS219_2020_26","Sounds/correct.wav","null","1","","","","","","",""
"null","","audio-keyboard-response","64","2103165","0.0-13.0-0.3","a","COGS219_2020_26","Sounds/gun_sound.wav","null","1","","","","","","",""
"null","","html-keyboard-response","65","2104163","0.0-13.0-1.3","a","COGS219_2020_26","<p style=""font-size: 48px;"">+</p>","null","1","","","","","","",""
"685.3000000119209","","image-keyboard-response","66","2104849","0.0-13.0-2.3","a","COGS219_2020_26","Images/gun_cartoon.png","65","1","1582573433727","match","gun","gun","sound","test","true"
"null","","audio-keyboard-response","67","2106867","0.0-13.0-3.3","a","COGS219_2020_26","Sounds/correct.wav","null","1","","","","","","",""
"null","","audio-keyboard-response","68","2107525","0.0-13.0-0.4","a","COGS219_2020_26","Sounds/dog_label.wav","null","1","","","","","","",""
"null","","html-keyboard-response","69","2108529","0.0-13.0-1.4","a","COGS219_2020_26","<p style=""font-size: 48px;"">+</p>","null","1","","","","","","",""
"454.15999996475875","","image-keyboard-response","70","2108985","0.0-13.0-2.4","a","COGS219_2020_26","Images/motorcycle_cartoon.png","76","1","1582573438094","non-match","motorcycle","dog","label","test","true"
"null","","audio-keyboard-response","71","2111000","0.0-13.0-3.4","a","COGS219_2020_26","Sounds/correct.wav","null","1","","","","","","",""
"null","","audio-keyboard-response","72","2111905","0.0-13.0-0.5","a","COGS219_2020_26","Sounds/frog_sound.wav","null","1","","","","","","",""
"null","","html-keyboard-response","73","2112896","0.0-13.0-1.5","a","COGS219_2020_26","<p style=""font-size: 48px;"">+</p>","null","1","","","","","","",""
"487.55000007804483","","image-keyboard-response","74","2113385","0.0-13.0-2.5","a","COGS219_2020_26","Images/rooster_3.png","76","1","1582573442460","non-match","rooster","frog","sound","test","true"
"null","","audio-keyboard-response","75","2115400","0.0-13.0-3.5","a","COGS219_2020_26","Sounds/correct.wav","null","1","","","","","","",""
"null","","audio-keyboard-response","76","2115945","0.0-13.0-0.6","a","COGS219_2020_26","Sounds/gun_sound.wav","null","1","","","","","","",""
"null","","html-keyboard-response","77","2116963","0.0-13.0-1.6","a","COGS219_2020_26","<p style=""font-size: 48px;"">+</p>","null","1","","","","","","",""
"885.3399999206886","","image-keyboard-response","78","2117849","0.0-13.0-2.6","a","COGS219_2020_26","Images/train_2.png","76","1","1582573446527","non-match","train","gun","sound","test","true"
"null","","audio-keyboard-response","79","2119867","0.0-13.0-3.6","a","COGS219_2020_26","Sounds/correct.wav","null","1","","","","","","",""
"null","","audio-keyboard-response","80","2121145","0.0-13.0-0.7","a","COGS219_2020_26","Sounds/train_label.wav","null","1","","","","","","",""
"null","","html-keyboard-response","81","2122163","0.0-13.0-1.7","a","COGS219_2020_26","<p style=""font-size: 48px;"">+</p>","null","1","","","","","","",""
"469.09000002779067","","image-keyboard-response","82","2122633","0.0-13.0-2.7","a","COGS219_2020_26","Images/cow_3.png","76","1","1582573451727","non-match","cow","train","label","test","true"
"null","","audio-keyboard-response","83","2124651","0.0-13.0-3.7","a","COGS219_2020_26","Sounds/correct.wav","null","1","","","","","","",""
"null","","audio-keyboard-response","84","2125345","0.0-13.0-0.8","a","COGS219_2020_26","Sounds/whistle_sound.wav","null","1","","","","","","",""
"null","","html-keyboard-response","85","2126363","0.0-13.0-1.8","a","COGS219_2020_26","<p style=""font-size: 48px;"">+</p>","null","1","","","","","","",""
"564.8100000107661","","image-keyboard-response","86","2126929","0.0-13.0-2.8","a","COGS219_2020_26","Images/whistle_cartoon.png","65","1","1582573455927","match","whistle","whistle","sound","test","true"
"null","","audio-keyboard-response","87","2128935","0.0-13.0-3.8","a","COGS219_2020_26","Sounds/correct.wav","null","1","","","","","","",""
"null","","audio-keyboard-response","88","2129625","0.0-13.0-0.9","a","COGS219_2020_26","Sounds/rooster_sound.wav","null","1","","","","","","",""
"null","","html-keyboard-response","89","2130613","0.0-13.0-1.9","a","COGS219_2020_26","<p style=""font-size: 48px;"">+</p>","null","1","","","","","","",""
"523.2700000051409","","image-keyboard-response","90","2131137","0.0-13.0-2.9","a","COGS219_2020_26","Images/train_cartoon.png","76","1","1582573460177","non-match","train","rooster","sound","test","true"
"null","","audio-keyboard-response","91","2133150","0.0-13.0-3.9","a","COGS219_2020_26","Sounds/correct.wav","null","1","","","","","","",""
"null","","audio-keyboard-response","92","2134225","0.0-13.0-0.10","a","COGS219_2020_26","Sounds/car_sound.wav","null","1","","","","","","",""
"null","","html-keyboard-response","93","2135230","0.0-13.0-1.10","a","COGS219_2020_26","<p style=""font-size: 48px;"">+</p>","null","1","","","","","","",""
"361.8700000224635","","image-keyboard-response","94","2135593","0.0-13.0-2.10","a","COGS219_2020_26","Images/car_1.png","65","1","1582573464794","match","car","car","sound","test","true"
"null","","audio-keyboard-response","95","2137602","0.0-13.0-3.10","a","COGS219_2020_26","Sounds/correct.wav","null","1","","","","","","",""
"null","","audio-keyboard-response","96","2138265","0.0-13.0-0.11","a","COGS219_2020_26","Sounds/rooster_sound.wav","null","1","","","","","","",""
"null","","html-keyboard-response","97","2139263","0.0-13.0-1.11","a","COGS219_2020_26","<p style=""font-size: 48px;"">+</p>","null","1","","","","","","",""
"504.8299999907613","","image-keyboard-response","98","2139769","0.0-13.0-2.11","a","COGS219_2020_26","Images/gun_3.png","76","1","1582573468827","non-match","gun","rooster","sound","test","true"
"null","","audio-keyboard-response","99","2141784","0.0-13.0-3.11","a","COGS219_2020_26","Sounds/correct.wav","null","1","","","","","","",""
"null","","audio-keyboard-response","100","2142365","0.0-13.0-0.12","a","COGS219_2020_26","Sounds/gun_label.wav","null","1","","","","","","",""
"null","","html-keyboard-response","101","2143363","0.0-13.0-1.12","a","COGS219_2020_26","<p style=""font-size: 48px;"">+</p>","null","1","","","","","","",""
"468.8000000314787","","image-keyboard-response","102","2143833","0.0-13.0-2.12","a","COGS219_2020_26","Images/whistle_cartoon.png","65","1","1582573472927","non-match","whistle","gun","label","test","false"
"null","","audio-keyboard-response","103","2145850","0.0-13.0-3.12","a","COGS219_2020_26","Sounds/incorrect.wav","null","1","","","","","","",""
"null","","audio-keyboard-response","104","2146985","0.0-13.0-0.13","a","COGS219_2020_26","Sounds/motorcycle_label.wav","null","1","","","","","","",""
"null","","html-keyboard-response","105","2147980","0.0-13.0-1.13","a","COGS219_2020_26","<p style=""font-size: 48px;"">+</p>","null","1","","","","","","",""
"540.0249999947846","","image-keyboard-response","106","2148521","0.0-13.0-2.13","a","COGS219_2020_26","Images/motorcycle_3.png","65","1","1582573477544","match","motorcycle","motorcycle","label","test","true"
"null","","audio-keyboard-response","107","2150534","0.0-13.0-3.13","a","COGS219_2020_26","Sounds/correct.wav","null","1","","","","","","",""
"null","","audio-keyboard-response","108","2151245","0.0-13.0-0.14","a","COGS219_2020_26","Sounds/dog_sound.wav","null","1","","","","","","",""
"null","","html-keyboard-response","109","2152263","0.0-13.0-1.14","a","COGS219_2020_26","<p style=""font-size: 48px;"">+</p>","null","1","","","","","","",""
"552.5249999482185","","image-keyboard-response","110","2152817","0.0-13.0-2.14","a","COGS219_2020_26","Images/gun_2.png","76","1","1582573481827","non-match","gun","dog","sound","test","true"
"null","","audio-keyboard-response","111","2154834","0.0-13.0-3.14","a","COGS219_2020_26","Sounds/correct.wav","null","1","","","","","","",""
"null","","audio-keyboard-response","112","2155685","0.0-13.0-0.15","a","COGS219_2020_26","Sounds/cat_label.wav","null","1","","","","","","",""
"null","","html-keyboard-response","113","2156680","0.0-13.0-1.15","a","COGS219_2020_26","<p style=""font-size: 48px;"">+</p>","null","1","","","","","","",""
"720.2650000108406","","image-keyboard-response","114","2157401","0.0-13.0-2.15","a","COGS219_2020_26","Images/cat_orig.png","65","1","1582573486244","match","cat","cat","label","test","true"
"null","","audio-keyboard-response","115","2159418","0.0-13.0-3.15","a","COGS219_2020_26","Sounds/correct.wav","null","1","","","","","","",""
"null","","audio-keyboard-response","116","2160125","0.0-13.0-0.16","a","COGS219_2020_26","Sounds/rooster_sound.wav","null","1","","","","","","",""
"null","","html-keyboard-response","117","2161113","0.0-13.0-1.16","a","COGS219_2020_26","<p style=""font-size: 48px;"">+</p>","null","1","","","","","","",""
"598.3850000193343","","image-keyboard-response","118","2161713","0.0-13.0-2.16","a","COGS219_2020_26","Images/whistle_1.png","76","1","1582573490677","non-match","whistle","rooster","sound","test","true"
"null","","audio-keyboard-response","119","2163720","0.0-13.0-3.16","a","COGS219_2020_26","Sounds/correct.wav","null","1","","","","","","",""
"null","","audio-keyboard-response","120","2164745","0.0-13.0-0.17","a","COGS219_2020_26","Sounds/cow_label.wav","null","1","","","","","","",""
"null","","html-keyboard-response","121","2165747","0.0-13.0-1.17","a","COGS219_2020_26","<p style=""font-size: 48px;"">+</p>","null","1","","","","","","",""
"389.25500004552305","","image-keyboard-response","122","2166137","0.0-13.0-2.17","a","COGS219_2020_26","Images/train_1.png","76","1","1582573495311","non-match","train","cow","label","test","true"
"null","","audio-keyboard-response","123","2168152","0.0-13.0-3.17","a","COGS219_2020_26","Sounds/correct.wav","null","1","","","","","","",""
"null","","audio-keyboard-response","124","2169285","0.0-13.0-0.18","a","COGS219_2020_26","Sounds/motorcycle_label.wav","null","1","","","","","","",""
"null","","html-keyboard-response","125","2170280","0.0-13.0-1.18","a","COGS219_2020_26","<p style=""font-size: 48px;"">+</p>","null","1","","","","","","",""
"400.03499994054437","","image-keyboard-response","126","2170681","0.0-13.0-2.18","a","COGS219_2020_26","Images/motorcycle_2.png","65","1","1582573499844","match","motorcycle","motorcycle","label","test","true"
"null","","audio-keyboard-response","127","2172685","0.0-13.0-3.18","a","COGS219_2020_26","Sounds/correct.wav","null","1","","","","","","",""
"null","","audio-keyboard-response","128","2173705","0.0-13.0-0.19","a","COGS219_2020_26","Sounds/cow_sound.wav","null","1","","","","","","",""
"null","","html-keyboard-response","129","2174697","0.0-13.0-1.19","a","COGS219_2020_26","<p style=""font-size: 48px;"">+</p>","null","1","","","","","","",""
"415.24500004015863","","image-keyboard-response","130","2175113","0.0-13.0-2.19","a","COGS219_2020_26","Images/rooster_orig.png","76","1","1582573504261","non-match","rooster","cow","sound","test","true"
"null","","audio-keyboard-response","131","2177120","0.0-13.0-3.19","a","COGS219_2020_26","Sounds/correct.wav","null","1","","","","","","",""
"null","","audio-keyboard-response","132","2177965","0.0-13.0-0.20","a","COGS219_2020_26","Sounds/cat_sound.wav","null","1","","","","","","",""
"null","","html-keyboard-response","133","2178964","0.0-13.0-1.20","a","COGS219_2020_26","<p style=""font-size: 48px;"">+</p>","null","1","","","","","","",""
"444.09499992616475","","image-keyboard-response","134","2179409","0.0-13.0-2.20","a","COGS219_2020_26","Images/cat_1.png","65","1","1582573508528","match","cat","cat","sound","test","true"
"null","","audio-keyboard-response","135","2181419","0.0-13.0-3.20","a","COGS219_2020_26","Sounds/correct.wav","null","1","","","","","","",""
"null","","audio-keyboard-response","136","2182005","0.0-13.0-0.21","a","COGS219_2020_26","Sounds/gun_label.wav","null","1","","","","","","",""
"null","","html-keyboard-response","137","2182997","0.0-13.0-1.21","a","COGS219_2020_26","<p style=""font-size: 48px;"">+</p>","null","1","","","","","","",""
"515.1100000366569","","image-keyboard-response","138","2183513","0.0-13.0-2.21","a","COGS219_2020_26","Images/car_2.png","76","1","1582573512561","non-match","car","gun","label","test","true"
"null","","audio-keyboard-response","139","2185519","0.0-13.0-3.21","a","COGS219_2020_26","Sounds/correct.wav","null","1","","","","","","",""
"null","","audio-keyboard-response","140","2186605","0.0-13.0-0.22","a","COGS219_2020_26","Sounds/car_label.wav","null","1","","","","","","",""
"null","","html-keyboard-response","141","2187597","0.0-13.0-1.22","a","COGS219_2020_26","<p style=""font-size: 48px;"">+</p>","null","1","","","","","","",""
"442.7849999628961","","image-keyboard-response","142","2188041","0.0-13.0-2.22","a","COGS219_2020_26","Images/dog_orig.png","76","1","1582573517161","non-match","dog","car","label","test","true"
"null","","audio-keyboard-response","143","2190052","0.0-13.0-3.22","a","COGS219_2020_26","Sounds/correct.wav","null","1","","","","","","",""
"null","","audio-keyboard-response","144","2191325","0.0-13.0-0.23","a","COGS219_2020_26","Sounds/train_label.wav","null","1","","","","","","",""
"null","","html-keyboard-response","145","2192331","0.0-13.0-1.23","a","COGS219_2020_26","<p style=""font-size: 48px;"">+</p>","null","1","","","","","","",""
"445.34000009298325","","image-keyboard-response","146","2192777","0.0-13.0-2.23","a","COGS219_2020_26","Images/gun_cartoon.png","76","1","1582573521894","non-match","gun","train","label","test","true"
"null","","audio-keyboard-response","147","2194786","0.0-13.0-3.23","a","COGS219_2020_26","Sounds/correct.wav","null","1","","","","","","",""
"null","","audio-keyboard-response","148","2195805","0.0-13.0-0.24","a","COGS219_2020_26","Sounds/cow_label.wav","null","1","","","","","","",""
"null","","html-keyboard-response","149","2196797","0.0-13.0-1.24","a","COGS219_2020_26","<p style=""font-size: 48px;"">+</p>","null","1","","","","","","",""
"475.08500004187226","","image-keyboard-response","150","2197273","0.0-13.0-2.24","a","COGS219_2020_26","Images/cow_3.png","76","1","1582573526361","match","cow","cow","label","test","false"
"null","","audio-keyboard-response","151","2199285","0.0-13.0-3.24","a","COGS219_2020_26","Sounds/incorrect.wav","null","1","","","","","","",""
"null","","audio-keyboard-response","152","2200305","0.0-13.0-0.25","a","COGS219_2020_26","Sounds/cow_sound.wav","null","1","","","","","","",""
"null","","html-keyboard-response","153","2201297","0.0-13.0-1.25","a","COGS219_2020_26","<p style=""font-size: 48px;"">+</p>","null","1","","","","","","",""
"542.7399999462068","","image-keyboard-response","154","2201841","0.0-13.0-2.25","a","COGS219_2020_26","Images/dog_2.png","76","1","1582573530861","non-match","dog","cow","sound","test","true"
"null","","audio-keyboard-response","155","2203851","0.0-13.0-3.25","a","COGS219_2020_26","Sounds/correct.wav","null","1","","","","","","",""
"null","","audio-keyboard-response","156","2204685","0.0-13.0-0.26","a","COGS219_2020_26","Sounds/cat_label.wav","null","1","","","","","","",""
"null","","html-keyboard-response","157","2205681","0.0-13.0-1.26","a","COGS219_2020_26","<p style=""font-size: 48px;"">+</p>","null","1","","","","","","",""
"383.31000006292015","","image-keyboard-response","158","2206065","0.0-13.0-2.26","a","COGS219_2020_26","Images/whistle_2.png","76","1","1582573535245","non-match","whistle","cat","label","test","true"
"null","","audio-keyboard-response","159","2208069","0.0-13.0-3.26","a","COGS219_2020_26","Sounds/correct.wav","null","1","","","","","","",""
"null","","audio-keyboard-response","160","2208985","0.0-13.0-0.27","a","COGS219_2020_26","Sounds/frog_sound.wav","null","1","","","","","","",""
"null","","html-keyboard-response","161","2209980","0.0-13.0-1.27","a","COGS219_2020_26","<p style=""font-size: 48px;"">+</p>","null","1","","","","","","",""
"595.5100000137463","","image-keyboard-response","162","2210577","0.0-13.0-2.27","a","COGS219_2020_26","Images/frog_1.png","65","1","1582573539545","match","frog","frog","sound","test","true"
"null","","audio-keyboard-response","163","2212587","0.0-13.0-3.27","a","COGS219_2020_26","Sounds/correct.wav","null","1","","","","","","",""
"null","","audio-keyboard-response","164","2213705","0.0-13.0-0.28","a","COGS219_2020_26","Sounds/motorcycle_sound.wav","null","1","","","","","","",""
"null","","html-keyboard-response","165","2214697","0.0-13.0-1.28","a","COGS219_2020_26","<p style=""font-size: 48px;"">+</p>","null","1","","","","","","",""
"773.8250000402331","","image-keyboard-response","166","2215473","0.0-13.0-2.28","a","COGS219_2020_26","Images/train_3.png","76","1","1582573544261","non-match","train","motorcycle","sound","test","true"
"null","","audio-keyboard-response","167","2217484","0.0-13.0-3.28","a","COGS219_2020_26","Sounds/correct.wav","null","1","","","","","","",""
"null","","audio-keyboard-response","168","2218185","0.0-13.0-0.29","a","COGS219_2020_26","Sounds/whistle_label.wav","null","1","","","","","","",""
"null","","html-keyboard-response","169","2219181","0.0-13.0-1.29","a","COGS219_2020_26","<p style=""font-size: 48px;"">+</p>","null","1","","","","","","",""
"587.0949999662116","","image-keyboard-response","170","2219769","0.0-13.0-2.29","a","COGS219_2020_26","Images/whistle_3.png","65","1","1582573548745","match","whistle","whistle","label","test","true"
"null","","audio-keyboard-response","171","2221784","0.0-13.0-3.29","a","COGS219_2020_26","Sounds/correct.wav","null","1","","","","","","",""
"null","","audio-keyboard-response","172","2222805","0.0-13.0-0.30","a","COGS219_2020_26","Sounds/cow_label.wav","null","1","","","","","","",""
"null","","html-keyboard-response","173","2223797","0.0-13.0-1.30","a","COGS219_2020_26","<p style=""font-size: 48px;"">+</p>","null","1","","","","","","",""
"443.0250000441447","","image-keyboard-response","174","2224241","0.0-13.0-2.30","a","COGS219_2020_26","Images/frog_orig.png","76","1","1582573553361","non-match","frog","cow","label","test","true"
"null","","audio-keyboard-response","175","2226251","0.0-13.0-3.30","a","COGS219_2020_26","Sounds/correct.wav","null","1","","","","","","",""
"null","","audio-keyboard-response","176","2227245","0.0-13.0-0.31","a","COGS219_2020_26","Sounds/cow_label.wav","null","1","","","","","","",""
"null","","html-keyboard-response","177","2228248","0.0-13.0-1.31","a","COGS219_2020_26","<p style=""font-size: 48px;"">+</p>","null","1","","","","","","",""
"464.4949999637902","","image-keyboard-response","178","2228713","0.0-13.0-2.31","a","COGS219_2020_26","Images/cow_orig.png","65","1","1582573557812","match","cow","cow","label","test","true"
"null","","audio-keyboard-response","179","2230721","0.0-13.0-3.31","a","COGS219_2020_26","Sounds/correct.wav","null","1","","","","","","",""
"null","","audio-keyboard-response","180","2231565","0.0-13.0-0.32","a","COGS219_2020_26","Sounds/cat_label.wav","null","1","","","","","","",""
"null","","html-keyboard-response","181","2232564","0.0-13.0-1.32","a","COGS219_2020_26","<p style=""font-size: 48px;"">+</p>","null","1","","","","","","",""
"684.015000006184","","image-keyboard-response","182","2233249","0.0-13.0-2.32","a","COGS219_2020_26","Images/rooster_1.png","76","1","1582573562129","non-match","rooster","cat","label","test","true"
"null","","audio-keyboard-response","183","2235255","0.0-13.0-3.32","a","COGS219_2020_26","Sounds/correct.wav","null","1","","","","","","",""
"null","","audio-keyboard-response","184","2236365","0.0-13.0-0.33","a","COGS219_2020_26","Sounds/motorcycle_sound.wav","null","1","","","","","","",""
"null","","html-keyboard-response","185","2237364","0.0-13.0-1.33","a","COGS219_2020_26","<p style=""font-size: 48px;"">+</p>","null","1","","","","","","",""
"460.10500006377697","","image-keyboard-response","186","2237826","0.0-13.0-2.33","a","COGS219_2020_26","Images/frog_3.png","76","1","1582573566929","non-match","frog","motorcycle","sound","test","true"
"null","","audio-keyboard-response","187","2239836","0.0-13.0-3.33","a","COGS219_2020_26","Sounds/correct.wav","null","1","","","","","","",""
"null","","audio-keyboard-response","188","2240905","0.0-13.0-0.34","a","COGS219_2020_26","Sounds/car_label.wav","null","1","","","","","","",""
"null","","html-keyboard-response","189","2241898","0.0-13.0-1.34","a","COGS219_2020_26","<p style=""font-size: 48px;"">+</p>","null","1","","","","","","",""
"470.3000000445172","","image-keyboard-response","190","2242369","0.0-13.0-2.34","a","COGS219_2020_26","Images/car_3.png","65","1","1582573571462","match","car","car","label","test","true"
"null","","audio-keyboard-response","191","2244385","0.0-13.0-3.34","a","COGS219_2020_26","Sounds/correct.wav","null","1","","","","","","",""
"null","","audio-keyboard-response","192","2245665","0.0-13.0-0.35","a","COGS219_2020_26","Sounds/train_label.wav","null","1","","","","","","",""
"null","","html-keyboard-response","193","2246665","0.0-13.0-1.35","a","COGS219_2020_26","<p style=""font-size: 48px;"">+</p>","null","1","","","","","","",""
"447.56999996025115","","image-keyboard-response","194","2247113","0.0-13.0-2.35","a","COGS219_2020_26","Images/train_2.png","65","1","1582573576229","match","train","train","label","test","true"
"null","","audio-keyboard-response","195","2249120","0.0-13.0-3.35","a","COGS219_2020_26","Sounds/correct.wav","null","1","","","","","","",""
"null","","audio-keyboard-response","196","2249705","0.0-13.0-0.36","a","COGS219_2020_26","Sounds/gun_sound.wav","null","1","","","","","","",""
"null","","html-keyboard-response","197","2250698","0.0-13.0-1.36","a","COGS219_2020_26","<p style=""font-size: 48px;"">+</p>","null","1","","","","","","",""
"374.515000032261","","image-keyboard-response","198","2251073","0.0-13.0-2.36","a","COGS219_2020_26","Images/gun_1.png","65","1","1582573580262","match","gun","gun","sound","test","true"
"null","","audio-keyboard-response","199","2253084","0.0-13.0-3.36","a","COGS219_2020_26","Sounds/correct.wav","null","1","","","","","","",""
"null","","audio-keyboard-response","200","2253785","0.0-13.0-0.37","a","COGS219_2020_26","Sounds/rooster_sound.wav","null","1","","","","","","",""
"null","","html-keyboard-response","201","2254781","0.0-13.0-1.37","a","COGS219_2020_26","<p style=""font-size: 48px;"">+</p>","null","1","","","","","","",""
"1162.7399999415502","","image-keyboard-response","202","2255945","0.0-13.0-2.37","a","COGS219_2020_26","Images/rooster_1.png","65","1","1582573584345","match","rooster","rooster","sound","test","true"
"null","","audio-keyboard-response","203","2257953","0.0-13.0-3.37","a","COGS219_2020_26","Sounds/correct.wav","null","1","","","","","","",""
"null","","audio-keyboard-response","204","2259245","0.0-13.0-0.38","a","COGS219_2020_26","Sounds/train_sound.wav","null","1","","","","","","",""
"null","","html-keyboard-response","205","2260248","0.0-13.0-1.38","a","COGS219_2020_26","<p style=""font-size: 48px;"">+</p>","null","1","","","","","","",""
"552.1050000097603","","image-keyboard-response","206","2260801","0.0-13.0-2.38","a","COGS219_2020_26","Images/motorcycle_orig.png","76","1","1582573589812","non-match","motorcycle","train","sound","test","true"
"null","","audio-keyboard-response","207","2262804","0.0-13.0-3.38","a","COGS219_2020_26","Sounds/correct.wav","null","1","","","","","","",""
"null","","audio-keyboard-response","208","2263645","0.0-13.0-0.39","a","COGS219_2020_26","Sounds/cat_label.wav","null","1","","","","","","",""
"null","","html-keyboard-response","209","2264648","0.0-13.0-1.39","a","COGS219_2020_26","<p style=""font-size: 48px;"">+</p>","null","1","","","","","","",""
"336.490000016056","","image-keyboard-response","210","2264986","0.0-13.0-2.39","a","COGS219_2020_26","Images/motorcycle_3.png","76","1","1582573594212","non-match","motorcycle","cat","label","test","true"
"null","","audio-keyboard-response","211","2267002","0.0-13.0-3.39","a","COGS219_2020_26","Sounds/correct.wav","null","1","","","","","","",""
"null","","audio-keyboard-response","212","2267705","0.0-13.0-0.40","a","COGS219_2020_26","Sounds/whistle_sound.wav","null","1","","","","","","",""
"null","","html-keyboard-response","213","2268698","0.0-13.0-1.40","a","COGS219_2020_26","<p style=""font-size: 48px;"">+</p>","null","1","","","","","","",""
"589.9300000164658","","image-keyboard-response","214","2269289","0.0-13.0-2.40","a","COGS219_2020_26","Images/gun_orig.png","76","1","1582573598262","non-match","gun","whistle","sound","test","true"
"null","","audio-keyboard-response","215","2271302","0.0-13.0-3.40","a","COGS219_2020_26","Sounds/correct.wav","null","1","","","","","","",""
"null","","audio-keyboard-response","216","2272005","0.0-13.0-0.41","a","COGS219_2020_26","Sounds/dog_sound.wav","null","1","","","","","","",""
"null","","html-keyboard-response","217","2272998","0.0-13.0-1.41","a","COGS219_2020_26","<p style=""font-size: 48px;"">+</p>","null","1","","","","","","",""
"514.1549999825656","","image-keyboard-response","218","2273513","0.0-13.0-2.41","a","COGS219_2020_26","Images/dog_orig.png","65","1","1582573602563","match","dog","dog","sound","test","true"
"null","","audio-keyboard-response","219","2275520","0.0-13.0-3.41","a","COGS219_2020_26","Sounds/correct.wav","null","1","","","","","","",""
"null","","audio-keyboard-response","220","2276205","0.0-13.0-0.42","a","COGS219_2020_26","Sounds/rooster_sound.wav","null","1","","","","","","",""
"null","","html-keyboard-response","221","2277198","0.0-13.0-1.42","a","COGS219_2020_26","<p style=""font-size: 48px;"">+</p>","null","1","","","","","","",""
"802.1500000031665","","image-keyboard-response","222","2278001","0.0-13.0-2.42","a","COGS219_2020_26","Images/rooster_3.png","65","1","1582573606762","match","rooster","rooster","sound","test","true"
"null","","audio-keyboard-response","223","2280007","0.0-13.0-3.42","a","COGS219_2020_26","Sounds/correct.wav","null","1","","","","","","",""
"null","","audio-keyboard-response","224","2280685","0.0-13.0-0.43","a","COGS219_2020_26","Sounds/whistle_sound.wav","null","1","","","","","","",""
"null","","html-keyboard-response","225","2281682","0.0-13.0-1.43","a","COGS219_2020_26","<p style=""font-size: 48px;"">+</p>","null","1","","","","","","",""
"566.675000009127","","image-keyboard-response","226","2282249","0.0-13.0-2.43","a","COGS219_2020_26","Images/whistle_orig.png","65","1","1582573611246","match","whistle","whistle","sound","test","true"
"null","","audio-keyboard-response","227","2284254","0.0-13.0-3.43","a","COGS219_2020_26","Sounds/correct.wav","null","1","","","","","","",""
"null","","audio-keyboard-response","228","2285325","0.0-13.0-0.44","a","COGS219_2020_26","Sounds/car_sound.wav","null","1","","","","","","",""
"null","","html-keyboard-response","229","2286315","0.0-13.0-1.44","a","COGS219_2020_26","<p style=""font-size: 48px;"">+</p>","null","1","","","","","","",""
"693.265000008978","","image-keyboard-response","230","2287009","0.0-13.0-2.44","a","COGS219_2020_26","Images/whistle_3.png","76","1","1582573615879","non-match","whistle","car","sound","test","true"
"null","","audio-keyboard-response","231","2289022","0.0-13.0-3.44","a","COGS219_2020_26","Sounds/correct.wav","null","1","","","","","","",""
"null","","audio-keyboard-response","232","2289685","0.0-13.0-0.45","a","COGS219_2020_26","Sounds/whistle_sound.wav","null","1","","","","","","",""
"null","","html-keyboard-response","233","2290682","0.0-13.0-1.45","a","COGS219_2020_26","<p style=""font-size: 48px;"">+</p>","null","1","","","","","","",""
"566.8300000252202","","image-keyboard-response","234","2291250","0.0-13.0-2.45","a","COGS219_2020_26","Images/whistle_2.png","65","1","1582573620246","match","whistle","whistle","sound","test","true"
"null","","audio-keyboard-response","235","2293256","0.0-13.0-3.45","a","COGS219_2020_26","Sounds/correct.wav","null","1","","","","","","",""
"null","","audio-keyboard-response","236","2293905","0.0-13.0-0.46","a","COGS219_2020_26","Sounds/dog_label.wav","null","1","","","","","","",""
"null","","html-keyboard-response","237","2294899","0.0-13.0-1.46","a","COGS219_2020_26","<p style=""font-size: 48px;"">+</p>","null","1","","","","","","",""
"413.79000002052635","","image-keyboard-response","238","2295314","0.0-13.0-2.46","a","COGS219_2020_26","Images/dog_1.png","65","1","1582573624463","match","dog","dog","label","test","true"
"null","","audio-keyboard-response","239","2297322","0.0-13.0-3.46","a","COGS219_2020_26","Sounds/correct.wav","null","1","","","","","","",""
"null","","audio-keyboard-response","240","2298165","0.0-13.0-0.47","a","COGS219_2020_26","Sounds/cat_label.wav","null","1","","","","","","",""
"null","","html-keyboard-response","241","2299166","0.0-13.0-1.47","a","COGS219_2020_26","<p style=""font-size: 48px;"">+</p>","null","1","","","","","","",""
"449.44500003475696","","image-keyboard-response","242","2299618","0.0-13.0-2.47","a","COGS219_2020_26","Images/cat_2.png","65","1","1582573628730","match","cat","cat","label","test","true"
"null","","audio-keyboard-response","243","2301620","0.0-13.0-3.47","a","COGS219_2020_26","Sounds/correct.wav","null","1","","","","","","",""
"null","","audio-keyboard-response","244","2302905","0.0-13.0-0.48","a","COGS219_2020_26","Sounds/train_label.wav","null","1","","","","","","",""
"null","","html-keyboard-response","245","2303899","0.0-13.0-1.48","a","COGS219_2020_26","<p style=""font-size: 48px;"">+</p>","null","1","","","","","","",""
"414.0050000278279","","image-keyboard-response","246","2304314","0.0-13.0-2.48","a","COGS219_2020_26","Images/train_3.png","65","1","1582573633463","match","train","train","label","test","true"
"null","","audio-keyboard-response","247","2306324","0.0-13.0-3.48","a","COGS219_2020_26","Sounds/correct.wav","null","1","","","","","","",""
"null","","audio-keyboard-response","248","2307405","0.0-13.0-0.49","a","COGS219_2020_26","Sounds/car_sound.wav","null","1","","","","","","",""
"null","","html-keyboard-response","249","2308399","0.0-13.0-1.49","a","COGS219_2020_26","<p style=""font-size: 48px;"">+</p>","null","1","","","","","","",""
"1009.7749999258667","","image-keyboard-response","250","2309410","0.0-13.0-2.49","a","COGS219_2020_26","Images/motorcycle_1.png","76","1","1582573637963","non-match","motorcycle","car","sound","test","true"
"null","","audio-keyboard-response","251","2311419","0.0-13.0-3.49","a","COGS219_2020_26","Sounds/correct.wav","null","1","","","","","","",""
"null","","audio-keyboard-response","252","2312465","0.0-13.0-0.50","a","COGS219_2020_26","Sounds/car_sound.wav","null","1","","","","","","",""
"null","","html-keyboard-response","253","2313466","0.0-13.0-1.50","a","COGS219_2020_26","<p style=""font-size: 48px;"">+</p>","null","1","","","","","","",""
"471.019999939017","","image-keyboard-response","254","2313938","0.0-13.0-2.50","a","COGS219_2020_26","Images/frog_1.png","76","1","1582573643030","non-match","frog","car","sound","test","true"
"null","","audio-keyboard-response","255","2315953","0.0-13.0-3.50","a","COGS219_2020_26","Sounds/correct.wav","null","1","","","","","","",""
"null","","audio-keyboard-response","256","2316845","0.0-13.0-0.51","a","COGS219_2020_26","Sounds/frog_label.wav","null","1","","","","","","",""
"null","","html-keyboard-response","257","2317849","0.0-13.0-1.51","a","COGS219_2020_26","<p style=""font-size: 48px;"">+</p>","null","1","","","","","","",""
"399.06999992672354","","image-keyboard-response","258","2318250","0.0-13.0-2.51","a","COGS219_2020_26","Images/car_cartoon.png","76","1","1582573647413","non-match","car","frog","label","test","true"
"null","","audio-keyboard-response","259","2320254","0.0-13.0-3.51","a","COGS219_2020_26","Sounds/correct.wav","null","1","","","","","","",""
"null","","audio-keyboard-response","260","2321125","0.0-13.0-0.52","a","COGS219_2020_26","Sounds/frog_label.wav","null","1","","","","","","",""
"null","","html-keyboard-response","261","2322116","0.0-13.0-1.52","a","COGS219_2020_26","<p style=""font-size: 48px;"">+</p>","null","1","","","","","","",""
"316.664999932982","","image-keyboard-response","262","2322434","0.0-13.0-2.52","a","COGS219_2020_26","Images/frog_orig.png","65","1","1582573651680","match","frog","frog","label","test","true"
"null","","audio-keyboard-response","263","2324438","0.0-13.0-3.52","a","COGS219_2020_26","Sounds/correct.wav","null","1","","","","","","",""
"null","","audio-keyboard-response","264","2325145","0.0-13.0-0.53","a","COGS219_2020_26","Sounds/rooster_label.wav","null","1","","","","","","",""
"null","","html-keyboard-response","265","2326149","0.0-13.0-1.53","a","COGS219_2020_26","<p style=""font-size: 48px;"">+</p>","null","1","","","","","","",""
"507.52500002272427","","image-keyboard-response","266","2326658","0.0-13.0-2.53","a","COGS219_2020_26","Images/rooster_2.png","65","1","1582573655713","match","rooster","rooster","label","test","true"
"null","","audio-keyboard-response","267","2328670","0.0-13.0-3.53","a","COGS219_2020_26","Sounds/correct.wav","null","1","","","","","","",""
"null","","audio-keyboard-response","268","2329365","0.0-13.0-0.54","a","COGS219_2020_26","Sounds/whistle_sound.wav","null","1","","","","","","",""
"null","","html-keyboard-response","269","2330366","0.0-13.0-1.54","a","COGS219_2020_26","<p style=""font-size: 48px;"">+</p>","null","1","","","","","","",""
"611.0200000694022","","image-keyboard-response","270","2330978","0.0-13.0-2.54","a","COGS219_2020_26","Images/whistle_1.png","65","1","1582573659930","match","whistle","whistle","sound","test","true"
"null","","audio-keyboard-response","271","2332987","0.0-13.0-3.54","a","COGS219_2020_26","Sounds/correct.wav","null","1","","","","","","",""
"null","","audio-keyboard-response","272","2333825","0.0-13.0-0.55","a","COGS219_2020_26","Sounds/cat_sound.wav","null","1","","","","","","",""
"null","","html-keyboard-response","273","2334816","0.0-13.0-1.55","a","COGS219_2020_26","<p style=""font-size: 48px;"">+</p>","null","1","","","","","","",""
"424.67500001657754","","image-keyboard-response","274","2335242","0.0-13.0-2.55","a","COGS219_2020_26","Images/car_3.png","76","1","1582573664380","non-match","car","cat","sound","test","true"
"null","","audio-keyboard-response","275","2337252","0.0-13.0-3.55","a","COGS219_2020_26","Sounds/correct.wav","null","1","","","","","","",""
"null","","audio-keyboard-response","276","2337926","0.0-13.0-0.56","a","COGS219_2020_26","Sounds/rooster_label.wav","null","1","","","","","","",""
"null","","html-keyboard-response","277","2338916","0.0-13.0-1.56","a","COGS219_2020_26","<p style=""font-size: 48px;"">+</p>","null","1","","","","","","",""
"668.6549999285489","","image-keyboard-response","278","2339586","0.0-13.0-2.56","a","COGS219_2020_26","Images/cat_cartoon.png","76","1","1582573668480","non-match","cat","rooster","label","test","true"
"null","","audio-keyboard-response","279","2341589","0.0-13.0-3.56","a","COGS219_2020_26","Sounds/correct.wav","null","1","","","","","","",""
"null","","audio-keyboard-response","280","2342165","0.0-13.0-0.57","a","COGS219_2020_26","Sounds/gun_label.wav","null","1","","","","","","",""
"null","","html-keyboard-response","281","2343166","0.0-13.0-1.57","a","COGS219_2020_26","<p style=""font-size: 48px;"">+</p>","null","1","","","","","","",""
"514.435000019148","","image-keyboard-response","282","2343682","0.0-13.0-2.57","a","COGS219_2020_26","Images/gun_3.png","65","1","1582573672730","match","gun","gun","label","test","true"
"null","","audio-keyboard-response","283","2345689","0.0-13.0-3.57","a","COGS219_2020_26","Sounds/correct.wav","null","1","","","","","","",""
"null","","audio-keyboard-response","284","2346765","0.0-13.0-0.58","a","COGS219_2020_26","Sounds/car_label.wav","null","1","","","","","","",""
"null","","html-keyboard-response","285","2347766","0.0-13.0-1.58","a","COGS219_2020_26","<p style=""font-size: 48px;"">+</p>","null","1","","","","","","",""
"482.62999998405576","","image-keyboard-response","286","2348250","0.0-13.0-2.58","a","COGS219_2020_26","Images/car_2.png","65","1","1582573677330","match","car","car","label","test","true"
"null","","audio-keyboard-response","287","2350255","0.0-13.0-3.58","a","COGS219_2020_26","Sounds/correct.wav","null","1","","","","","","",""
"null","","audio-keyboard-response","288","2350945","0.0-13.0-0.59","a","COGS219_2020_26","Sounds/rooster_sound.wav","null","1","","","","","","",""
"null","","html-keyboard-response","289","2351950","0.0-13.0-1.59","a","COGS219_2020_26","<p style=""font-size: 48px;"">+</p>","null","1","","","","","","",""
"458.8950000470504","","image-keyboard-response","290","2352410","0.0-13.0-2.59","a","COGS219_2020_26","Images/dog_3.png","76","1","1582573681514","non-match","dog","rooster","sound","test","true"
"null","","audio-keyboard-response","291","2354420","0.0-13.0-3.59","a","COGS219_2020_26","Sounds/correct.wav","null","1","","","","","","",""
"null","","audio-keyboard-response","292","2355086","0.0-13.0-0.60","a","COGS219_2020_26","Sounds/rooster_label.wav","null","1","","","","","","",""
"null","","html-keyboard-response","293","2356083","0.0-13.0-1.60","a","COGS219_2020_26","<p style=""font-size: 48px;"">+</p>","null","1","","","","","","",""
"630.0300000002608","","image-keyboard-response","294","2356714","0.0-13.0-2.60","a","COGS219_2020_26","Images/rooster_cartoon.png","65","1","1582573685647","match","rooster","rooster","label","test","true"
"null","","audio-keyboard-response","295","2358722","0.0-13.0-3.60","a","COGS219_2020_26","Sounds/correct.wav","null","1","","","","","","",""
"null","","audio-keyboard-response","296","2359426","0.0-13.0-0.61","a","COGS219_2020_26","Sounds/dog_sound.wav","null","1","","","","","","",""
"null","","html-keyboard-response","297","2360416","0.0-13.0-1.61","a","COGS219_2020_26","<p style=""font-size: 48px;"">+</p>","null","1","","","","","","",""
"408.38000003714114","","image-keyboard-response","298","2360826","0.0-13.0-2.61","a","COGS219_2020_26","Images/dog_2.png","65","1","1582573689980","match","dog","dog","sound","test","true"
"null","","audio-keyboard-response","299","2362837","0.0-13.0-3.61","a","COGS219_2020_26","Sounds/correct.wav","null","1","","","","","","",""
"null","","audio-keyboard-response","300","2363506","0.0-13.0-0.62","a","COGS219_2020_26","Sounds/dog_label.wav","null","1","","","","","","",""
"null","","html-keyboard-response","301","2364500","0.0-13.0-1.62","a","COGS219_2020_26","<p style=""font-size: 48px;"">+</p>","null","1","","","","","","",""
"396.9400000059977","","image-keyboard-response","302","2364898","0.0-13.0-2.62","a","COGS219_2020_26","Images/car_1.png","76","1","1582573694064","non-match","car","dog","label","test","true"
"null","","audio-keyboard-response","303","2366906","0.0-13.0-3.62","a","COGS219_2020_26","Sounds/correct.wav","null","1","","","","","","",""
"null","","audio-keyboard-response","304","2367926","0.0-13.0-0.63","a","COGS219_2020_26","Sounds/cow_sound.wav","null","1","","","","","","",""
"null","","html-keyboard-response","305","2368917","0.0-13.0-1.63","a","COGS219_2020_26","<p style=""font-size: 48px;"">+</p>","null","1","","","","","","",""
"532.3649999918416","","image-keyboard-response","306","2369450","0.0-13.0-2.63","a","COGS219_2020_26","Images/cow_1.png","65","1","1582573698481","match","cow","cow","sound","test","true"
"null","","audio-keyboard-response","307","2371457","0.0-13.0-3.63","a","COGS219_2020_26","Sounds/correct.wav","null","1","","","","","","",""
"null","","audio-keyboard-response","308","2372346","0.0-13.0-0.64","a","COGS219_2020_26","Sounds/frog_label.wav","null","1","","","","","","",""
"null","","html-keyboard-response","309","2373350","0.0-13.0-1.64","a","COGS219_2020_26","<p style=""font-size: 48px;"">+</p>","null","1","","","","","","",""
"610.8999999705702","","image-keyboard-response","310","2373962","0.0-13.0-2.64","a","COGS219_2020_26","Images/train_orig.png","76","1","1582573702914","non-match","train","frog","label","test","true"
"null","","audio-keyboard-response","311","2375972","0.0-13.0-3.64","a","COGS219_2020_26","Sounds/correct.wav","null","1","","","","","","",""
"null","","audio-keyboard-response","312","2376546","0.0-13.0-0.65","a","COGS219_2020_26","Sounds/gun_label.wav","null","1","","","","","","",""
"null","","html-keyboard-response","313","2377550","0.0-13.0-1.65","a","COGS219_2020_26","<p style=""font-size: 48px;"">+</p>","null","1","","","","","","",""
"402.1649999776855","","image-keyboard-response","314","2377954","0.0-13.0-2.65","a","COGS219_2020_26","Images/gun_orig.png","65","1","1582573707114","match","gun","gun","label","test","true"
"null","","audio-keyboard-response","315","2379971","0.0-13.0-3.65","a","COGS219_2020_26","Sounds/correct.wav","null","1","","","","","","",""
"null","","audio-keyboard-response","316","2381266","0.0-13.0-0.66","a","COGS219_2020_26","Sounds/train_sound.wav","null","1","","","","","","",""
"null","","html-keyboard-response","317","2382283","0.0-13.0-1.66","a","COGS219_2020_26","<p style=""font-size: 48px;"">+</p>","null","1","","","","","","",""
"589.6199999842793","","image-keyboard-response","318","2382874","0.0-13.0-2.66","a","COGS219_2020_26","Images/train_orig.png","65","1","1582573711847","match","train","train","sound","test","true"
"null","","audio-keyboard-response","319","2384889","0.0-13.0-3.66","a","COGS219_2020_26","Sounds/correct.wav","null","1","","","","","","",""
"null","","audio-keyboard-response","320","2385766","0.0-13.0-0.67","a","COGS219_2020_26","Sounds/frog_label.wav","null","1","","","","","","",""
"null","","html-keyboard-response","321","2386783","0.0-13.0-1.67","a","COGS219_2020_26","<p style=""font-size: 48px;"">+</p>","null","1","","","","","","",""
"449.3349998956546","","image-keyboard-response","322","2387234","0.0-13.0-2.67","a","COGS219_2020_26","Images/gun_1.png","76","1","1582573716347","non-match","gun","frog","label","test","true"
"null","","audio-keyboard-response","323","2389241","0.0-13.0-3.67","a","COGS219_2020_26","Sounds/correct.wav","null","1","","","","","","",""
"null","","audio-keyboard-response","324","2389946","0.0-13.0-0.68","a","COGS219_2020_26","Sounds/whistle_sound.wav","null","1","","","","","","",""
"null","","html-keyboard-response","325","2390950","0.0-13.0-1.68","a","COGS219_2020_26","<p style=""font-size: 48px;"">+</p>","null","1","","","","","","",""
"562.6400000182912","","image-keyboard-response","326","2391514","0.0-13.0-2.68","a","COGS219_2020_26","Images/motorcycle_2.png","76","1","1582573720514","non-match","motorcycle","whistle","sound","test","true"
"null","","audio-keyboard-response","327","2393522","0.0-13.0-3.68","a","COGS219_2020_26","Sounds/correct.wav","null","1","","","","","","",""
"null","","audio-keyboard-response","328","2394366","0.0-13.0-0.69","a","COGS219_2020_26","Sounds/cat_sound.wav","null","1","","","","","","",""
"null","","html-keyboard-response","329","2395383","0.0-13.0-1.69","a","COGS219_2020_26","<p style=""font-size: 48px;"">+</p>","null","1","","","","","","",""
"441.67500000912696","","image-keyboard-response","330","2395826","0.0-13.0-2.69","a","COGS219_2020_26","Images/cow_1.png","76","1","1582573724947","non-match","cow","cat","sound","test","true"
"null","","audio-keyboard-response","331","2397837","0.0-13.0-3.69","a","COGS219_2020_26","Sounds/correct.wav","null","1","","","","","","",""
"null","","audio-keyboard-response","332","2398486","0.0-13.0-0.70","a","COGS219_2020_26","Sounds/dog_label.wav","null","1","","","","","","",""
"null","","html-keyboard-response","333","2399483","0.0-13.0-1.70","a","COGS219_2020_26","<p style=""font-size: 48px;"">+</p>","null","1","","","","","","",""
"605.2700000582263","","image-keyboard-response","334","2400090","0.0-13.0-2.70","a","COGS219_2020_26","Images/rooster_cartoon.png","76","1","1582573729048","non-match","rooster","dog","label","test","true"
"null","","audio-keyboard-response","335","2402104","0.0-13.0-3.70","a","COGS219_2020_26","Sounds/correct.wav","null","1","","","","","","",""
"null","","audio-keyboard-response","336","2402986","0.0-13.0-0.71","a","COGS219_2020_26","Sounds/frog_label.wav","null","1","","","","","","",""
"null","","html-keyboard-response","337","2403984","0.0-13.0-1.71","a","COGS219_2020_26","<p style=""font-size: 48px;"">+</p>","null","1","","","","","","",""
"841.2200000602752","","image-keyboard-response","338","2404826","0.0-13.0-2.71","a","COGS219_2020_26","Images/cow_2.png","76","1","1582573733548","non-match","cow","frog","label","test","true"
"null","","audio-keyboard-response","339","2406837","0.0-13.0-3.71","a","COGS219_2020_26","Sounds/correct.wav","null","1","","","","","","",""
"null","","audio-keyboard-response","340","2407986","0.0-13.0-0.72","a","COGS219_2020_26","Sounds/motorcycle_label.wav","null","1","","","","","","",""
"null","","html-keyboard-response","341","2408984","0.0-13.0-1.72","a","COGS219_2020_26","<p style=""font-size: 48px;"">+</p>","null","1","","","","","","",""
"449.4050000794232","","image-keyboard-response","342","2409434","0.0-13.0-2.72","a","COGS219_2020_26","Images/whistle_orig.png","76","1","1582573738548","non-match","whistle","motorcycle","label","test","true"
"null","","audio-keyboard-response","343","2411439","0.0-13.0-3.72","a","COGS219_2020_26","Sounds/correct.wav","null","1","","","","","","",""
"null","","audio-keyboard-response","344","2412566","0.0-13.0-0.73","a","COGS219_2020_26","Sounds/motorcycle_sound.wav","null","1","","","","","","",""
"null","","html-keyboard-response","345","2413584","0.0-13.0-1.73","a","COGS219_2020_26","<p style=""font-size: 48px;"">+</p>","null","1","","","","","","",""
"457.04000000841916","","image-keyboard-response","346","2414042","0.0-13.0-2.73","a","COGS219_2020_26","Images/cat_2.png","76","1","1582573743148","non-match","cat","motorcycle","sound","test","true"
"null","","audio-keyboard-response","347","2416053","0.0-13.0-3.73","a","COGS219_2020_26","Sounds/correct.wav","null","1","","","","","","",""
"null","","audio-keyboard-response","348","2416886","0.0-13.0-0.74","a","COGS219_2020_26","Sounds/cat_sound.wav","null","1","","","","","","",""
"null","","html-keyboard-response","349","2417884","0.0-13.0-1.74","a","COGS219_2020_26","<p style=""font-size: 48px;"">+</p>","null","1","","","","","","",""
"661.2800000002608","","image-keyboard-response","350","2418547","0.0-13.0-2.74","a","COGS219_2020_26","Images/dog_1.png","76","1","1582573747448","non-match","dog","cat","sound","test","true"
"null","","audio-keyboard-response","351","2420558","0.0-13.0-3.74","a","COGS219_2020_26","Sounds/correct.wav","null","1","","","","","","",""
"null","","audio-keyboard-response","352","2421246","0.0-13.0-0.75","a","COGS219_2020_26","Sounds/whistle_sound.wav","null","1","","","","","","",""
"null","","html-keyboard-response","353","2422251","0.0-13.0-1.75","a","COGS219_2020_26","<p style=""font-size: 48px;"">+</p>","null","1","","","","","","",""
"630.3449999541044","","image-keyboard-response","354","2422883","0.0-13.0-2.75","a","COGS219_2020_26","Images/cat_3.png","76","1","1582573751815","non-match","cat","whistle","sound","test","true"
"null","","audio-keyboard-response","355","2424892","0.0-13.0-3.75","a","COGS219_2020_26","Sounds/correct.wav","null","1","","","","","","",""
"null","","audio-keyboard-response","356","2425466","0.0-13.0-0.76","a","COGS219_2020_26","Sounds/gun_sound.wav","null","1","","","","","","",""
"null","","html-keyboard-response","357","2426484","0.0-13.0-1.76","a","COGS219_2020_26","<p style=""font-size: 48px;"">+</p>","null","1","","","","","","",""
"405.01500002574176","","image-keyboard-response","358","2426890","0.0-13.0-2.76","a","COGS219_2020_26","Images/gun_2.png","65","1","1582573756048","match","gun","gun","sound","test","true"
"null","","audio-keyboard-response","359","2428907","0.0-13.0-3.76","a","COGS219_2020_26","Sounds/correct.wav","null","1","","","","","","",""
"null","","audio-keyboard-response","360","2429606","0.0-13.0-0.77","a","COGS219_2020_26","Sounds/whistle_label.wav","null","1","","","","","","",""
"null","","html-keyboard-response","361","2430601","0.0-13.0-1.77","a","COGS219_2020_26","<p style=""font-size: 48px;"">+</p>","null","1","","","","","","",""
"544.3549999035895","","image-keyboard-response","362","2431146","0.0-13.0-2.77","a","COGS219_2020_26","Images/dog_cartoon.png","76","1","1582573760165","non-match","dog","whistle","label","test","true"
"null","","audio-keyboard-response","363","2433154","0.0-13.0-3.77","a","COGS219_2020_26","Sounds/correct.wav","null","1","","","","","","",""
"null","","audio-keyboard-response","364","2433726","0.0-13.0-0.78","a","COGS219_2020_26","Sounds/gun_label.wav","null","1","","","","","","",""
"null","","html-keyboard-response","365","2434718","0.0-13.0-1.78","a","COGS219_2020_26","<p style=""font-size: 48px;"">+</p>","null","1","","","","","","",""
"427.945000003092","","image-keyboard-response","366","2435147","0.0-13.0-2.78","a","COGS219_2020_26","Images/frog_2.png","76","1","1582573764282","non-match","frog","gun","label","test","true"
"null","","audio-keyboard-response","367","2437158","0.0-13.0-3.78","a","COGS219_2020_26","Sounds/correct.wav","null","1","","","","","","",""
"null","","audio-keyboard-response","368","2438246","0.0-13.0-0.79","a","COGS219_2020_26","Sounds/car_sound.wav","null","1","","","","","","",""
"null","","html-keyboard-response","369","2439251","0.0-13.0-1.79","a","COGS219_2020_26","<p style=""font-size: 48px;"">+</p>","null","1","","","","","","",""
"518.3449999894947","","image-keyboard-response","370","2439770","0.0-13.0-2.79","a","COGS219_2020_26","Images/car_orig.png","65","1","1582573768815","match","car","car","sound","test","true"
"null","","audio-keyboard-response","371","2441774","0.0-13.0-3.79","a","COGS219_2020_26","Sounds/correct.wav","null","1","","","","","","",""
"null","","audio-keyboard-response","372","2443046","0.0-13.0-0.80","a","COGS219_2020_26","Sounds/train_label.wav","null","1","","","","","","",""
"null","","html-keyboard-response","373","2444051","0.0-13.0-1.80","a","COGS219_2020_26","<p style=""font-size: 48px;"">+</p>","null","1","","","","","","",""
"493.90000000130385","","image-keyboard-response","374","2444546","0.0-13.0-2.80","a","COGS219_2020_26","Images/cat_orig.png","76","1","1582573773615","non-match","cat","train","label","test","true"
"null","","audio-keyboard-response","375","2446554","0.0-13.0-3.80","a","COGS219_2020_26","Sounds/correct.wav","null","1","","","","","","",""
"null","","audio-keyboard-response","376","2447566","0.0-13.0-0.81","a","COGS219_2020_26","Sounds/cow_label.wav","null","1","","","","","","",""
"null","","html-keyboard-response","377","2448585","0.0-13.0-1.81","a","COGS219_2020_26","<p style=""font-size: 48px;"">+</p>","null","1","","","","","","",""
"512.8249999834225","","image-keyboard-response","378","2449099","0.0-13.0-2.81","a","COGS219_2020_26","Images/car_orig.png","76","1","1582573778149","non-match","car","cow","label","test","true"
"null","","audio-keyboard-response","379","2451106","0.0-13.0-3.81","a","COGS219_2020_26","Sounds/correct.wav","null","1","","","","","","",""
"null","","audio-keyboard-response","380","2452226","0.0-13.0-0.82","a","COGS219_2020_26","Sounds/motorcycle_sound.wav","null","1","","","","","","",""
"null","","html-keyboard-response","381","2453218","0.0-13.0-1.82","a","COGS219_2020_26","<p style=""font-size: 48px;"">+</p>","null","1","","","","","","",""
"767.4450000049546","","image-keyboard-response","382","2453986","0.0-13.0-2.82","a","COGS219_2020_26","Images/motorcycle_cartoon.png","65","1","1582573782782","match","motorcycle","motorcycle","sound","test","true"
"null","","audio-keyboard-response","383","2455990","0.0-13.0-3.82","a","COGS219_2020_26","Sounds/correct.wav","null","1","","","","","","",""
"null","","audio-keyboard-response","384","2456686","0.0-13.0-0.83","a","COGS219_2020_26","Sounds/rooster_label.wav","null","1","","","","","","",""
"null","","html-keyboard-response","385","2457685","0.0-13.0-1.83","a","COGS219_2020_26","<p style=""font-size: 48px;"">+</p>","null","1","","","","","","",""
"532.814999925904","","image-keyboard-response","386","2458218","0.0-13.0-2.83","a","COGS219_2020_26","Images/rooster_orig.png","65","1","1582573787249","match","rooster","rooster","label","test","true"
"null","","audio-keyboard-response","387","2460225","0.0-13.0-3.83","a","COGS219_2020_26","Sounds/correct.wav","null","1","","","","","","",""
"null","","audio-keyboard-response","388","2461486","0.0-13.0-0.84","a","COGS219_2020_26","Sounds/train_label.wav","null","1","","","","","","",""
"null","","html-keyboard-response","389","2462485","0.0-13.0-1.84","a","COGS219_2020_26","<p style=""font-size: 48px;"">+</p>","null","1","","","","","","",""
"388.97000008728355","","image-keyboard-response","390","2462875","0.0-13.0-2.84","a","COGS219_2020_26","Images/rooster_2.png","76","1","1582573792049","non-match","rooster","train","label","test","true"
"null","","audio-keyboard-response","391","2464892","0.0-13.0-3.84","a","COGS219_2020_26","Sounds/correct.wav","null","1","","","","","","",""
"null","","audio-keyboard-response","392","2465986","0.0-13.0-0.85","a","COGS219_2020_26","Sounds/motorcycle_sound.wav","null","1","","","","","","",""
"null","","html-keyboard-response","393","2466985","0.0-13.0-1.85","a","COGS219_2020_26","<p style=""font-size: 48px;"">+</p>","null","1","","","","","","",""
"422.2850000951439","","image-keyboard-response","394","2467410","0.0-13.0-2.85","a","COGS219_2020_26","Images/cow_orig.png","76","1","1582573796549","non-match","cow","motorcycle","sound","test","true"
"null","","audio-keyboard-response","395","2469422","0.0-13.0-3.85","a","COGS219_2020_26","Sounds/correct.wav","null","1","","","","","","",""
"null","","audio-keyboard-response","396","2470006","0.0-13.0-0.86","a","COGS219_2020_26","Sounds/gun_sound.wav","null","1","","","","","","",""
"null","","html-keyboard-response","397","2471001","0.0-13.0-1.86","a","COGS219_2020_26","<p style=""font-size: 48px;"">+</p>","null","1","","","","","","",""
"423.82999998517334","","image-keyboard-response","398","2471426","0.0-13.0-2.86","a","COGS219_2020_26","Images/cow_cartoon.png","76","1","1582573800566","non-match","cow","gun","sound","test","true"
"null","","audio-keyboard-response","399","2473438","0.0-13.0-3.86","a","COGS219_2020_26","Sounds/correct.wav","null","1","","","","","","",""
"null","","audio-keyboard-response","400","2474506","0.0-13.0-0.87","a","COGS219_2020_26","Sounds/car_label.wav","null","1","","","","","","",""
"null","","html-keyboard-response","401","2475502","0.0-13.0-1.87","a","COGS219_2020_26","<p style=""font-size: 48px;"">+</p>","null","1","","","","","","",""
"620.3800000948831","","image-keyboard-response","402","2476123","0.0-13.0-2.87","a","COGS219_2020_26","Images/cat_1.png","76","1","1582573805066","non-match","cat","car","label","test","true"
"null","","audio-keyboard-response","403","2478139","0.0-13.0-3.87","a","COGS219_2020_26","Sounds/correct.wav","null","1","","","","","","",""
"null","","audio-keyboard-response","404","2479046","0.0-13.0-0.88","a","COGS219_2020_26","Sounds/frog_sound.wav","null","1","","","","","","",""
"null","","html-keyboard-response","405","2480035","0.0-13.0-1.88","a","COGS219_2020_26","<p style=""font-size: 48px;"">+</p>","null","1","","","","","","",""
"590.69000009913","","image-keyboard-response","406","2480627","0.0-13.0-2.88","a","COGS219_2020_26","Images/frog_cartoon.png","65","1","1582573809599","match","frog","frog","sound","test","true"
"null","","audio-keyboard-response","407","2482638","0.0-13.0-3.88","a","COGS219_2020_26","Sounds/correct.wav","null","1","","","","","","",""
"null","","audio-keyboard-response","408","2483666","0.0-13.0-0.89","a","COGS219_2020_26","Sounds/cow_sound.wav","null","1","","","","","","",""
"null","","html-keyboard-response","409","2484668","0.0-13.0-1.89","a","COGS219_2020_26","<p style=""font-size: 48px;"">+</p>","null","1","","","","","","",""
"501.2800000840798","","image-keyboard-response","410","2485171","0.0-13.0-2.89","a","COGS219_2020_26","Images/cow_2.png","65","1","1582573814232","match","cow","cow","sound","test","true"
"null","","audio-keyboard-response","411","2487174","0.0-13.0-3.89","a","COGS219_2020_26","Sounds/correct.wav","null","1","","","","","","",""
"null","","audio-keyboard-response","412","2488167","0.0-13.0-0.90","a","COGS219_2020_26","Sounds/cow_sound.wav","null","1","","","","","","",""
"null","","html-keyboard-response","413","2489169","0.0-13.0-1.90","a","COGS219_2020_26","<p style=""font-size: 48px;"">+</p>","null","1","","","","","","",""
"497.3100000061095","","image-keyboard-response","414","2489667","0.0-13.0-2.90","a","COGS219_2020_26","Images/cow_cartoon.png","65","1","1582573818733","match","cow","cow","sound","test","true"
"null","","audio-keyboard-response","415","2491674","0.0-13.0-3.90","a","COGS219_2020_26","Sounds/correct.wav","null","1","","","","","","",""
"null","","audio-keyboard-response","416","2492566","0.0-13.0-0.91","a","COGS219_2020_26","Sounds/frog_sound.wav","null","1","","","","","","",""
"null","","html-keyboard-response","417","2493569","0.0-13.0-1.91","a","COGS219_2020_26","<p style=""font-size: 48px;"">+</p>","null","1","","","","","","",""
"577.0049999700859","","image-keyboard-response","418","2494147","0.0-13.0-2.91","a","COGS219_2020_26","Images/frog_3.png","65","1","1582573823133","match","frog","frog","sound","test","true"
"null","","audio-keyboard-response","419","2496155","0.0-13.0-3.91","a","COGS219_2020_26","Sounds/correct.wav","null","1","","","","","","",""
"null","","audio-keyboard-response","420","2496866","0.0-13.0-0.92","a","COGS219_2020_26","Sounds/dog_sound.wav","null","1","","","","","","",""
"null","","html-keyboard-response","421","2497869","0.0-13.0-1.92","a","COGS219_2020_26","<p style=""font-size: 48px;"">+</p>","null","1","","","","","","",""
"485.0000001024455","","image-keyboard-response","422","2498355","0.0-13.0-2.92","a","COGS219_2020_26","Images/frog_cartoon.png","65","1","1582573827433","non-match","frog","dog","sound","test","false"
"null","","audio-keyboard-response","423","2500357","0.0-13.0-3.92","a","COGS219_2020_26","Sounds/incorrect.wav","null","1","","","","","","",""
"null","","audio-keyboard-response","424","2501506","0.0-13.0-0.93","a","COGS219_2020_26","Sounds/motorcycle_label.wav","null","1","","","","","","",""
"null","","html-keyboard-response","425","2502502","0.0-13.0-1.93","a","COGS219_2020_26","<p style=""font-size: 48px;"">+</p>","null","1","","","","","","",""
"355.7499999878928","","image-keyboard-response","426","2502859","0.0-13.0-2.93","a","COGS219_2020_26","Images/motorcycle_1.png","65","1","1582573832066","match","motorcycle","motorcycle","label","test","true"
"null","","audio-keyboard-response","427","2504875","0.0-13.0-3.93","a","COGS219_2020_26","Sounds/correct.wav","null","1","","","","","","",""
"null","","audio-keyboard-response","428","2505986","0.0-13.0-0.94","a","COGS219_2020_26","Sounds/motorcycle_label.wav","null","1","","","","","","",""
"null","","html-keyboard-response","429","2506985","0.0-13.0-1.94","a","COGS219_2020_26","<p style=""font-size: 48px;"">+</p>","null","1","","","","","","",""
"464.1299999784678","","image-keyboard-response","430","2507451","0.0-13.0-2.94","a","COGS219_2020_26","Images/motorcycle_orig.png","65","1","1582573836549","match","motorcycle","motorcycle","label","test","true"
"null","","audio-keyboard-response","431","2509459","0.0-13.0-3.94","a","COGS219_2020_26","Sounds/correct.wav","null","1","","","","","","",""
"null","","audio-keyboard-response","432","2510366","0.0-13.0-0.95","a","COGS219_2020_26","Sounds/frog_sound.wav","null","1","","","","","","",""
"null","","html-keyboard-response","433","2511369","0.0-13.0-1.95","a","COGS219_2020_26","<p style=""font-size: 48px;"">+</p>","null","1","","","","","","",""
"359.80500001460314","","image-keyboard-response","434","2511731","0.0-13.0-2.95","a","COGS219_2020_26","Images/frog_2.png","65","1","1582573840933","match","frog","frog","sound","test","true"
"null","","audio-keyboard-response","435","2513743","0.0-13.0-3.95","a","COGS219_2020_26","Sounds/correct.wav","null","1","","","","","","",""
"null","","audio-keyboard-response","436","2514586","0.0-13.0-0.96","a","COGS219_2020_26","Sounds/cat_label.wav","null","1","","","","","","",""
"null","","html-keyboard-response","437","2515585","0.0-13.0-1.96","a","COGS219_2020_26","<p style=""font-size: 48px;"">+</p>","null","1","","","","","","",""
"592.6050000125542","","image-keyboard-response","438","2516179","0.0-13.0-2.96","a","COGS219_2020_26","Images/cat_cartoon.png","65","1","1582573845149","match","cat","cat","label","test","true"
"null","","audio-keyboard-response","439","2518190","0.0-13.0-3.96","a","COGS219_2020_26","Sounds/correct.wav","null","1","","","","","","",""
"null","","audio-keyboard-response","440","2518906","0.0-13.0-0.97","a","COGS219_2020_26","Sounds/dog_sound.wav","null","1","","","","","","",""
"null","","html-keyboard-response","441","2519902","0.0-13.0-1.97","a","COGS219_2020_26","<p style=""font-size: 48px;"">+</p>","null","1","","","","","","",""
"411.33500006981194","","image-keyboard-response","442","2520315","0.0-13.0-2.97","a","COGS219_2020_26","Images/dog_cartoon.png","65","1","1582573849466","match","dog","dog","sound","test","true"
"null","","audio-keyboard-response","443","2522324","0.0-13.0-3.97","a","COGS219_2020_26","Sounds/correct.wav","null","1","","","","","","",""
"null","","audio-keyboard-response","444","2523406","0.0-13.0-0.98","a","COGS219_2020_26","Sounds/car_label.wav","null","1","","","","","","",""
"null","","html-keyboard-response","445","2524402","0.0-13.0-1.98","a","COGS219_2020_26","<p style=""font-size: 48px;"">+</p>","null","1","","","","","","",""
"615.3949999716133","","image-keyboard-response","446","2525019","0.0-13.0-2.98","a","COGS219_2020_26","Images/car_cartoon.png","65","1","1582573853966","match","car","car","label","test","true"
"null","","audio-keyboard-response","447","2527024","0.0-13.0-3.98","a","COGS219_2020_26","Sounds/correct.wav","null","1","","","","","","",""
"null","","audio-keyboard-response","448","2527826","0.0-13.0-0.99","a","COGS219_2020_26","Sounds/cat_label.wav","null","1","","","","","","",""
"null","","html-keyboard-response","449","2528819","0.0-13.0-1.99","a","COGS219_2020_26","<p style=""font-size: 48px;"">+</p>","null","1","","","","","","",""
"455.0600000657141","","image-keyboard-response","450","2529275","0.0-13.0-2.99","a","COGS219_2020_26","Images/cat_3.png","65","1","1582573858383","match","cat","cat","label","test","true"
"null","","audio-keyboard-response","451","2531290","0.0-13.0-3.99","a","COGS219_2020_26","Sounds/correct.wav","null","1","","","","","","",""
"15296.084999921732","","html-keyboard-response","452","2546587","0.0-14.0","a","COGS219_2020_26","<p>Please take this opportunity to rest your eyes before proceeding.</p><p>When ready, press the enter key to continue to the next set of trials.</p>","13","","","","","","","",""
"null","","audio-keyboard-response","453","2549324","0.0-15.0-0.0","a","COGS219_2020_26","Sounds/dog_sound.wav","null","2","","","","","","",""
"null","","html-keyboard-response","454","2550320","0.0-15.0-1.0","a","COGS219_2020_26","<p style=""font-size: 48px;"">+</p>","null","2","","","","","","",""
"498.3350000111386","","image-keyboard-response","455","2550819","0.0-15.0-2.0","a","COGS219_2020_26","Images/cow_3.png","76","2","1582573879884","non-match","cow","dog","sound","test","true"
"null","","audio-keyboard-response","456","2552826","0.0-15.0-3.0","a","COGS219_2020_26","Sounds/correct.wav","null","2","","","","","","",""
"null","","audio-keyboard-response","457","2553904","0.0-15.0-0.1","a","COGS219_2020_26","Sounds/car_sound.wav","null","2","","","","","","",""
"null","","html-keyboard-response","458","2554903","0.0-15.0-1.1","a","COGS219_2020_26","<p style=""font-size: 48px;"">+</p>","null","2","","","","","","",""
"459.00500006973743","","image-keyboard-response","459","2555363","0.0-15.0-2.1","a","COGS219_2020_26","Images/car_3.png","65","2","1582573884467","match","car","car","sound","test","true"
"null","","audio-keyboard-response","460","2557373","0.0-15.0-3.1","a","COGS219_2020_26","Sounds/correct.wav","null","2","","","","","","",""
"null","","audio-keyboard-response","461","2558064","0.0-15.0-0.2","a","COGS219_2020_26","Sounds/whistle_label.wav","null","2","","","","","","",""
"null","","html-keyboard-response","462","2559053","0.0-15.0-1.2","a","COGS219_2020_26","<p style=""font-size: 48px;"">+</p>","null","2","","","","","","",""
"461.32000000216067","","image-keyboard-response","463","2559515","0.0-15.0-2.2","a","COGS219_2020_26","Images/whistle_orig.png","65","2","1582573888617","match","whistle","whistle","label","test","true"
"null","","audio-keyboard-response","464","2561528","0.0-15.0-3.2","a","COGS219_2020_26","Sounds/correct.wav","null","2","","","","","","",""
"null","","audio-keyboard-response","465","2562804","0.0-15.0-0.3","a","COGS219_2020_26","Sounds/train_label.wav","null","2","","","","","","",""
"null","","html-keyboard-response","466","2563803","0.0-15.0-1.3","a","COGS219_2020_26","<p style=""font-size: 48px;"">+</p>","null","2","","","","","","",""
"575.0199999893084","","image-keyboard-response","467","2564379","0.0-15.0-2.3","a","COGS219_2020_26","Images/car_cartoon.png","76","2","1582573893367","non-match","car","train","label","test","true"
"null","","audio-keyboard-response","468","2566389","0.0-15.0-3.3","a","COGS219_2020_26","Sounds/correct.wav","null","2","","","","","","",""
"null","","audio-keyboard-response","469","2567644","0.0-15.0-0.4","a","COGS219_2020_26","Sounds/train_label.wav","null","2","","","","","","",""
"null","","html-keyboard-response","470","2568637","0.0-15.0-1.4","a","COGS219_2020_26","<p style=""font-size: 48px;"">+</p>","null","2","","","","","","",""
"453.4599999897182","","image-keyboard-response","471","2569091","0.0-15.0-2.4","a","COGS219_2020_26","Images/train_3.png","65","2","1582573898201","match","train","train","label","test","true"
"null","","audio-keyboard-response","472","2571107","0.0-15.0-3.4","a","COGS219_2020_26","Sounds/correct.wav","null","2","","","","","","",""
"null","","audio-keyboard-response","473","2572124","0.0-15.0-0.5","a","COGS219_2020_26","Sounds/cow_label.wav","null","2","","","","","","",""
"null","","html-keyboard-response","474","2573120","0.0-15.0-1.5","a","COGS219_2020_26","<p style=""font-size: 48px;"">+</p>","null","2","","","","","","",""
"322.26000004447997","","image-keyboard-response","475","2573443","0.0-15.0-2.5","a","COGS219_2020_26","Images/cow_1.png","65","2","1582573902684","match","cow","cow","label","test","true"
"null","","audio-keyboard-response","476","2575458","0.0-15.0-3.5","a","COGS219_2020_26","Sounds/correct.wav","null","2","","","","","","",""
"null","","audio-keyboard-response","477","2576304","0.0-15.0-0.6","a","COGS219_2020_26","Sounds/cat_sound.wav","null","2","","","","","","",""
"null","","html-keyboard-response","478","2577303","0.0-15.0-1.6","a","COGS219_2020_26","<p style=""font-size: 48px;"">+</p>","null","2","","","","","","",""
"554.72999997437","","image-keyboard-response","479","2577859","0.0-15.0-2.6","a","COGS219_2020_26","Images/gun_1.png","76","2","1582573906867","non-match","gun","cat","sound","test","true"
"null","","audio-keyboard-response","480","2579875","0.0-15.0-3.6","a","COGS219_2020_26","Sounds/correct.wav","null","2","","","","","","",""
"null","","audio-keyboard-response","481","2580564","0.0-15.0-0.7","a","COGS219_2020_26","Sounds/whistle_sound.wav","null","2","","","","","","",""
"null","","html-keyboard-response","482","2581553","0.0-15.0-1.7","a","COGS219_2020_26","<p style=""font-size: 48px;"">+</p>","null","2","","","","","","",""
"400.7149999961257","","image-keyboard-response","483","2581955","0.0-15.0-2.7","a","COGS219_2020_26","Images/whistle_cartoon.png","65","2","1582573911117","match","whistle","whistle","sound","test","true"
"null","","audio-keyboard-response","484","2583962","0.0-15.0-3.7","a","COGS219_2020_26","Sounds/correct.wav","null","2","","","","","","",""
"null","","audio-keyboard-response","485","2585104","0.0-15.0-0.8","a","COGS219_2020_26","Sounds/motorcycle_label.wav","null","2","","","","","","",""
"null","","html-keyboard-response","486","2586103","0.0-15.0-1.8","a","COGS219_2020_26","<p style=""font-size: 48px;"">+</p>","null","2","","","","","","",""
"363.04500000551343","","image-keyboard-response","487","2586467","0.0-15.0-2.8","a","COGS219_2020_26","Images/motorcycle_1.png","65","2","1582573915668","match","motorcycle","motorcycle","label","test","true"
"null","","audio-keyboard-response","488","2588479","0.0-15.0-3.8","a","COGS219_2020_26","Sounds/correct.wav","null","2","","","","","","",""
"null","","audio-keyboard-response","489","2589384","0.0-15.0-0.9","a","COGS219_2020_26","Sounds/frog_label.wav","null","2","","","","","","",""
"null","","html-keyboard-response","490","2590387","0.0-15.0-1.9","a","COGS219_2020_26","<p style=""font-size: 48px;"">+</p>","null","2","","","","","","",""
"407.4150000233203","","image-keyboard-response","491","2590795","0.0-15.0-2.9","a","COGS219_2020_26","Images/motorcycle_3.png","76","2","1582573919951","non-match","motorcycle","frog","label","test","true"
"null","","audio-keyboard-response","492","2592808","0.0-15.0-3.9","a","COGS219_2020_26","Sounds/correct.wav","null","2","","","","","","",""
"null","","audio-keyboard-response","493","2593504","0.0-15.0-0.10","a","COGS219_2020_26","Sounds/whistle_label.wav","null","2","","","","","","",""
"null","","html-keyboard-response","494","2594504","0.0-15.0-1.10","a","COGS219_2020_26","<p style=""font-size: 48px;"">+</p>","null","2","","","","","","",""
"634.6050000283867","","image-keyboard-response","495","2595139","0.0-15.0-2.10","a","COGS219_2020_26","Images/dog_3.png","76","2","1582573924068","non-match","dog","whistle","label","test","true"
"null","","audio-keyboard-response","496","2597143","0.0-15.0-3.10","a","COGS219_2020_26","Sounds/correct.wav","null","2","","","","","","",""
"null","","audio-keyboard-response","497","2598265","0.0-15.0-0.11","a","COGS219_2020_26","Sounds/motorcycle_sound.wav","null","2","","","","","","",""
"null","","html-keyboard-response","498","2599254","0.0-15.0-1.11","a","COGS219_2020_26","<p style=""font-size: 48px;"">+</p>","null","2","","","","","","",""
"989.049999974668","","image-keyboard-response","499","2600244","0.0-15.0-2.11","a","COGS219_2020_26","Images/motorcycle_2.png","65","2","1582573928818","match","motorcycle","motorcycle","sound","test","true"
"null","","audio-keyboard-response","500","2602258","0.0-15.0-3.11","a","COGS219_2020_26","Sounds/correct.wav","null","2","","","","","","",""
"null","","audio-keyboard-response","501","2603345","0.0-15.0-0.12","a","COGS219_2020_26","Sounds/car_label.wav","null","2","","","","","","",""
"null","","html-keyboard-response","502","2604337","0.0-15.0-1.12","a","COGS219_2020_26","<p style=""font-size: 48px;"">+</p>","null","2","","","","","","",""
"585.1000000257045","","image-keyboard-response","503","2604924","0.0-15.0-2.12","a","COGS219_2020_26","Images/motorcycle_1.png","76","2","1582573933902","non-match","motorcycle","car","label","test","true"
"null","","audio-keyboard-response","504","2606926","0.0-15.0-3.12","a","COGS219_2020_26","Sounds/correct.wav","null","2","","","","","","",""
"null","","audio-keyboard-response","505","2607505","0.0-15.0-0.13","a","COGS219_2020_26","Sounds/gun_label.wav","null","2","","","","","","",""
"null","","html-keyboard-response","506","2608504","0.0-15.0-1.13","a","COGS219_2020_26","<p style=""font-size: 48px;"">+</p>","null","2","","","","","","",""
"410.3599999798462","","image-keyboard-response","507","2608916","0.0-15.0-2.13","a","COGS219_2020_26","Images/gun_2.png","65","2","1582573938068","match","gun","gun","label","test","true"
"null","","audio-keyboard-response","508","2610924","0.0-15.0-3.13","a","COGS219_2020_26","Sounds/correct.wav","null","2","","","","","","",""
"null","","audio-keyboard-response","509","2611825","0.0-15.0-0.14","a","COGS219_2020_26","Sounds/frog_sound.wav","null","2","","","","","","",""
"null","","html-keyboard-response","510","2612821","0.0-15.0-1.14","a","COGS219_2020_26","<p style=""font-size: 48px;"">+</p>","null","2","","","","","","",""
"620.9500000113621","","image-keyboard-response","511","2613444","0.0-15.0-2.14","a","COGS219_2020_26","Images/gun_3.png","76","2","1582573942385","non-match","gun","frog","sound","test","true"
"null","","audio-keyboard-response","512","2615458","0.0-15.0-3.14","a","COGS219_2020_26","Sounds/correct.wav","null","2","","","","","","",""
"null","","audio-keyboard-response","513","2616565","0.0-15.0-0.15","a","COGS219_2020_26","Sounds/motorcycle_sound.wav","null","2","","","","","","",""
"null","","html-keyboard-response","514","2617571","0.0-15.0-1.15","a","COGS219_2020_26","<p style=""font-size: 48px;"">+</p>","null","2","","","","","","",""
"615.7200000016019","","image-keyboard-response","515","2618188","0.0-15.0-2.15","a","COGS219_2020_26","Images/motorcycle_3.png","65","2","1582573947135","match","motorcycle","motorcycle","sound","test","true"
"null","","audio-keyboard-response","516","2620194","0.0-15.0-3.15","a","COGS219_2020_26","Sounds/correct.wav","null","2","","","","","","",""
"null","","audio-keyboard-response","517","2620745","0.0-15.0-0.16","a","COGS219_2020_26","Sounds/gun_label.wav","null","2","","","","","","",""
"null","","html-keyboard-response","518","2621738","0.0-15.0-1.16","a","COGS219_2020_26","<p style=""font-size: 48px;"">+</p>","null","2","","","","","","",""
"361.0349999507889","","image-keyboard-response","519","2622100","0.0-15.0-2.16","a","COGS219_2020_26","Images/gun_3.png","65","2","1582573951302","match","gun","gun","label","test","true"
"null","","audio-keyboard-response","520","2624107","0.0-15.0-3.16","a","COGS219_2020_26","Sounds/correct.wav","null","2","","","","","","",""
"null","","audio-keyboard-response","521","2625405","0.0-15.0-0.17","a","COGS219_2020_26","Sounds/train_sound.wav","null","2","","","","","","",""
"null","","html-keyboard-response","522","2626404","0.0-15.0-1.17","a","COGS219_2020_26","<p style=""font-size: 48px;"">+</p>","null","2","","","","","","",""
"774.7600000584498","","image-keyboard-response","523","2627180","0.0-15.0-2.17","a","COGS219_2020_26","Images/train_orig.png","65","2","1582573955969","match","train","train","sound","test","true"
"null","","audio-keyboard-response","524","2629191","0.0-15.0-3.17","a","COGS219_2020_26","Sounds/correct.wav","null","2","","","","","","",""
"null","","audio-keyboard-response","525","2630025","0.0-15.0-0.18","a","COGS219_2020_26","Sounds/cat_label.wav","null","2","","","","","","",""
"null","","html-keyboard-response","526","2631021","0.0-15.0-1.18","a","COGS219_2020_26","<p style=""font-size: 48px;"">+</p>","null","2","","","","","","",""
"469.4349999772385","","image-keyboard-response","527","2631492","0.0-15.0-2.18","a","COGS219_2020_26","Images/rooster_2.png","76","2","1582573960585","non-match","rooster","cat","label","test","true"
"null","","audio-keyboard-response","528","2633509","0.0-15.0-3.18","a","COGS219_2020_26","Sounds/correct.wav","null","2","","","","","","",""
"null","","audio-keyboard-response","529","2634525","0.0-15.0-0.19","a","COGS219_2020_26","Sounds/cow_label.wav","null","2","","","","","","",""
"null","","html-keyboard-response","530","2635521","0.0-15.0-1.19","a","COGS219_2020_26","<p style=""font-size: 48px;"">+</p>","null","2","","","","","","",""
"417.5299999769777","","image-keyboard-response","531","2635940","0.0-15.0-2.19","a","COGS219_2020_26","Images/frog_cartoon.png","76","2","1582573965085","non-match","frog","cow","label","test","true"
"null","","audio-keyboard-response","532","2637943","0.0-15.0-3.19","a","COGS219_2020_26","Sounds/correct.wav","null","2","","","","","","",""
"null","","audio-keyboard-response","533","2638845","0.0-15.0-0.20","a","COGS219_2020_26","Sounds/frog_sound.wav","null","2","","","","","","",""
"null","","html-keyboard-response","534","2639838","0.0-15.0-1.20","a","COGS219_2020_26","<p style=""font-size: 48px;"">+</p>","null","2","","","","","","",""
"429.219999932684","","image-keyboard-response","535","2640268","0.0-15.0-2.20","a","COGS219_2020_26","Images/cow_2.png","76","2","1582573969402","non-match","cow","frog","sound","test","true"
"null","","audio-keyboard-response","536","2642277","0.0-15.0-3.20","a","COGS219_2020_26","Sounds/correct.wav","null","2","","","","","","",""
"null","","audio-keyboard-response","537","2643565","0.0-15.0-0.21","a","COGS219_2020_26","Sounds/train_label.wav","null","2","","","","","","",""
"null","","html-keyboard-response","538","2644554","0.0-15.0-1.21","a","COGS219_2020_26","<p style=""font-size: 48px;"">+</p>","null","2","","","","","","",""
"424.3550000246614","","image-keyboard-response","539","2644980","0.0-15.0-2.21","a","COGS219_2020_26","Images/rooster_cartoon.png","76","2","1582573974119","non-match","rooster","train","label","test","true"
"null","","audio-keyboard-response","540","2646991","0.0-15.0-3.21","a","COGS219_2020_26","Sounds/correct.wav","null","2","","","","","","",""
"null","","audio-keyboard-response","541","2647565","0.0-15.0-0.22","a","COGS219_2020_26","Sounds/gun_label.wav","null","2","","","","","","",""
"null","","html-keyboard-response","542","2648555","0.0-15.0-1.22","a","COGS219_2020_26","<p style=""font-size: 48px;"">+</p>","null","2","","","","","","",""
"632.439999957569","","image-keyboard-response","543","2649188","0.0-15.0-2.22","a","COGS219_2020_26","Images/car_orig.png","76","2","1582573978119","non-match","car","gun","label","test","true"
"null","","audio-keyboard-response","544","2651195","0.0-15.0-3.22","a","COGS219_2020_26","Sounds/correct.wav","null","2","","","","","","",""
"null","","audio-keyboard-response","545","2651745","0.0-15.0-0.23","a","COGS219_2020_26","Sounds/gun_label.wav","null","2","","","","","","",""
"null","","html-keyboard-response","546","2652738","0.0-15.0-1.23","a","COGS219_2020_26","<p style=""font-size: 48px;"">+</p>","null","2","","","","","","",""
"376.98000005912036","","image-keyboard-response","547","2653116","0.0-15.0-2.23","a","COGS219_2020_26","Images/gun_cartoon.png","65","2","1582573982302","match","gun","gun","label","test","true"
"null","","audio-keyboard-response","548","2655127","0.0-15.0-3.23","a","COGS219_2020_26","Sounds/correct.wav","null","2","","","","","","",""
"null","","audio-keyboard-response","549","2656205","0.0-15.0-0.24","a","COGS219_2020_26","Sounds/car_sound.wav","null","2","","","","","","",""
"null","","html-keyboard-response","550","2657205","0.0-15.0-1.24","a","COGS219_2020_26","<p style=""font-size: 48px;"">+</p>","null","2","","","","","","",""
"550.1149999909103","","image-keyboard-response","551","2657756","0.0-15.0-2.24","a","COGS219_2020_26","Images/train_2.png","76","2","1582573986769","non-match","train","car","sound","test","true"
"null","","audio-keyboard-response","552","2659760","0.0-15.0-3.24","a","COGS219_2020_26","Sounds/correct.wav","null","2","","","","","","",""
"null","","audio-keyboard-response","553","2660785","0.0-15.0-0.25","a","COGS219_2020_26","Sounds/cow_label.wav","null","2","","","","","","",""
"null","","html-keyboard-response","554","2661788","0.0-15.0-1.25","a","COGS219_2020_26","<p style=""font-size: 48px;"">+</p>","null","2","","","","","","",""
"502.7199999894947","","image-keyboard-response","555","2662292","0.0-15.0-2.25","a","COGS219_2020_26","Images/cow_orig.png","65","2","1582573991352","match","cow","cow","label","test","true"
"null","","audio-keyboard-response","556","2664295","0.0-15.0-3.25","a","COGS219_2020_26","Sounds/correct.wav","null","2","","","","","","",""
"null","","audio-keyboard-response","557","2665125","0.0-15.0-0.26","a","COGS219_2020_26","Sounds/cat_sound.wav","null","2","","","","","","",""
"null","","html-keyboard-response","558","2666122","0.0-15.0-1.26","a","COGS219_2020_26","<p style=""font-size: 48px;"">+</p>","null","2","","","","","","",""
"561.4849999547005","","image-keyboard-response","559","2666684","0.0-15.0-2.26","a","COGS219_2020_26","Images/cat_3.png","65","2","1582573995686","match","cat","cat","sound","test","true"
"null","","audio-keyboard-response","560","2668695","0.0-15.0-3.26","a","COGS219_2020_26","Sounds/correct.wav","null","2","","","","","","",""
"null","","audio-keyboard-response","561","2669345","0.0-15.0-0.27","a","COGS219_2020_26","Sounds/dog_label.wav","null","2","","","","","","",""
"null","","html-keyboard-response","562","2670338","0.0-15.0-1.27","a","COGS219_2020_26","<p style=""font-size: 48px;"">+</p>","null","2","","","","","","",""
"464.52499995939434","","image-keyboard-response","563","2670804","0.0-15.0-2.27","a","COGS219_2020_26","Images/motorcycle_cartoon.png","76","2","1582573999902","non-match","motorcycle","dog","label","test","true"
"null","","audio-keyboard-response","564","2672812","0.0-15.0-3.27","a","COGS219_2020_26","Sounds/correct.wav","null","2","","","","","","",""
"null","","audio-keyboard-response","565","2673645","0.0-15.0-0.28","a","COGS219_2020_26","Sounds/cat_label.wav","null","2","","","","","","",""
"null","","html-keyboard-response","566","2674638","0.0-15.0-1.28","a","COGS219_2020_26","<p style=""font-size: 48px;"">+</p>","null","2","","","","","","",""
"396.45000000018626","","image-keyboard-response","567","2675036","0.0-15.0-2.28","a","COGS219_2020_26","Images/cat_2.png","65","2","1582574004202","match","cat","cat","label","test","true"
"null","","audio-keyboard-response","568","2677044","0.0-15.0-3.28","a","COGS219_2020_26","Sounds/correct.wav","null","2","","","","","","",""
"null","","audio-keyboard-response","569","2678185","0.0-15.0-0.29","a","COGS219_2020_26","Sounds/motorcycle_label.wav","null","2","","","","","","",""
"null","","html-keyboard-response","570","2679188","0.0-15.0-1.29","a","COGS219_2020_26","<p style=""font-size: 48px;"">+</p>","null","2","","","","","","",""
"590.6249999534339","","image-keyboard-response","571","2679780","0.0-15.0-2.29","a","COGS219_2020_26","Images/frog_2.png","76","2","1582574008753","non-match","frog","motorcycle","label","test","true"
"null","","audio-keyboard-response","572","2681793","0.0-15.0-3.29","a","COGS219_2020_26","Sounds/correct.wav","null","2","","","","","","",""
"null","","audio-keyboard-response","573","2682805","0.0-15.0-0.30","a","COGS219_2020_26","Sounds/cow_label.wav","null","2","","","","","","",""
"null","","html-keyboard-response","574","2683805","0.0-15.0-1.30","a","COGS219_2020_26","<p style=""font-size: 48px;"">+</p>","null","2","","","","","","",""
"477.72499988786876","","image-keyboard-response","575","2684284","0.0-15.0-2.30","a","COGS219_2020_26","Images/cow_cartoon.png","65","2","1582574013369","match","cow","cow","label","test","true"
"null","","audio-keyboard-response","576","2686295","0.0-15.0-3.30","a","COGS219_2020_26","Sounds/correct.wav","null","2","","","","","","",""
"null","","audio-keyboard-response","577","2686985","0.0-15.0-0.31","a","COGS219_2020_26","Sounds/rooster_sound.wav","null","2","","","","","","",""
"null","","html-keyboard-response","578","2687988","0.0-15.0-1.31","a","COGS219_2020_26","<p style=""font-size: 48px;"">+</p>","null","2","","","","","","",""
"678.319999948144","","image-keyboard-response","579","2688668","0.0-15.0-2.31","a","COGS219_2020_26","Images/rooster_3.png","65","2","1582574017552","match","rooster","rooster","sound","test","true"
"null","","audio-keyboard-response","580","2690677","0.0-15.0-3.31","a","COGS219_2020_26","Sounds/correct.wav","null","2","","","","","","",""
"null","","audio-keyboard-response","581","2691505","0.0-15.0-0.32","a","COGS219_2020_26","Sounds/cat_sound.wav","null","2","","","","","","",""
"null","","html-keyboard-response","582","2692505","0.0-15.0-1.32","a","COGS219_2020_26","<p style=""font-size: 48px;"">+</p>","null","2","","","","","","",""
"457.78499997686595","","image-keyboard-response","583","2692964","0.0-15.0-2.32","a","COGS219_2020_26","Images/frog_orig.png","76","2","1582574022069","non-match","frog","cat","sound","test","true"
"null","","audio-keyboard-response","584","2694978","0.0-15.0-3.32","a","COGS219_2020_26","Sounds/correct.wav","null","2","","","","","","",""
"null","","audio-keyboard-response","585","2695645","0.0-15.0-0.33","a","COGS219_2020_26","Sounds/dog_label.wav","null","2","","","","","","",""
"null","","html-keyboard-response","586","2696639","0.0-15.0-1.33","a","COGS219_2020_26","<p style=""font-size: 48px;"">+</p>","null","2","","","","","","",""
"444.2300000227988","","image-keyboard-response","587","2697084","0.0-15.0-2.33","a","COGS219_2020_26","Images/dog_cartoon.png","65","2","1582574026203","match","dog","dog","label","test","true"
"null","","audio-keyboard-response","588","2699094","0.0-15.0-3.33","a","COGS219_2020_26","Sounds/correct.wav","null","2","","","","","","",""
"null","","audio-keyboard-response","589","2699765","0.0-15.0-0.34","a","COGS219_2020_26","Sounds/rooster_sound.wav","null","2","","","","","","",""
"null","","html-keyboard-response","590","2700755","0.0-15.0-1.34","a","COGS219_2020_26","<p style=""font-size: 48px;"">+</p>","null","2","","","","","","",""
"687.6199999824166","","image-keyboard-response","591","2701444","0.0-15.0-2.34","a","COGS219_2020_26","Images/train_1.png","76","2","1582574030319","non-match","train","rooster","sound","test","true"
"null","","audio-keyboard-response","592","2703459","0.0-15.0-3.34","a","COGS219_2020_26","Sounds/correct.wav","null","2","","","","","","",""
"null","","audio-keyboard-response","593","2704545","0.0-15.0-0.35","a","COGS219_2020_26","Sounds/car_label.wav","null","2","","","","","","",""
"null","","html-keyboard-response","594","2705539","0.0-15.0-1.35","a","COGS219_2020_26","<p style=""font-size: 48px;"">+</p>","null","2","","","","","","",""
"624.6199999004602","","image-keyboard-response","595","2706164","0.0-15.0-2.35","a","COGS219_2020_26","Images/cow_cartoon.png","76","2","1582574035103","non-match","cow","car","label","test","true"
"null","","audio-keyboard-response","596","2708175","0.0-15.0-3.35","a","COGS219_2020_26","Sounds/correct.wav","null","2","","","","","","",""
"null","","audio-keyboard-response","597","2709305","0.0-15.0-0.36","a","COGS219_2020_26","Sounds/motorcycle_sound.wav","null","2","","","","","","",""
"null","","html-keyboard-response","598","2710305","0.0-15.0-1.36","a","COGS219_2020_26","<p style=""font-size: 48px;"">+</p>","null","2","","","","","","",""
"921.5050000930205","","image-keyboard-response","599","2711228","0.0-15.0-2.36","a","COGS219_2020_26","Images/train_cartoon.png","76","2","1582574039869","non-match","train","motorcycle","sound","test","true"
"null","","audio-keyboard-response","600","2713244","0.0-15.0-3.36","a","COGS219_2020_26","Sounds/correct.wav","null","2","","","","","","",""
"null","","audio-keyboard-response","601","2713885","0.0-15.0-0.37","a","COGS219_2020_26","Sounds/dog_label.wav","null","2","","","","","","",""
"null","","html-keyboard-response","602","2714889","0.0-15.0-1.37","a","COGS219_2020_26","<p style=""font-size: 48px;"">+</p>","null","2","","","","","","",""
"721.9999999506399","","image-keyboard-response","603","2715612","0.0-15.0-2.37","a","COGS219_2020_26","Images/frog_3.png","76","2","1582574044453","non-match","frog","dog","label","test","true"
"null","","audio-keyboard-response","604","2717627","0.0-15.0-3.37","a","COGS219_2020_26","Sounds/correct.wav","null","2","","","","","","",""
