[{"rt":7472.330000018701,"responses":"{\"Q0\":\"06\"}","trial_type":"survey-text","trial_index":0,"time_elapsed":7500,"internal_node_id":"0.0-0.0","match_key":"l","participant_id":"06"},{"rt":148360.1600000402,"stimulus":"<p>Use KEYBOARD 1 (match RIGHT)</p><p>Press MATCH to continue.</p>","key_press":76,"trial_type":"html-keyboard-response","trial_index":1,"time_elapsed":155863,"internal_node_id":"0.0-1.0","match_key":"l","participant_id":"06"},{"rt":2844110.480000032,"stimulus":"<p>Welcome to the experiment.</p>","key_press":66,"trial_type":"html-keyboard-response","trial_index":2,"time_elapsed":2999907,"internal_node_id":"0.0-2.0","match_key":"l","participant_id":"06"},{"rt":10155.054999981076,"stimulus":"<p>Thank you for agreeing to participate in this study.</p><p>If during any part of the procedure you must stop for any reason, please inform the researcher that you do not wish to continue.</p>","key_press":32,"trial_type":"html-keyboard-response","trial_index":3,"time_elapsed":3010066,"internal_node_id":"0.0-3.0","match_key":"l","participant_id":"06"},{"rt":20687.61500006076,"stimulus":"<p>In this experiment, you will hear various words or sounds and see pictures of various animals and objects.</p><p>Most of the images will be of common everyday objects, such as cars, cats, cows, firearms, frogs, chickens, whistles, trains, motorcycles, and dogs.</p><p>Some of the images will be real-life stills, while others will be cartoons.</p>","key_press":32,"trial_type":"html-keyboard-response","trial_index":4,"time_elapsed":3030755,"internal_node_id":"0.0-4.0","match_key":"l","participant_id":"06"},{"rt":15598.334999987856,"stimulus":"<p>Sometimes, the word/sound will match the picture, for example you'll hear a meowing sound and see a cat.</p><p>Other times, the picture will not match the sound or word.</p><p>Your task is to decide as quickly as possible if the word/sound matches the picture or not. </p>","key_press":32,"trial_type":"html-keyboard-response","trial_index":5,"time_elapsed":3046354,"internal_node_id":"0.0-5.0","match_key":"l","participant_id":"06"},{"rt":14494.444999960251,"stimulus":"<p>For example, if you hear the word \"cat\" or hear a meowing sound, and then see a picture of a cat, you should press the MATCH key.</p><p> If the sound and image do not match, press the NOT-MATCH key to indicate that there is not a match.</p>","key_press":32,"trial_type":"html-keyboard-response","trial_index":6,"time_elapsed":3060868,"internal_node_id":"0.0-6.0","match_key":"l","participant_id":"06"},{"rt":11695.11000008788,"stimulus":"<p>If you make a mistake, you will hear a buzzing sound instead of a more pleasant sound.</p><p> Try to respond as quickly as possible, while making as few errors as possible. If you are making mistakes, you are probably rushing.</p>","key_press":32,"trial_type":"html-keyboard-response","trial_index":7,"time_elapsed":3072565,"internal_node_id":"0.0-7.0","match_key":"l","participant_id":"06"},{"rt":11550.32499996014,"stimulus":"<p>Please try to not move or blink your eyes during the presentation of the images. You can move and blink between images.</p><p>During the experiment there will be some breaks during which you can rest your eyes.</p>","key_press":32,"trial_type":"html-keyboard-response","trial_index":8,"time_elapsed":3084116,"internal_node_id":"0.0-8.0","match_key":"l","participant_id":"06"},{"rt":113935.64500007778,"stimulus":"<p>We will begin with 10 practice trials. Please let the experimenter know if you have any questions.</p>","key_press":32,"trial_type":"html-keyboard-response","trial_index":9,"time_elapsed":3198057,"internal_node_id":"0.0-9.0","match_key":"l","participant_id":"06"},{"rt":null,"stimulus":"Sounds/car_sound.wav","key_press":null,"block":0,"trial_type":"audio-keyboard-response","trial_index":10,"time_elapsed":3199158,"internal_node_id":"0.0-10.0-0.0","match_key":"l","participant_id":"06"},{"rt":null,"stimulus":"<p style=\"font-size: 48px;\">+</p>","key_press":null,"block":0,"trial_type":"html-keyboard-response","trial_index":11,"time_elapsed":3200153,"internal_node_id":"0.0-10.0-1.0","match_key":"l","participant_id":"06"},{"rt":894.0799999982119,"stimulus":"Images/car_2.png","key_press":76,"stim_onset":1581389916946,"block":0,"match_type":"match","image_category":"car","sound_category":"car","audio_type":"sound","phase":"practice","trial_type":"image-keyboard-response","trial_index":12,"time_elapsed":3201049,"internal_node_id":"0.0-10.0-2.0","match_key":"l","participant_id":"06","correct":true},{"rt":null,"stimulus":"Sounds/correct.wav","key_press":null,"block":0,"trial_type":"audio-keyboard-response","trial_index":13,"time_elapsed":3203067,"internal_node_id":"0.0-10.0-3.0","match_key":"l","participant_id":"06"},{"rt":null,"stimulus":"Sounds/cow_sound.wav","key_press":null,"block":0,"trial_type":"audio-keyboard-response","trial_index":14,"time_elapsed":3204078,"internal_node_id":"0.0-10.0-0.1","match_key":"l","participant_id":"06"},{"rt":null,"stimulus":"<p style=\"font-size: 48px;\">+</p>","key_press":null,"block":0,"trial_type":"html-keyboard-response","trial_index":15,"time_elapsed":3205070,"internal_node_id":"0.0-10.0-1.1","match_key":"l","participant_id":"06"},{"rt":841.7050000280142,"stimulus":"Images/cow_1.png","key_press":76,"stim_onset":1581389921863,"block":0,"match_type":"match","image_category":"cow","sound_category":"cow","audio_type":"sound","phase":"practice","trial_type":"image-keyboard-response","trial_index":16,"time_elapsed":3205913,"internal_node_id":"0.0-10.0-2.1","match_key":"l","participant_id":"06","correct":true},{"rt":null,"stimulus":"Sounds/correct.wav","key_press":null,"block":0,"trial_type":"audio-keyboard-response","trial_index":17,"time_elapsed":3207923,"internal_node_id":"0.0-10.0-3.1","match_key":"l","participant_id":"06"},{"rt":null,"stimulus":"Sounds/gun_sound.wav","key_press":null,"block":0,"trial_type":"audio-keyboard-response","trial_index":18,"time_elapsed":3208498,"internal_node_id":"0.0-10.0-0.2","match_key":"l","participant_id":"06"},{"rt":null,"stimulus":"<p style=\"font-size: 48px;\">+</p>","key_press":null,"block":0,"trial_type":"html-keyboard-response","trial_index":19,"time_elapsed":3209503,"internal_node_id":"0.0-10.0-1.2","match_key":"l","participant_id":"06"},{"rt":840.1799999410287,"stimulus":"Images/gun_2.png","key_press":76,"stim_onset":1581389926296,"block":0,"match_type":"match","image_category":"gun","sound_category":"gun","audio_type":"sound","phase":"practice","trial_type":"image-keyboard-response","trial_index":20,"time_elapsed":3210345,"internal_node_id":"0.0-10.0-2.2","match_key":"l","participant_id":"06","correct":true},{"rt":null,"stimulus":"Sounds/correct.wav","key_press":null,"block":0,"trial_type":"audio-keyboard-response","trial_index":21,"time_elapsed":3212355,"internal_node_id":"0.0-10.0-3.2","match_key":"l","participant_id":"06"},{"rt":null,"stimulus":"Sounds/gun_sound.wav","key_press":null,"block":0,"trial_type":"audio-keyboard-response","trial_index":22,"time_elapsed":3212898,"internal_node_id":"0.0-10.0-0.3","match_key":"l","participant_id":"06"},{"rt":null,"stimulus":"<p style=\"font-size: 48px;\">+</p>","key_press":null,"block":0,"trial_type":"html-keyboard-response","trial_index":23,"time_elapsed":3213886,"internal_node_id":"0.0-10.0-1.3","match_key":"l","participant_id":"06"},{"rt":648.9600000204518,"stimulus":"Images/gun_1.png","key_press":76,"stim_onset":1581389930681,"block":0,"match_type":"match","image_category":"gun","sound_category":"gun","audio_type":"sound","phase":"practice","trial_type":"image-keyboard-response","trial_index":24,"time_elapsed":3214537,"internal_node_id":"0.0-10.0-2.3","match_key":"l","participant_id":"06","correct":true},{"rt":null,"stimulus":"Sounds/correct.wav","key_press":null,"block":0,"trial_type":"audio-keyboard-response","trial_index":25,"time_elapsed":3216545,"internal_node_id":"0.0-10.0-3.3","match_key":"l","participant_id":"06"},{"rt":null,"stimulus":"Sounds/motorcycle_label.wav","key_press":null,"block":0,"trial_type":"audio-keyboard-response","trial_index":26,"time_elapsed":3217678,"internal_node_id":"0.0-10.0-0.4","match_key":"l","participant_id":"06"},{"rt":null,"stimulus":"<p style=\"font-size: 48px;\">+</p>","key_press":null,"block":0,"trial_type":"html-keyboard-response","trial_index":27,"time_elapsed":3218670,"internal_node_id":"0.0-10.0-1.4","match_key":"l","participant_id":"06"},{"rt":697.6349999895319,"stimulus":"Images/whistle_cartoon.png","key_press":65,"stim_onset":1581389935463,"block":0,"match_type":"non-match","image_category":"whistle","sound_category":"motorcycle","audio_type":"label","phase":"practice","trial_type":"image-keyboard-response","trial_index":28,"time_elapsed":3219369,"internal_node_id":"0.0-10.0-2.4","match_key":"l","participant_id":"06","correct":true},{"rt":null,"stimulus":"Sounds/correct.wav","key_press":null,"block":0,"trial_type":"audio-keyboard-response","trial_index":29,"time_elapsed":3221383,"internal_node_id":"0.0-10.0-3.4","match_key":"l","participant_id":"06"},{"rt":null,"stimulus":"Sounds/gun_label.wav","key_press":null,"block":0,"trial_type":"audio-keyboard-response","trial_index":30,"time_elapsed":3221958,"internal_node_id":"0.0-10.0-0.5","match_key":"l","participant_id":"06"},{"rt":null,"stimulus":"<p style=\"font-size: 48px;\">+</p>","key_press":null,"block":0,"trial_type":"html-keyboard-response","trial_index":31,"time_elapsed":3222953,"internal_node_id":"0.0-10.0-1.5","match_key":"l","participant_id":"06"},{"rt":782.4700000928715,"stimulus":"Images/train_3.png","key_press":65,"stim_onset":1581389939746,"block":0,"match_type":"non-match","image_category":"train","sound_category":"gun","audio_type":"label","phase":"practice","trial_type":"image-keyboard-response","trial_index":32,"time_elapsed":3223737,"internal_node_id":"0.0-10.0-2.5","match_key":"l","participant_id":"06","correct":true},{"rt":null,"stimulus":"Sounds/correct.wav","key_press":null,"block":0,"trial_type":"audio-keyboard-response","trial_index":33,"time_elapsed":3225743,"internal_node_id":"0.0-10.0-3.5","match_key":"l","participant_id":"06"},{"rt":null,"stimulus":"Sounds/rooster_sound.wav","key_press":null,"block":0,"trial_type":"audio-keyboard-response","trial_index":34,"time_elapsed":3226438,"internal_node_id":"0.0-10.0-0.6","match_key":"l","participant_id":"06"},{"rt":null,"stimulus":"<p style=\"font-size: 48px;\">+</p>","key_press":null,"block":0,"trial_type":"html-keyboard-response","trial_index":35,"time_elapsed":3227436,"internal_node_id":"0.0-10.0-1.6","match_key":"l","participant_id":"06"},{"rt":698.839999968186,"stimulus":"Images/rooster_2.png","key_press":76,"stim_onset":1581389944230,"block":0,"match_type":"match","image_category":"rooster","sound_category":"rooster","audio_type":"sound","phase":"practice","trial_type":"image-keyboard-response","trial_index":36,"time_elapsed":3228137,"internal_node_id":"0.0-10.0-2.6","match_key":"l","participant_id":"06","correct":true},{"rt":null,"stimulus":"Sounds/correct.wav","key_press":null,"block":0,"trial_type":"audio-keyboard-response","trial_index":37,"time_elapsed":3230148,"internal_node_id":"0.0-10.0-3.6","match_key":"l","participant_id":"06"},{"rt":null,"stimulus":"Sounds/cat_sound.wav","key_press":null,"block":0,"trial_type":"audio-keyboard-response","trial_index":38,"time_elapsed":3230978,"internal_node_id":"0.0-10.0-0.7","match_key":"l","participant_id":"06"},{"rt":null,"stimulus":"<p style=\"font-size: 48px;\">+</p>","key_press":null,"block":0,"trial_type":"html-keyboard-response","trial_index":39,"time_elapsed":3231970,"internal_node_id":"0.0-10.0-1.7","match_key":"l","participant_id":"06"},{"rt":1029.249999905005,"stimulus":"Images/frog_3.png","key_press":65,"stim_onset":1581389948763,"block":0,"match_type":"non-match","image_category":"frog","sound_category":"cat","audio_type":"sound","phase":"practice","trial_type":"image-keyboard-response","trial_index":40,"time_elapsed":3233000,"internal_node_id":"0.0-10.0-2.7","match_key":"l","participant_id":"06","correct":true},{"rt":null,"stimulus":"Sounds/correct.wav","key_press":null,"block":0,"trial_type":"audio-keyboard-response","trial_index":41,"time_elapsed":3235010,"internal_node_id":"0.0-10.0-3.7","match_key":"l","participant_id":"06"},{"rt":null,"stimulus":"Sounds/motorcycle_label.wav","key_press":null,"block":0,"trial_type":"audio-keyboard-response","trial_index":42,"time_elapsed":3236138,"internal_node_id":"0.0-10.0-0.8","match_key":"l","participant_id":"06"},{"rt":null,"stimulus":"<p style=\"font-size: 48px;\">+</p>","key_press":null,"block":0,"trial_type":"html-keyboard-response","trial_index":43,"time_elapsed":3237137,"internal_node_id":"0.0-10.0-1.8","match_key":"l","participant_id":"06"},{"rt":966.7400000616908,"stimulus":"Images/cat_2.png","key_press":65,"stim_onset":1581389953930,"block":0,"match_type":"non-match","image_category":"cat","sound_category":"motorcycle","audio_type":"label","phase":"practice","trial_type":"image-keyboard-response","trial_index":44,"time_elapsed":3238105,"internal_node_id":"0.0-10.0-2.8","match_key":"l","participant_id":"06","correct":true},{"rt":null,"stimulus":"Sounds/correct.wav","key_press":null,"block":0,"trial_type":"audio-keyboard-response","trial_index":45,"time_elapsed":3240112,"internal_node_id":"0.0-10.0-3.8","match_key":"l","participant_id":"06"},{"rt":null,"stimulus":"Sounds/motorcycle_label.wav","key_press":null,"block":0,"trial_type":"audio-keyboard-response","trial_index":46,"time_elapsed":3241218,"internal_node_id":"0.0-10.0-0.9","match_key":"l","participant_id":"06"},{"rt":null,"stimulus":"<p style=\"font-size: 48px;\">+</p>","key_press":null,"block":0,"trial_type":"html-keyboard-response","trial_index":47,"time_elapsed":3242220,"internal_node_id":"0.0-10.0-1.9","match_key":"l","participant_id":"06"},{"rt":762.5899999402463,"stimulus":"Images/train_1.png","key_press":65,"stim_onset":1581389959013,"block":0,"match_type":"non-match","image_category":"train","sound_category":"motorcycle","audio_type":"label","phase":"practice","trial_type":"image-keyboard-response","trial_index":48,"time_elapsed":3242984,"internal_node_id":"0.0-10.0-2.9","match_key":"l","participant_id":"06","correct":true},{"rt":null,"stimulus":"Sounds/correct.wav","key_press":null,"block":0,"trial_type":"audio-keyboard-response","trial_index":49,"time_elapsed":3244994,"internal_node_id":"0.0-10.0-3.9","match_key":"l","participant_id":"06"},{"rt":25286.589999916032,"stimulus":"<p>The rest of the experiment is divided into five blocks with 100 trials in each block. It will take about 45 minutes to complete.</p><p>The experimenter will be in the outer room and you can communicate with them through the monitor if you have any questions or wish to stop the experiment.</p>","key_press":32,"trial_type":"html-keyboard-response","trial_index":50,"time_elapsed":3270293,"internal_node_id":"0.0-11.0","match_key":"l","participant_id":"06"},{"rt":54302.700000000186,"stimulus":"<p>Remember, please try not to move or blink your eyes during the presentation of the images. </p><p>At the end of the experiment, we will show you your scores on the task so you can see how you did.</p><p>The experiment will start on the next screen.</p>","key_press":32,"trial_type":"html-keyboard-response","trial_index":51,"time_elapsed":3324585,"internal_node_id":"0.0-12.0","match_key":"l","participant_id":"06"},{"rt":null,"stimulus":"Sounds/gun_label.wav","key_press":null,"block":1,"trial_type":"audio-keyboard-response","trial_index":52,"time_elapsed":3327177,"internal_node_id":"0.0-13.0-0.0","match_key":"l","participant_id":"06"},{"rt":null,"stimulus":"<p style=\"font-size: 48px;\">+</p>","key_press":null,"block":1,"trial_type":"html-keyboard-response","trial_index":53,"time_elapsed":3328171,"internal_node_id":"0.0-13.0-1.0","match_key":"l","participant_id":"06"},{"rt":700.4149999702349,"stimulus":"Images/gun_2.png","key_press":76,"stim_onset":1581390044964,"block":1,"match_type":"match","image_category":"gun","sound_category":"gun","audio_type":"label","phase":"test","trial_type":"image-keyboard-response","trial_index":54,"time_elapsed":3328872,"internal_node_id":"0.0-13.0-2.0","match_key":"l","participant_id":"06","correct":true},{"rt":null,"stimulus":"Sounds/correct.wav","key_press":null,"block":1,"trial_type":"audio-keyboard-response","trial_index":55,"time_elapsed":3330883,"internal_node_id":"0.0-13.0-3.0","match_key":"l","participant_id":"06"},{"rt":null,"stimulus":"Sounds/motorcycle_label.wav","key_press":null,"block":1,"trial_type":"audio-keyboard-response","trial_index":56,"time_elapsed":3332018,"internal_node_id":"0.0-13.0-0.1","match_key":"l","participant_id":"06"},{"rt":null,"stimulus":"<p style=\"font-size: 48px;\">+</p>","key_press":null,"block":1,"trial_type":"html-keyboard-response","trial_index":57,"time_elapsed":3333021,"internal_node_id":"0.0-13.0-1.1","match_key":"l","participant_id":"06"},{"rt":554.5200000051409,"stimulus":"Images/motorcycle_orig.png","key_press":76,"stim_onset":1581390049814,"block":1,"match_type":"match","image_category":"motorcycle","sound_category":"motorcycle","audio_type":"label","phase":"test","trial_type":"image-keyboard-response","trial_index":58,"time_elapsed":3333576,"internal_node_id":"0.0-13.0-2.1","match_key":"l","participant_id":"06","correct":true},{"rt":null,"stimulus":"Sounds/correct.wav","key_press":null,"block":1,"trial_type":"audio-keyboard-response","trial_index":59,"time_elapsed":3335593,"internal_node_id":"0.0-13.0-3.1","match_key":"l","participant_id":"06"},{"rt":null,"stimulus":"Sounds/train_label.wav","key_press":null,"block":1,"trial_type":"audio-keyboard-response","trial_index":60,"time_elapsed":3336877,"internal_node_id":"0.0-13.0-0.2","match_key":"l","participant_id":"06"},{"rt":null,"stimulus":"<p style=\"font-size: 48px;\">+</p>","key_press":null,"block":1,"trial_type":"html-keyboard-response","trial_index":61,"time_elapsed":3337871,"internal_node_id":"0.0-13.0-1.2","match_key":"l","participant_id":"06"},{"rt":376.7399999778718,"stimulus":"Images/dog_orig.png","key_press":65,"stim_onset":1581390054664,"block":1,"match_type":"non-match","image_category":"dog","sound_category":"train","audio_type":"label","phase":"test","trial_type":"image-keyboard-response","trial_index":62,"time_elapsed":3338249,"internal_node_id":"0.0-13.0-2.2","match_key":"l","participant_id":"06","correct":true},{"rt":null,"stimulus":"Sounds/correct.wav","key_press":null,"block":1,"trial_type":"audio-keyboard-response","trial_index":63,"time_elapsed":3340259,"internal_node_id":"0.0-13.0-3.2","match_key":"l","participant_id":"06"},{"rt":null,"stimulus":"Sounds/whistle_label.wav","key_press":null,"block":1,"trial_type":"audio-keyboard-response","trial_index":64,"time_elapsed":3340957,"internal_node_id":"0.0-13.0-0.3","match_key":"l","participant_id":"06"},{"rt":null,"stimulus":"<p style=\"font-size: 48px;\">+</p>","key_press":null,"block":1,"trial_type":"html-keyboard-response","trial_index":65,"time_elapsed":3341954,"internal_node_id":"0.0-13.0-1.3","match_key":"l","participant_id":"06"},{"rt":757.1349999634549,"stimulus":"Images/whistle_cartoon.png","key_press":76,"stim_onset":1581390058747,"block":1,"match_type":"match","image_category":"whistle","sound_category":"whistle","audio_type":"label","phase":"test","trial_type":"image-keyboard-response","trial_index":66,"time_elapsed":3342712,"internal_node_id":"0.0-13.0-2.3","match_key":"l","participant_id":"06","correct":true},{"rt":null,"stimulus":"Sounds/correct.wav","key_press":null,"block":1,"trial_type":"audio-keyboard-response","trial_index":67,"time_elapsed":3344728,"internal_node_id":"0.0-13.0-3.3","match_key":"l","participant_id":"06"},{"rt":null,"stimulus":"Sounds/dog_label.wav","key_press":null,"block":1,"trial_type":"audio-keyboard-response","trial_index":68,"time_elapsed":3345377,"internal_node_id":"0.0-13.0-0.4","match_key":"l","participant_id":"06"},{"rt":null,"stimulus":"<p style=\"font-size: 48px;\">+</p>","key_press":null,"block":1,"trial_type":"html-keyboard-response","trial_index":69,"time_elapsed":3346371,"internal_node_id":"0.0-13.0-1.4","match_key":"l","participant_id":"06"},{"rt":548.4099999302998,"stimulus":"Images/motorcycle_2.png","key_press":65,"stim_onset":1581390063164,"block":1,"match_type":"non-match","image_category":"motorcycle","sound_category":"dog","audio_type":"label","phase":"test","trial_type":"image-keyboard-response","trial_index":70,"time_elapsed":3346920,"internal_node_id":"0.0-13.0-2.4","match_key":"l","participant_id":"06","correct":true},{"rt":null,"stimulus":"Sounds/correct.wav","key_press":null,"block":1,"trial_type":"audio-keyboard-response","trial_index":71,"time_elapsed":3348930,"internal_node_id":"0.0-13.0-3.4","match_key":"l","participant_id":"06"},{"rt":null,"stimulus":"Sounds/dog_sound.wav","key_press":null,"block":1,"trial_type":"audio-keyboard-response","trial_index":72,"time_elapsed":3349637,"internal_node_id":"0.0-13.0-0.5","match_key":"l","participant_id":"06"},{"rt":null,"stimulus":"<p style=\"font-size: 48px;\">+</p>","key_press":null,"block":1,"trial_type":"html-keyboard-response","trial_index":73,"time_elapsed":3350637,"internal_node_id":"0.0-13.0-1.5","match_key":"l","participant_id":"06"},{"rt":490.1000000536442,"stimulus":"Images/gun_3.png","key_press":65,"stim_onset":1581390067431,"block":1,"match_type":"non-match","image_category":"gun","sound_category":"dog","audio_type":"sound","phase":"test","trial_type":"image-keyboard-response","trial_index":74,"time_elapsed":3351128,"internal_node_id":"0.0-13.0-2.5","match_key":"l","participant_id":"06","correct":true},{"rt":null,"stimulus":"Sounds/correct.wav","key_press":null,"block":1,"trial_type":"audio-keyboard-response","trial_index":75,"time_elapsed":3353132,"internal_node_id":"0.0-13.0-3.5","match_key":"l","participant_id":"06"},{"rt":null,"stimulus":"Sounds/train_label.wav","key_press":null,"block":1,"trial_type":"audio-keyboard-response","trial_index":76,"time_elapsed":3354377,"internal_node_id":"0.0-13.0-0.6","match_key":"l","participant_id":"06"},{"rt":null,"stimulus":"<p style=\"font-size: 48px;\">+</p>","key_press":null,"block":1,"trial_type":"html-keyboard-response","trial_index":77,"time_elapsed":3355371,"internal_node_id":"0.0-13.0-1.6","match_key":"l","participant_id":"06"},{"rt":428.23499999940395,"stimulus":"Images/train_cartoon.png","key_press":76,"stim_onset":1581390072164,"block":1,"match_type":"match","image_category":"train","sound_category":"train","audio_type":"label","phase":"test","trial_type":"image-keyboard-response","trial_index":78,"time_elapsed":3355800,"internal_node_id":"0.0-13.0-2.6","match_key":"l","participant_id":"06","correct":true},{"rt":null,"stimulus":"Sounds/correct.wav","key_press":null,"block":1,"trial_type":"audio-keyboard-response","trial_index":79,"time_elapsed":3357804,"internal_node_id":"0.0-13.0-3.6","match_key":"l","participant_id":"06"},{"rt":null,"stimulus":"Sounds/train_sound.wav","key_press":null,"block":1,"trial_type":"audio-keyboard-response","trial_index":80,"time_elapsed":3359097,"internal_node_id":"0.0-13.0-0.7","match_key":"l","participant_id":"06"},{"rt":null,"stimulus":"<p style=\"font-size: 48px;\">+</p>","key_press":null,"block":1,"trial_type":"html-keyboard-response","trial_index":81,"time_elapsed":3360088,"internal_node_id":"0.0-13.0-1.7","match_key":"l","participant_id":"06"},{"rt":927.5899999774992,"stimulus":"Images/train_3.png","key_press":76,"stim_onset":1581390076881,"block":1,"match_type":"match","image_category":"train","sound_category":"train","audio_type":"sound","phase":"test","trial_type":"image-keyboard-response","trial_index":82,"time_elapsed":3361016,"internal_node_id":"0.0-13.0-2.7","match_key":"l","participant_id":"06","correct":true},{"rt":null,"stimulus":"Sounds/correct.wav","key_press":null,"block":1,"trial_type":"audio-keyboard-response","trial_index":83,"time_elapsed":3363033,"internal_node_id":"0.0-13.0-3.7","match_key":"l","participant_id":"06"},{"rt":null,"stimulus":"Sounds/dog_label.wav","key_press":null,"block":1,"trial_type":"audio-keyboard-response","trial_index":84,"time_elapsed":3363677,"internal_node_id":"0.0-13.0-0.8","match_key":"l","participant_id":"06"},{"rt":null,"stimulus":"<p style=\"font-size: 48px;\">+</p>","key_press":null,"block":1,"trial_type":"html-keyboard-response","trial_index":85,"time_elapsed":3364671,"internal_node_id":"0.0-13.0-1.8","match_key":"l","participant_id":"06"},{"rt":360.4600001126528,"stimulus":"Images/dog_cartoon.png","key_press":76,"stim_onset":1581390081464,"block":1,"match_type":"match","image_category":"dog","sound_category":"dog","audio_type":"label","phase":"test","trial_type":"image-keyboard-response","trial_index":86,"time_elapsed":3365032,"internal_node_id":"0.0-13.0-2.8","match_key":"l","participant_id":"06","correct":true},{"rt":null,"stimulus":"Sounds/correct.wav","key_press":null,"block":1,"trial_type":"audio-keyboard-response","trial_index":87,"time_elapsed":3367043,"internal_node_id":"0.0-13.0-3.8","match_key":"l","participant_id":"06"},{"rt":null,"stimulus":"Sounds/frog_label.wav","key_press":null,"block":1,"trial_type":"audio-keyboard-response","trial_index":88,"time_elapsed":3367937,"internal_node_id":"0.0-13.0-0.9","match_key":"l","participant_id":"06"},{"rt":null,"stimulus":"<p style=\"font-size: 48px;\">+</p>","key_press":null,"block":1,"trial_type":"html-keyboard-response","trial_index":89,"time_elapsed":3368954,"internal_node_id":"0.0-13.0-1.9","match_key":"l","participant_id":"06"},{"rt":556.9700000341982,"stimulus":"Images/rooster_2.png","key_press":65,"stim_onset":1581390085748,"block":1,"match_type":"non-match","image_category":"rooster","sound_category":"frog","audio_type":"label","phase":"test","trial_type":"image-keyboard-response","trial_index":90,"time_elapsed":3369512,"internal_node_id":"0.0-13.0-2.9","match_key":"l","participant_id":"06","correct":true},{"rt":null,"stimulus":"Sounds/correct.wav","key_press":null,"block":1,"trial_type":"audio-keyboard-response","trial_index":91,"time_elapsed":3371526,"internal_node_id":"0.0-13.0-3.9","match_key":"l","participant_id":"06"},{"rt":null,"stimulus":"Sounds/dog_label.wav","key_press":null,"block":1,"trial_type":"audio-keyboard-response","trial_index":92,"time_elapsed":3372157,"internal_node_id":"0.0-13.0-0.10","match_key":"l","participant_id":"06"},{"rt":null,"stimulus":"<p style=\"font-size: 48px;\">+</p>","key_press":null,"block":1,"trial_type":"html-keyboard-response","trial_index":93,"time_elapsed":3373155,"internal_node_id":"0.0-13.0-1.10","match_key":"l","participant_id":"06"},{"rt":372.7800000924617,"stimulus":"Images/dog_orig.png","key_press":76,"stim_onset":1581390089948,"block":1,"match_type":"match","image_category":"dog","sound_category":"dog","audio_type":"label","phase":"test","trial_type":"image-keyboard-response","trial_index":94,"time_elapsed":3373528,"internal_node_id":"0.0-13.0-2.10","match_key":"l","participant_id":"06","correct":true},{"rt":null,"stimulus":"Sounds/correct.wav","key_press":null,"block":1,"trial_type":"audio-keyboard-response","trial_index":95,"time_elapsed":3375542,"internal_node_id":"0.0-13.0-3.10","match_key":"l","participant_id":"06"},{"rt":null,"stimulus":"Sounds/motorcycle_sound.wav","key_press":null,"block":1,"trial_type":"audio-keyboard-response","trial_index":96,"time_elapsed":3376657,"internal_node_id":"0.0-13.0-0.11","match_key":"l","participant_id":"06"},{"rt":null,"stimulus":"<p style=\"font-size: 48px;\">+</p>","key_press":null,"block":1,"trial_type":"html-keyboard-response","trial_index":97,"time_elapsed":3377655,"internal_node_id":"0.0-13.0-1.11","match_key":"l","participant_id":"06"},{"rt":641.2850000197068,"stimulus":"Images/frog_orig.png","key_press":65,"stim_onset":1581390094448,"block":1,"match_type":"non-match","image_category":"frog","sound_category":"motorcycle","audio_type":"sound","phase":"test","trial_type":"image-keyboard-response","trial_index":98,"time_elapsed":3378297,"internal_node_id":"0.0-13.0-2.11","match_key":"l","participant_id":"06","correct":true},{"rt":null,"stimulus":"Sounds/correct.wav","key_press":null,"block":1,"trial_type":"audio-keyboard-response","trial_index":99,"time_elapsed":3380305,"internal_node_id":"0.0-13.0-3.11","match_key":"l","participant_id":"06"},{"rt":null,"stimulus":"Sounds/cat_sound.wav","key_press":null,"block":1,"trial_type":"audio-keyboard-response","trial_index":100,"time_elapsed":3381137,"internal_node_id":"0.0-13.0-0.12","match_key":"l","participant_id":"06"},{"rt":null,"stimulus":"<p style=\"font-size: 48px;\">+</p>","key_press":null,"block":1,"trial_type":"html-keyboard-response","trial_index":101,"time_elapsed":3382154,"internal_node_id":"0.0-13.0-1.12","match_key":"l","participant_id":"06"},{"rt":444.7500000242144,"stimulus":"Images/cat_1.png","key_press":76,"stim_onset":1581390098948,"block":1,"match_type":"match","image_category":"cat","sound_category":"cat","audio_type":"sound","phase":"test","trial_type":"image-keyboard-response","trial_index":102,"time_elapsed":3382600,"internal_node_id":"0.0-13.0-2.12","match_key":"l","participant_id":"06","correct":true},{"rt":null,"stimulus":"Sounds/correct.wav","key_press":null,"block":1,"trial_type":"audio-keyboard-response","trial_index":103,"time_elapsed":3384630,"internal_node_id":"0.0-13.0-3.12","match_key":"l","participant_id":"06"},{"rt":null,"stimulus":"Sounds/gun_label.wav","key_press":null,"block":1,"trial_type":"audio-keyboard-response","trial_index":104,"time_elapsed":3385210,"internal_node_id":"0.0-13.0-0.13","match_key":"l","participant_id":"06"},{"rt":null,"stimulus":"<p style=\"font-size: 48px;\">+</p>","key_press":null,"block":1,"trial_type":"html-keyboard-response","trial_index":105,"time_elapsed":3386201,"internal_node_id":"0.0-13.0-1.13","match_key":"l","participant_id":"06"},{"rt":427.3950000060722,"stimulus":"Images/car_orig.png","key_press":65,"stim_onset":1581390102994,"block":1,"match_type":"non-match","image_category":"car","sound_category":"gun","audio_type":"label","phase":"test","trial_type":"image-keyboard-response","trial_index":106,"time_elapsed":3386629,"internal_node_id":"0.0-13.0-2.13","match_key":"l","participant_id":"06","correct":true},{"rt":null,"stimulus":"Sounds/correct.wav","key_press":null,"block":1,"trial_type":"audio-keyboard-response","trial_index":107,"time_elapsed":3388635,"internal_node_id":"0.0-13.0-3.13","match_key":"l","participant_id":"06"},{"rt":null,"stimulus":"Sounds/cat_label.wav","key_press":null,"block":1,"trial_type":"audio-keyboard-response","trial_index":108,"time_elapsed":3389470,"internal_node_id":"0.0-13.0-0.14","match_key":"l","participant_id":"06"},{"rt":null,"stimulus":"<p style=\"font-size: 48px;\">+</p>","key_press":null,"block":1,"trial_type":"html-keyboard-response","trial_index":109,"time_elapsed":3390468,"internal_node_id":"0.0-13.0-1.14","match_key":"l","participant_id":"06"},{"rt":576.8450000323355,"stimulus":"Images/rooster_orig.png","key_press":65,"stim_onset":1581390107261,"block":1,"match_type":"non-match","image_category":"rooster","sound_category":"cat","audio_type":"label","phase":"test","trial_type":"image-keyboard-response","trial_index":110,"time_elapsed":3391045,"internal_node_id":"0.0-13.0-2.14","match_key":"l","participant_id":"06","correct":true},{"rt":null,"stimulus":"Sounds/correct.wav","key_press":null,"block":1,"trial_type":"audio-keyboard-response","trial_index":111,"time_elapsed":3393057,"internal_node_id":"0.0-13.0-3.14","match_key":"l","participant_id":"06"},{"rt":null,"stimulus":"Sounds/motorcycle_sound.wav","key_press":null,"block":1,"trial_type":"audio-keyboard-response","trial_index":112,"time_elapsed":3394150,"internal_node_id":"0.0-13.0-0.15","match_key":"l","participant_id":"06"},{"rt":null,"stimulus":"<p style=\"font-size: 48px;\">+</p>","key_press":null,"block":1,"trial_type":"html-keyboard-response","trial_index":113,"time_elapsed":3395167,"internal_node_id":"0.0-13.0-1.15","match_key":"l","participant_id":"06"},{"rt":516.8550000526011,"stimulus":"Images/motorcycle_3.png","key_press":76,"stim_onset":1581390111961,"block":1,"match_type":"match","image_category":"motorcycle","sound_category":"motorcycle","audio_type":"sound","phase":"test","trial_type":"image-keyboard-response","trial_index":114,"time_elapsed":3395685,"internal_node_id":"0.0-13.0-2.15","match_key":"l","participant_id":"06","correct":true},{"rt":null,"stimulus":"Sounds/correct.wav","key_press":null,"block":1,"trial_type":"audio-keyboard-response","trial_index":115,"time_elapsed":3397692,"internal_node_id":"0.0-13.0-3.15","match_key":"l","participant_id":"06"},{"rt":null,"stimulus":"Sounds/whistle_sound.wav","key_press":null,"block":1,"trial_type":"audio-keyboard-response","trial_index":116,"time_elapsed":3398390,"internal_node_id":"0.0-13.0-0.16","match_key":"l","participant_id":"06"},{"rt":null,"stimulus":"<p style=\"font-size: 48px;\">+</p>","key_press":null,"block":1,"trial_type":"html-keyboard-response","trial_index":117,"time_elapsed":3399384,"internal_node_id":"0.0-13.0-1.16","match_key":"l","participant_id":"06"},{"rt":491.8449999531731,"stimulus":"Images/whistle_2.png","key_press":76,"stim_onset":1581390116177,"block":1,"match_type":"match","image_category":"whistle","sound_category":"whistle","audio_type":"sound","phase":"test","trial_type":"image-keyboard-response","trial_index":118,"time_elapsed":3399877,"internal_node_id":"0.0-13.0-2.16","match_key":"l","participant_id":"06","correct":true},{"rt":null,"stimulus":"Sounds/correct.wav","key_press":null,"block":1,"trial_type":"audio-keyboard-response","trial_index":119,"time_elapsed":3401895,"internal_node_id":"0.0-13.0-3.16","match_key":"l","participant_id":"06"},{"rt":null,"stimulus":"Sounds/dog_sound.wav","key_press":null,"block":1,"trial_type":"audio-keyboard-response","trial_index":120,"time_elapsed":3402610,"internal_node_id":"0.0-13.0-0.17","match_key":"l","participant_id":"06"},{"rt":null,"stimulus":"<p style=\"font-size: 48px;\">+</p>","key_press":null,"block":1,"trial_type":"html-keyboard-response","trial_index":121,"time_elapsed":3403601,"internal_node_id":"0.0-13.0-1.17","match_key":"l","participant_id":"06"},{"rt":387.4400000786409,"stimulus":"Images/dog_2.png","key_press":76,"stim_onset":1581390120394,"block":1,"match_type":"match","image_category":"dog","sound_category":"dog","audio_type":"sound","phase":"test","trial_type":"image-keyboard-response","trial_index":122,"time_elapsed":3403990,"internal_node_id":"0.0-13.0-2.17","match_key":"l","participant_id":"06","correct":true},{"rt":null,"stimulus":"Sounds/correct.wav","key_press":null,"block":1,"trial_type":"audio-keyboard-response","trial_index":123,"time_elapsed":3406004,"internal_node_id":"0.0-13.0-3.17","match_key":"l","participant_id":"06"},{"rt":null,"stimulus":"Sounds/cat_label.wav","key_press":null,"block":1,"trial_type":"audio-keyboard-response","trial_index":124,"time_elapsed":3406810,"internal_node_id":"0.0-13.0-0.18","match_key":"l","participant_id":"06"},{"rt":null,"stimulus":"<p style=\"font-size: 48px;\">+</p>","key_press":null,"block":1,"trial_type":"html-keyboard-response","trial_index":125,"time_elapsed":3407801,"internal_node_id":"0.0-13.0-1.18","match_key":"l","participant_id":"06"},{"rt":362.95500001870096,"stimulus":"Images/cat_cartoon.png","key_press":76,"stim_onset":1581390124594,"block":1,"match_type":"match","image_category":"cat","sound_category":"cat","audio_type":"label","phase":"test","trial_type":"image-keyboard-response","trial_index":126,"time_elapsed":3408165,"internal_node_id":"0.0-13.0-2.18","match_key":"l","participant_id":"06","correct":true},{"rt":null,"stimulus":"Sounds/correct.wav","key_press":null,"block":1,"trial_type":"audio-keyboard-response","trial_index":127,"time_elapsed":3410173,"internal_node_id":"0.0-13.0-3.18","match_key":"l","participant_id":"06"},{"rt":null,"stimulus":"Sounds/car_sound.wav","key_press":null,"block":1,"trial_type":"audio-keyboard-response","trial_index":128,"time_elapsed":3411250,"internal_node_id":"0.0-13.0-0.19","match_key":"l","participant_id":"06"},{"rt":null,"stimulus":"<p style=\"font-size: 48px;\">+</p>","key_press":null,"block":1,"trial_type":"html-keyboard-response","trial_index":129,"time_elapsed":3412268,"internal_node_id":"0.0-13.0-1.19","match_key":"l","participant_id":"06"},{"rt":440.26999990455806,"stimulus":"Images/cow_cartoon.png","key_press":65,"stim_onset":1581390129061,"block":1,"match_type":"non-match","image_category":"cow","sound_category":"car","audio_type":"sound","phase":"test","trial_type":"image-keyboard-response","trial_index":130,"time_elapsed":3412709,"internal_node_id":"0.0-13.0-2.19","match_key":"l","participant_id":"06","correct":true},{"rt":null,"stimulus":"Sounds/correct.wav","key_press":null,"block":1,"trial_type":"audio-keyboard-response","trial_index":131,"time_elapsed":3414721,"internal_node_id":"0.0-13.0-3.19","match_key":"l","participant_id":"06"},{"rt":null,"stimulus":"Sounds/rooster_label.wav","key_press":null,"block":1,"trial_type":"audio-keyboard-response","trial_index":132,"time_elapsed":3415410,"internal_node_id":"0.0-13.0-0.20","match_key":"l","participant_id":"06"},{"rt":null,"stimulus":"<p style=\"font-size: 48px;\">+</p>","key_press":null,"block":1,"trial_type":"html-keyboard-response","trial_index":133,"time_elapsed":3416401,"internal_node_id":"0.0-13.0-1.20","match_key":"l","participant_id":"06"},{"rt":547.0900000073016,"stimulus":"Images/cat_1.png","key_press":65,"stim_onset":1581390133194,"block":1,"match_type":"non-match","image_category":"cat","sound_category":"rooster","audio_type":"label","phase":"test","trial_type":"image-keyboard-response","trial_index":134,"time_elapsed":3416950,"internal_node_id":"0.0-13.0-2.20","match_key":"l","participant_id":"06","correct":true},{"rt":null,"stimulus":"Sounds/correct.wav","key_press":null,"block":1,"trial_type":"audio-keyboard-response","trial_index":135,"time_elapsed":3418960,"internal_node_id":"0.0-13.0-3.20","match_key":"l","participant_id":"06"},{"rt":null,"stimulus":"Sounds/car_sound.wav","key_press":null,"block":1,"trial_type":"audio-keyboard-response","trial_index":136,"time_elapsed":3420010,"internal_node_id":"0.0-13.0-0.21","match_key":"l","participant_id":"06"},{"rt":null,"stimulus":"<p style=\"font-size: 48px;\">+</p>","key_press":null,"block":1,"trial_type":"html-keyboard-response","trial_index":137,"time_elapsed":3421001,"internal_node_id":"0.0-13.0-1.21","match_key":"l","participant_id":"06"},{"rt":379.01499995496124,"stimulus":"Images/car_3.png","key_press":76,"stim_onset":1581390137795,"block":1,"match_type":"match","image_category":"car","sound_category":"car","audio_type":"sound","phase":"test","trial_type":"image-keyboard-response","trial_index":138,"time_elapsed":3421381,"internal_node_id":"0.0-13.0-2.21","match_key":"l","participant_id":"06","correct":true},{"rt":null,"stimulus":"Sounds/correct.wav","key_press":null,"block":1,"trial_type":"audio-keyboard-response","trial_index":139,"time_elapsed":3423389,"internal_node_id":"0.0-13.0-3.21","match_key":"l","participant_id":"06"},{"rt":null,"stimulus":"Sounds/cow_label.wav","key_press":null,"block":1,"trial_type":"audio-keyboard-response","trial_index":140,"time_elapsed":3424410,"internal_node_id":"0.0-13.0-0.22","match_key":"l","participant_id":"06"},{"rt":null,"stimulus":"<p style=\"font-size: 48px;\">+</p>","key_press":null,"block":1,"trial_type":"html-keyboard-response","trial_index":141,"time_elapsed":3425401,"internal_node_id":"0.0-13.0-1.22","match_key":"l","participant_id":"06"},{"rt":410.8450000640005,"stimulus":"Images/cat_2.png","key_press":65,"stim_onset":1581390142195,"block":1,"match_type":"non-match","image_category":"cat","sound_category":"cow","audio_type":"label","phase":"test","trial_type":"image-keyboard-response","trial_index":142,"time_elapsed":3425813,"internal_node_id":"0.0-13.0-2.22","match_key":"l","participant_id":"06","correct":true},{"rt":null,"stimulus":"Sounds/correct.wav","key_press":null,"block":1,"trial_type":"audio-keyboard-response","trial_index":143,"time_elapsed":3427823,"internal_node_id":"0.0-13.0-3.22","match_key":"l","participant_id":"06"},{"rt":null,"stimulus":"Sounds/cow_label.wav","key_press":null,"block":1,"trial_type":"audio-keyboard-response","trial_index":144,"time_elapsed":3428810,"internal_node_id":"0.0-13.0-0.23","match_key":"l","participant_id":"06"},{"rt":null,"stimulus":"<p style=\"font-size: 48px;\">+</p>","key_press":null,"block":1,"trial_type":"html-keyboard-response","trial_index":145,"time_elapsed":3429802,"internal_node_id":"0.0-13.0-1.23","match_key":"l","participant_id":"06"},{"rt":411.1000000266358,"stimulus":"Images/frog_3.png","key_press":65,"stim_onset":1581390146595,"block":1,"match_type":"non-match","image_category":"frog","sound_category":"cow","audio_type":"label","phase":"test","trial_type":"image-keyboard-response","trial_index":146,"time_elapsed":3430214,"internal_node_id":"0.0-13.0-2.23","match_key":"l","participant_id":"06","correct":true},{"rt":null,"stimulus":"Sounds/correct.wav","key_press":null,"block":1,"trial_type":"audio-keyboard-response","trial_index":147,"time_elapsed":3432220,"internal_node_id":"0.0-13.0-3.23","match_key":"l","participant_id":"06"},{"rt":null,"stimulus":"Sounds/car_label.wav","key_press":null,"block":1,"trial_type":"audio-keyboard-response","trial_index":148,"time_elapsed":3433290,"internal_node_id":"0.0-13.0-0.24","match_key":"l","participant_id":"06"},{"rt":null,"stimulus":"<p style=\"font-size: 48px;\">+</p>","key_press":null,"block":1,"trial_type":"html-keyboard-response","trial_index":149,"time_elapsed":3434285,"internal_node_id":"0.0-13.0-1.24","match_key":"l","participant_id":"06"},{"rt":599.4250000221655,"stimulus":"Images/gun_orig.png","key_press":65,"stim_onset":1581390151078,"block":1,"match_type":"non-match","image_category":"gun","sound_category":"car","audio_type":"label","phase":"test","trial_type":"image-keyboard-response","trial_index":150,"time_elapsed":3434885,"internal_node_id":"0.0-13.0-2.24","match_key":"l","participant_id":"06","correct":true},{"rt":null,"stimulus":"Sounds/correct.wav","key_press":null,"block":1,"trial_type":"audio-keyboard-response","trial_index":151,"time_elapsed":3436891,"internal_node_id":"0.0-13.0-3.24","match_key":"l","participant_id":"06"},{"rt":null,"stimulus":"Sounds/whistle_sound.wav","key_press":null,"block":1,"trial_type":"audio-keyboard-response","trial_index":152,"time_elapsed":3437590,"internal_node_id":"0.0-13.0-0.25","match_key":"l","participant_id":"06"},{"rt":null,"stimulus":"<p style=\"font-size: 48px;\">+</p>","key_press":null,"block":1,"trial_type":"html-keyboard-response","trial_index":153,"time_elapsed":3438585,"internal_node_id":"0.0-13.0-1.25","match_key":"l","participant_id":"06"},{"rt":443.22499993722886,"stimulus":"Images/cat_orig.png","key_press":65,"stim_onset":1581390155378,"block":1,"match_type":"non-match","image_category":"cat","sound_category":"whistle","audio_type":"sound","phase":"test","trial_type":"image-keyboard-response","trial_index":154,"time_elapsed":3439029,"internal_node_id":"0.0-13.0-2.25","match_key":"l","participant_id":"06","correct":true},{"rt":null,"stimulus":"Sounds/correct.wav","key_press":null,"block":1,"trial_type":"audio-keyboard-response","trial_index":155,"time_elapsed":3441033,"internal_node_id":"0.0-13.0-3.25","match_key":"l","participant_id":"06"},{"rt":null,"stimulus":"Sounds/cow_sound.wav","key_press":null,"block":1,"trial_type":"audio-keyboard-response","trial_index":156,"time_elapsed":3442050,"internal_node_id":"0.0-13.0-0.26","match_key":"l","participant_id":"06"},{"rt":null,"stimulus":"<p style=\"font-size: 48px;\">+</p>","key_press":null,"block":1,"trial_type":"html-keyboard-response","trial_index":157,"time_elapsed":3443068,"internal_node_id":"0.0-13.0-1.26","match_key":"l","participant_id":"06"},{"rt":440.37500000558794,"stimulus":"Images/cow_1.png","key_press":76,"stim_onset":1581390159861,"block":1,"match_type":"match","image_category":"cow","sound_category":"cow","audio_type":"sound","phase":"test","trial_type":"image-keyboard-response","trial_index":158,"time_elapsed":3443510,"internal_node_id":"0.0-13.0-2.26","match_key":"l","participant_id":"06","correct":true},{"rt":null,"stimulus":"Sounds/correct.wav","key_press":null,"block":1,"trial_type":"audio-keyboard-response","trial_index":159,"time_elapsed":3445516,"internal_node_id":"0.0-13.0-3.26","match_key":"l","participant_id":"06"},{"rt":null,"stimulus":"Sounds/rooster_label.wav","key_press":null,"block":1,"trial_type":"audio-keyboard-response","trial_index":160,"time_elapsed":3446211,"internal_node_id":"0.0-13.0-0.27","match_key":"l","participant_id":"06"},{"rt":null,"stimulus":"<p style=\"font-size: 48px;\">+</p>","key_press":null,"block":1,"trial_type":"html-keyboard-response","trial_index":161,"time_elapsed":3447202,"internal_node_id":"0.0-13.0-1.27","match_key":"l","participant_id":"06"},{"rt":530.6049999780953,"stimulus":"Images/rooster_3.png","key_press":76,"stim_onset":1581390163995,"block":1,"match_type":"match","image_category":"rooster","sound_category":"rooster","audio_type":"label","phase":"test","trial_type":"image-keyboard-response","trial_index":162,"time_elapsed":3447734,"internal_node_id":"0.0-13.0-2.27","match_key":"l","participant_id":"06","correct":true},{"rt":null,"stimulus":"Sounds/correct.wav","key_press":null,"block":1,"trial_type":"audio-keyboard-response","trial_index":163,"time_elapsed":3449745,"internal_node_id":"0.0-13.0-3.27","match_key":"l","participant_id":"06"},{"rt":null,"stimulus":"Sounds/cow_sound.wav","key_press":null,"block":1,"trial_type":"audio-keyboard-response","trial_index":164,"time_elapsed":3450731,"internal_node_id":"0.0-13.0-0.28","match_key":"l","participant_id":"06"},{"rt":null,"stimulus":"<p style=\"font-size: 48px;\">+</p>","key_press":null,"block":1,"trial_type":"html-keyboard-response","trial_index":165,"time_elapsed":3451719,"internal_node_id":"0.0-13.0-1.28","match_key":"l","participant_id":"06"},{"rt":541.8649999191985,"stimulus":"Images/cow_orig.png","key_press":76,"stim_onset":1581390168512,"block":1,"match_type":"match","image_category":"cow","sound_category":"cow","audio_type":"sound","phase":"test","trial_type":"image-keyboard-response","trial_index":166,"time_elapsed":3452262,"internal_node_id":"0.0-13.0-2.28","match_key":"l","participant_id":"06","correct":true},{"rt":null,"stimulus":"Sounds/correct.wav","key_press":null,"block":1,"trial_type":"audio-keyboard-response","trial_index":167,"time_elapsed":3454275,"internal_node_id":"0.0-13.0-3.28","match_key":"l","participant_id":"06"},{"rt":null,"stimulus":"Sounds/frog_sound.wav","key_press":null,"block":1,"trial_type":"audio-keyboard-response","trial_index":168,"time_elapsed":3455190,"internal_node_id":"0.0-13.0-0.29","match_key":"l","participant_id":"06"},{"rt":null,"stimulus":"<p style=\"font-size: 48px;\">+</p>","key_press":null,"block":1,"trial_type":"html-keyboard-response","trial_index":169,"time_elapsed":3456186,"internal_node_id":"0.0-13.0-1.29","match_key":"l","participant_id":"06"},{"rt":619.319999939762,"stimulus":"Images/frog_1.png","key_press":76,"stim_onset":1581390172979,"block":1,"match_type":"match","image_category":"frog","sound_category":"frog","audio_type":"sound","phase":"test","trial_type":"image-keyboard-response","trial_index":170,"time_elapsed":3456806,"internal_node_id":"0.0-13.0-2.29","match_key":"l","participant_id":"06","correct":true},{"rt":null,"stimulus":"Sounds/correct.wav","key_press":null,"block":1,"trial_type":"audio-keyboard-response","trial_index":171,"time_elapsed":3458823,"internal_node_id":"0.0-13.0-3.29","match_key":"l","participant_id":"06"},{"rt":null,"stimulus":"Sounds/car_sound.wav","key_press":null,"block":1,"trial_type":"audio-keyboard-response","trial_index":172,"time_elapsed":3459910,"internal_node_id":"0.0-13.0-0.30","match_key":"l","participant_id":"06"},{"rt":null,"stimulus":"<p style=\"font-size: 48px;\">+</p>","key_press":null,"block":1,"trial_type":"html-keyboard-response","trial_index":173,"time_elapsed":3460902,"internal_node_id":"0.0-13.0-1.30","match_key":"l","participant_id":"06"},{"rt":526.6899999696761,"stimulus":"Images/whistle_orig.png","key_press":65,"stim_onset":1581390177695,"block":1,"match_type":"non-match","image_category":"whistle","sound_category":"car","audio_type":"sound","phase":"test","trial_type":"image-keyboard-response","trial_index":174,"time_elapsed":3461430,"internal_node_id":"0.0-13.0-2.30","match_key":"l","participant_id":"06","correct":true},{"rt":null,"stimulus":"Sounds/correct.wav","key_press":null,"block":1,"trial_type":"audio-keyboard-response","trial_index":175,"time_elapsed":3463444,"internal_node_id":"0.0-13.0-3.30","match_key":"l","participant_id":"06"},{"rt":null,"stimulus":"Sounds/cow_label.wav","key_press":null,"block":1,"trial_type":"audio-keyboard-response","trial_index":176,"time_elapsed":3464451,"internal_node_id":"0.0-13.0-0.31","match_key":"l","participant_id":"06"},{"rt":null,"stimulus":"<p style=\"font-size: 48px;\">+</p>","key_press":null,"block":1,"trial_type":"html-keyboard-response","trial_index":177,"time_elapsed":3465486,"internal_node_id":"0.0-13.0-1.31","match_key":"l","participant_id":"06"},{"rt":583.1949999555945,"stimulus":"Images/motorcycle_3.png","key_press":65,"stim_onset":1581390182279,"block":1,"match_type":"non-match","image_category":"motorcycle","sound_category":"cow","audio_type":"label","phase":"test","trial_type":"image-keyboard-response","trial_index":178,"time_elapsed":3466070,"internal_node_id":"0.0-13.0-2.31","match_key":"l","participant_id":"06","correct":true},{"rt":null,"stimulus":"Sounds/correct.wav","key_press":null,"block":1,"trial_type":"audio-keyboard-response","trial_index":179,"time_elapsed":3468087,"internal_node_id":"0.0-13.0-3.31","match_key":"l","participant_id":"06"},{"rt":null,"stimulus":"Sounds/frog_sound.wav","key_press":null,"block":1,"trial_type":"audio-keyboard-response","trial_index":180,"time_elapsed":3468970,"internal_node_id":"0.0-13.0-0.32","match_key":"l","participant_id":"06"},{"rt":null,"stimulus":"<p style=\"font-size: 48px;\">+</p>","key_press":null,"block":1,"trial_type":"html-keyboard-response","trial_index":181,"time_elapsed":3469969,"internal_node_id":"0.0-13.0-1.32","match_key":"l","participant_id":"06"},{"rt":420.23000004701316,"stimulus":"Images/cow_1.png","key_press":76,"stim_onset":1581390186762,"block":1,"match_type":"non-match","image_category":"cow","sound_category":"frog","audio_type":"sound","phase":"test","trial_type":"image-keyboard-response","trial_index":182,"time_elapsed":3470390,"internal_node_id":"0.0-13.0-2.32","match_key":"l","participant_id":"06","correct":false},{"rt":null,"stimulus":"Sounds/incorrect.wav","key_press":null,"block":1,"trial_type":"audio-keyboard-response","trial_index":183,"time_elapsed":3472402,"internal_node_id":"0.0-13.0-3.32","match_key":"l","participant_id":"06"},{"rt":null,"stimulus":"Sounds/train_label.wav","key_press":null,"block":1,"trial_type":"audio-keyboard-response","trial_index":184,"time_elapsed":3473691,"internal_node_id":"0.0-13.0-0.33","match_key":"l","participant_id":"06"},{"rt":null,"stimulus":"<p style=\"font-size: 48px;\">+</p>","key_press":null,"block":1,"trial_type":"html-keyboard-response","trial_index":185,"time_elapsed":3474686,"internal_node_id":"0.0-13.0-1.33","match_key":"l","participant_id":"06"},{"rt":758.9900000020862,"stimulus":"Images/cat_3.png","key_press":65,"stim_onset":1581390191479,"block":1,"match_type":"non-match","image_category":"cat","sound_category":"train","audio_type":"label","phase":"test","trial_type":"image-keyboard-response","trial_index":186,"time_elapsed":3475446,"internal_node_id":"0.0-13.0-2.33","match_key":"l","participant_id":"06","correct":true},{"rt":null,"stimulus":"Sounds/correct.wav","key_press":null,"block":1,"trial_type":"audio-keyboard-response","trial_index":187,"time_elapsed":3477460,"internal_node_id":"0.0-13.0-3.33","match_key":"l","participant_id":"06"},{"rt":null,"stimulus":"Sounds/car_label.wav","key_press":null,"block":1,"trial_type":"audio-keyboard-response","trial_index":188,"time_elapsed":3478530,"internal_node_id":"0.0-13.0-0.34","match_key":"l","participant_id":"06"},{"rt":null,"stimulus":"<p style=\"font-size: 48px;\">+</p>","key_press":null,"block":1,"trial_type":"html-keyboard-response","trial_index":189,"time_elapsed":3479536,"internal_node_id":"0.0-13.0-1.34","match_key":"l","participant_id":"06"},{"rt":484.8950000014156,"stimulus":"Images/frog_1.png","key_press":65,"stim_onset":1581390196329,"block":1,"match_type":"non-match","image_category":"frog","sound_category":"car","audio_type":"label","phase":"test","trial_type":"image-keyboard-response","trial_index":190,"time_elapsed":3480022,"internal_node_id":"0.0-13.0-2.34","match_key":"l","participant_id":"06","correct":true},{"rt":null,"stimulus":"Sounds/correct.wav","key_press":null,"block":1,"trial_type":"audio-keyboard-response","trial_index":191,"time_elapsed":3482031,"internal_node_id":"0.0-13.0-3.34","match_key":"l","participant_id":"06"},{"rt":null,"stimulus":"Sounds/gun_label.wav","key_press":null,"block":1,"trial_type":"audio-keyboard-response","trial_index":192,"time_elapsed":3482611,"internal_node_id":"0.0-13.0-0.35","match_key":"l","participant_id":"06"},{"rt":null,"stimulus":"<p style=\"font-size: 48px;\">+</p>","key_press":null,"block":1,"trial_type":"html-keyboard-response","trial_index":193,"time_elapsed":3483602,"internal_node_id":"0.0-13.0-1.35","match_key":"l","participant_id":"06"},{"rt":482.42999997455627,"stimulus":"Images/train_3.png","key_press":65,"stim_onset":1581390200395,"block":1,"match_type":"non-match","image_category":"train","sound_category":"gun","audio_type":"label","phase":"test","trial_type":"image-keyboard-response","trial_index":194,"time_elapsed":3484086,"internal_node_id":"0.0-13.0-2.35","match_key":"l","participant_id":"06","correct":true},{"rt":null,"stimulus":"Sounds/correct.wav","key_press":null,"block":1,"trial_type":"audio-keyboard-response","trial_index":195,"time_elapsed":3486097,"internal_node_id":"0.0-13.0-3.35","match_key":"l","participant_id":"06"},{"rt":null,"stimulus":"Sounds/whistle_label.wav","key_press":null,"block":1,"trial_type":"audio-keyboard-response","trial_index":196,"time_elapsed":3486791,"internal_node_id":"0.0-13.0-0.36","match_key":"l","participant_id":"06"},{"rt":null,"stimulus":"<p style=\"font-size: 48px;\">+</p>","key_press":null,"block":1,"trial_type":"html-keyboard-response","trial_index":197,"time_elapsed":3487786,"internal_node_id":"0.0-13.0-1.36","match_key":"l","participant_id":"06"},{"rt":442.8949999855831,"stimulus":"Images/whistle_1.png","key_press":76,"stim_onset":1581390204579,"block":1,"match_type":"match","image_category":"whistle","sound_category":"whistle","audio_type":"label","phase":"test","trial_type":"image-keyboard-response","trial_index":198,"time_elapsed":3488230,"internal_node_id":"0.0-13.0-2.36","match_key":"l","participant_id":"06","correct":true},{"rt":null,"stimulus":"Sounds/correct.wav","key_press":null,"block":1,"trial_type":"audio-keyboard-response","trial_index":199,"time_elapsed":3490239,"internal_node_id":"0.0-13.0-3.36","match_key":"l","participant_id":"06"},{"rt":null,"stimulus":"Sounds/cat_label.wav","key_press":null,"block":1,"trial_type":"audio-keyboard-response","trial_index":200,"time_elapsed":3491090,"internal_node_id":"0.0-13.0-0.37","match_key":"l","participant_id":"06"},{"rt":null,"stimulus":"<p style=\"font-size: 48px;\">+</p>","key_press":null,"block":1,"trial_type":"html-keyboard-response","trial_index":201,"time_elapsed":3492086,"internal_node_id":"0.0-13.0-1.37","match_key":"l","participant_id":"06"},{"rt":510.6699999887496,"stimulus":"Images/motorcycle_orig.png","key_press":65,"stim_onset":1581390208879,"block":1,"match_type":"non-match","image_category":"motorcycle","sound_category":"cat","audio_type":"label","phase":"test","trial_type":"image-keyboard-response","trial_index":202,"time_elapsed":3492598,"internal_node_id":"0.0-13.0-2.37","match_key":"l","participant_id":"06","correct":true},{"rt":null,"stimulus":"Sounds/correct.wav","key_press":null,"block":1,"trial_type":"audio-keyboard-response","trial_index":203,"time_elapsed":3494611,"internal_node_id":"0.0-13.0-3.37","match_key":"l","participant_id":"06"},{"rt":null,"stimulus":"Sounds/motorcycle_label.wav","key_press":null,"block":1,"trial_type":"audio-keyboard-response","trial_index":204,"time_elapsed":3495751,"internal_node_id":"0.0-13.0-0.38","match_key":"l","participant_id":"06"},{"rt":null,"stimulus":"<p style=\"font-size: 48px;\">+</p>","key_press":null,"block":1,"trial_type":"html-keyboard-response","trial_index":205,"time_elapsed":3496753,"internal_node_id":"0.0-13.0-1.38","match_key":"l","participant_id":"06"},{"rt":356.36500001419336,"stimulus":"Images/motorcycle_2.png","key_press":76,"stim_onset":1581390213546,"block":1,"match_type":"match","image_category":"motorcycle","sound_category":"motorcycle","audio_type":"label","phase":"test","trial_type":"image-keyboard-response","trial_index":206,"time_elapsed":3497110,"internal_node_id":"0.0-13.0-2.38","match_key":"l","participant_id":"06","correct":true},{"rt":null,"stimulus":"Sounds/correct.wav","key_press":null,"block":1,"trial_type":"audio-keyboard-response","trial_index":207,"time_elapsed":3499123,"internal_node_id":"0.0-13.0-3.38","match_key":"l","participant_id":"06"},{"rt":null,"stimulus":"Sounds/gun_sound.wav","key_press":null,"block":1,"trial_type":"audio-keyboard-response","trial_index":208,"time_elapsed":3499691,"internal_node_id":"0.0-13.0-0.39","match_key":"l","participant_id":"06"},{"rt":null,"stimulus":"<p style=\"font-size: 48px;\">+</p>","key_press":null,"block":1,"trial_type":"html-keyboard-response","trial_index":209,"time_elapsed":3500686,"internal_node_id":"0.0-13.0-1.39","match_key":"l","participant_id":"06"},{"rt":470.7500000949949,"stimulus":"Images/gun_3.png","key_press":76,"stim_onset":1581390217479,"block":1,"match_type":"match","image_category":"gun","sound_category":"gun","audio_type":"sound","phase":"test","trial_type":"image-keyboard-response","trial_index":210,"time_elapsed":3501158,"internal_node_id":"0.0-13.0-2.39","match_key":"l","participant_id":"06","correct":true},{"rt":null,"stimulus":"Sounds/correct.wav","key_press":null,"block":1,"trial_type":"audio-keyboard-response","trial_index":211,"time_elapsed":3503166,"internal_node_id":"0.0-13.0-3.39","match_key":"l","participant_id":"06"},{"rt":null,"stimulus":"Sounds/frog_label.wav","key_press":null,"block":1,"trial_type":"audio-keyboard-response","trial_index":212,"time_elapsed":3504071,"internal_node_id":"0.0-13.0-0.40","match_key":"l","participant_id":"06"},{"rt":null,"stimulus":"<p style=\"font-size: 48px;\">+</p>","key_press":null,"block":1,"trial_type":"html-keyboard-response","trial_index":213,"time_elapsed":3505069,"internal_node_id":"0.0-13.0-1.40","match_key":"l","participant_id":"06"},{"rt":375.66499994136393,"stimulus":"Images/frog_2.png","key_press":76,"stim_onset":1581390221862,"block":1,"match_type":"match","image_category":"frog","sound_category":"frog","audio_type":"label","phase":"test","trial_type":"image-keyboard-response","trial_index":214,"time_elapsed":3505446,"internal_node_id":"0.0-13.0-2.40","match_key":"l","participant_id":"06","correct":true},{"rt":null,"stimulus":"Sounds/correct.wav","key_press":null,"block":1,"trial_type":"audio-keyboard-response","trial_index":215,"time_elapsed":3507457,"internal_node_id":"0.0-13.0-3.40","match_key":"l","participant_id":"06"},{"rt":null,"stimulus":"Sounds/motorcycle_sound.wav","key_press":null,"block":1,"trial_type":"audio-keyboard-response","trial_index":216,"time_elapsed":3508571,"internal_node_id":"0.0-13.0-0.41","match_key":"l","participant_id":"06"},{"rt":null,"stimulus":"<p style=\"font-size: 48px;\">+</p>","key_press":null,"block":1,"trial_type":"html-keyboard-response","trial_index":217,"time_elapsed":3509570,"internal_node_id":"0.0-13.0-1.41","match_key":"l","participant_id":"06"},{"rt":515.5599999707192,"stimulus":"Images/motorcycle_cartoon.png","key_press":76,"stim_onset":1581390226363,"block":1,"match_type":"match","image_category":"motorcycle","sound_category":"motorcycle","audio_type":"sound","phase":"test","trial_type":"image-keyboard-response","trial_index":218,"time_elapsed":3510086,"internal_node_id":"0.0-13.0-2.41","match_key":"l","participant_id":"06","correct":true},{"rt":null,"stimulus":"Sounds/correct.wav","key_press":null,"block":1,"trial_type":"audio-keyboard-response","trial_index":219,"time_elapsed":3512096,"internal_node_id":"0.0-13.0-3.41","match_key":"l","participant_id":"06"},{"rt":null,"stimulus":"Sounds/dog_sound.wav","key_press":null,"block":1,"trial_type":"audio-keyboard-response","trial_index":220,"time_elapsed":3512811,"internal_node_id":"0.0-13.0-0.42","match_key":"l","participant_id":"06"},{"rt":null,"stimulus":"<p style=\"font-size: 48px;\">+</p>","key_press":null,"block":1,"trial_type":"html-keyboard-response","trial_index":221,"time_elapsed":3513803,"internal_node_id":"0.0-13.0-1.42","match_key":"l","participant_id":"06"},{"rt":506.2049999833107,"stimulus":"Images/rooster_1.png","key_press":65,"stim_onset":1581390230596,"block":1,"match_type":"non-match","image_category":"rooster","sound_category":"dog","audio_type":"sound","phase":"test","trial_type":"image-keyboard-response","trial_index":222,"time_elapsed":3514310,"internal_node_id":"0.0-13.0-2.42","match_key":"l","participant_id":"06","correct":true},{"rt":null,"stimulus":"Sounds/correct.wav","key_press":null,"block":1,"trial_type":"audio-keyboard-response","trial_index":223,"time_elapsed":3516313,"internal_node_id":"0.0-13.0-3.42","match_key":"l","participant_id":"06"},{"rt":null,"stimulus":"Sounds/frog_sound.wav","key_press":null,"block":1,"trial_type":"audio-keyboard-response","trial_index":224,"time_elapsed":3517231,"internal_node_id":"0.0-13.0-0.43","match_key":"l","participant_id":"06"},{"rt":null,"stimulus":"<p style=\"font-size: 48px;\">+</p>","key_press":null,"block":1,"trial_type":"html-keyboard-response","trial_index":225,"time_elapsed":3518220,"internal_node_id":"0.0-13.0-1.43","match_key":"l","participant_id":"06"},{"rt":488.65000007208437,"stimulus":"Images/car_cartoon.png","key_press":65,"stim_onset":1581390235013,"block":1,"match_type":"non-match","image_category":"car","sound_category":"frog","audio_type":"sound","phase":"test","trial_type":"image-keyboard-response","trial_index":226,"time_elapsed":3518710,"internal_node_id":"0.0-13.0-2.43","match_key":"l","participant_id":"06","correct":true},{"rt":null,"stimulus":"Sounds/correct.wav","key_press":null,"block":1,"trial_type":"audio-keyboard-response","trial_index":227,"time_elapsed":3520716,"internal_node_id":"0.0-13.0-3.43","match_key":"l","participant_id":"06"},{"rt":null,"stimulus":"Sounds/gun_sound.wav","key_press":null,"block":1,"trial_type":"audio-keyboard-response","trial_index":228,"time_elapsed":3521291,"internal_node_id":"0.0-13.0-0.44","match_key":"l","participant_id":"06"},{"rt":null,"stimulus":"<p style=\"font-size: 48px;\">+</p>","key_press":null,"block":1,"trial_type":"html-keyboard-response","trial_index":229,"time_elapsed":3522287,"internal_node_id":"0.0-13.0-1.44","match_key":"l","participant_id":"06"},{"rt":678.6950000096112,"stimulus":"Images/gun_cartoon.png","key_press":76,"stim_onset":1581390239080,"block":1,"match_type":"match","image_category":"gun","sound_category":"gun","audio_type":"sound","phase":"test","trial_type":"image-keyboard-response","trial_index":230,"time_elapsed":3522966,"internal_node_id":"0.0-13.0-2.44","match_key":"l","participant_id":"06","correct":true},{"rt":null,"stimulus":"Sounds/correct.wav","key_press":null,"block":1,"trial_type":"audio-keyboard-response","trial_index":231,"time_elapsed":3524969,"internal_node_id":"0.0-13.0-3.44","match_key":"l","participant_id":"06"},{"rt":null,"stimulus":"Sounds/train_sound.wav","key_press":null,"block":1,"trial_type":"audio-keyboard-response","trial_index":232,"time_elapsed":3526271,"internal_node_id":"0.0-13.0-0.45","match_key":"l","participant_id":"06"},{"rt":null,"stimulus":"<p style=\"font-size: 48px;\">+</p>","key_press":null,"block":1,"trial_type":"html-keyboard-response","trial_index":233,"time_elapsed":3527270,"internal_node_id":"0.0-13.0-1.45","match_key":"l","participant_id":"06"},{"rt":558.4599999710917,"stimulus":"Images/train_1.png","key_press":76,"stim_onset":1581390244063,"block":1,"match_type":"match","image_category":"train","sound_category":"train","audio_type":"sound","phase":"test","trial_type":"image-keyboard-response","trial_index":234,"time_elapsed":3527830,"internal_node_id":"0.0-13.0-2.45","match_key":"l","participant_id":"06","correct":true},{"rt":null,"stimulus":"Sounds/correct.wav","key_press":null,"block":1,"trial_type":"audio-keyboard-response","trial_index":235,"time_elapsed":3529844,"internal_node_id":"0.0-13.0-3.45","match_key":"l","participant_id":"06"},{"rt":null,"stimulus":"Sounds/cat_sound.wav","key_press":null,"block":1,"trial_type":"audio-keyboard-response","trial_index":236,"time_elapsed":3530691,"internal_node_id":"0.0-13.0-0.46","match_key":"l","participant_id":"06"},{"rt":null,"stimulus":"<p style=\"font-size: 48px;\">+</p>","key_press":null,"block":1,"trial_type":"html-keyboard-response","trial_index":237,"time_elapsed":3531687,"internal_node_id":"0.0-13.0-1.46","match_key":"l","participant_id":"06"},{"rt":398.5149998916313,"stimulus":"Images/cat_orig.png","key_press":76,"stim_onset":1581390248480,"block":1,"match_type":"match","image_category":"cat","sound_category":"cat","audio_type":"sound","phase":"test","trial_type":"image-keyboard-response","trial_index":238,"time_elapsed":3532086,"internal_node_id":"0.0-13.0-2.46","match_key":"l","participant_id":"06","correct":true},{"rt":null,"stimulus":"Sounds/correct.wav","key_press":null,"block":1,"trial_type":"audio-keyboard-response","trial_index":239,"time_elapsed":3534092,"internal_node_id":"0.0-13.0-3.46","match_key":"l","participant_id":"06"},{"rt":null,"stimulus":"Sounds/car_label.wav","key_press":null,"block":1,"trial_type":"audio-keyboard-response","trial_index":240,"time_elapsed":3535171,"internal_node_id":"0.0-13.0-0.47","match_key":"l","participant_id":"06"},{"rt":null,"stimulus":"<p style=\"font-size: 48px;\">+</p>","key_press":null,"block":1,"trial_type":"html-keyboard-response","trial_index":241,"time_elapsed":3536170,"internal_node_id":"0.0-13.0-1.47","match_key":"l","participant_id":"06"},{"rt":443.29999992623925,"stimulus":"Images/car_2.png","key_press":76,"stim_onset":1581390252963,"block":1,"match_type":"match","image_category":"car","sound_category":"car","audio_type":"label","phase":"test","trial_type":"image-keyboard-response","trial_index":242,"time_elapsed":3536614,"internal_node_id":"0.0-13.0-2.47","match_key":"l","participant_id":"06","correct":true},{"rt":null,"stimulus":"Sounds/correct.wav","key_press":null,"block":1,"trial_type":"audio-keyboard-response","trial_index":243,"time_elapsed":3538619,"internal_node_id":"0.0-13.0-3.47","match_key":"l","participant_id":"06"},{"rt":null,"stimulus":"Sounds/rooster_sound.wav","key_press":null,"block":1,"trial_type":"audio-keyboard-response","trial_index":244,"time_elapsed":3539311,"internal_node_id":"0.0-13.0-0.48","match_key":"l","participant_id":"06"},{"rt":null,"stimulus":"<p style=\"font-size: 48px;\">+</p>","key_press":null,"block":1,"trial_type":"html-keyboard-response","trial_index":245,"time_elapsed":3540304,"internal_node_id":"0.0-13.0-1.48","match_key":"l","participant_id":"06"},{"rt":517.3699998995289,"stimulus":"Images/gun_1.png","key_press":65,"stim_onset":1581390257097,"block":1,"match_type":"non-match","image_category":"gun","sound_category":"rooster","audio_type":"sound","phase":"test","trial_type":"image-keyboard-response","trial_index":246,"time_elapsed":3540822,"internal_node_id":"0.0-13.0-2.48","match_key":"l","participant_id":"06","correct":true},{"rt":null,"stimulus":"Sounds/correct.wav","key_press":null,"block":1,"trial_type":"audio-keyboard-response","trial_index":247,"time_elapsed":3542830,"internal_node_id":"0.0-13.0-3.48","match_key":"l","participant_id":"06"},{"rt":null,"stimulus":"Sounds/whistle_sound.wav","key_press":null,"block":1,"trial_type":"audio-keyboard-response","trial_index":248,"time_elapsed":3543531,"internal_node_id":"0.0-13.0-0.49","match_key":"l","participant_id":"06"},{"rt":null,"stimulus":"<p style=\"font-size: 48px;\">+</p>","key_press":null,"block":1,"trial_type":"html-keyboard-response","trial_index":249,"time_elapsed":3544520,"internal_node_id":"0.0-13.0-1.49","match_key":"l","participant_id":"06"},{"rt":861.1299999756739,"stimulus":"Images/train_1.png","key_press":65,"stim_onset":1581390261313,"block":1,"match_type":"non-match","image_category":"train","sound_category":"whistle","audio_type":"sound","phase":"test","trial_type":"image-keyboard-response","trial_index":250,"time_elapsed":3545382,"internal_node_id":"0.0-13.0-2.49","match_key":"l","participant_id":"06","correct":true},{"rt":null,"stimulus":"Sounds/correct.wav","key_press":null,"block":1,"trial_type":"audio-keyboard-response","trial_index":251,"time_elapsed":3547388,"internal_node_id":"0.0-13.0-3.49","match_key":"l","participant_id":"06"},{"rt":null,"stimulus":"Sounds/train_label.wav","key_press":null,"block":1,"trial_type":"audio-keyboard-response","trial_index":252,"time_elapsed":3548671,"internal_node_id":"0.0-13.0-0.50","match_key":"l","participant_id":"06"},{"rt":null,"stimulus":"<p style=\"font-size: 48px;\">+</p>","key_press":null,"block":1,"trial_type":"html-keyboard-response","trial_index":253,"time_elapsed":3549670,"internal_node_id":"0.0-13.0-1.50","match_key":"l","participant_id":"06"},{"rt":447.09999999031425,"stimulus":"Images/train_orig.png","key_press":76,"stim_onset":1581390266463,"block":1,"match_type":"match","image_category":"train","sound_category":"train","audio_type":"label","phase":"test","trial_type":"image-keyboard-response","trial_index":254,"time_elapsed":3550118,"internal_node_id":"0.0-13.0-2.50","match_key":"l","participant_id":"06","correct":true},{"rt":null,"stimulus":"Sounds/correct.wav","key_press":null,"block":1,"trial_type":"audio-keyboard-response","trial_index":255,"time_elapsed":3552135,"internal_node_id":"0.0-13.0-3.50","match_key":"l","participant_id":"06"},{"rt":null,"stimulus":"Sounds/train_label.wav","key_press":null,"block":1,"trial_type":"audio-keyboard-response","trial_index":256,"time_elapsed":3553391,"internal_node_id":"0.0-13.0-0.51","match_key":"l","participant_id":"06"},{"rt":null,"stimulus":"<p style=\"font-size: 48px;\">+</p>","key_press":null,"block":1,"trial_type":"html-keyboard-response","trial_index":257,"time_elapsed":3554387,"internal_node_id":"0.0-13.0-1.51","match_key":"l","participant_id":"06"},{"rt":594.1650000168011,"stimulus":"Images/frog_2.png","key_press":65,"stim_onset":1581390271180,"block":1,"match_type":"non-match","image_category":"frog","sound_category":"train","audio_type":"label","phase":"test","trial_type":"image-keyboard-response","trial_index":258,"time_elapsed":3554982,"internal_node_id":"0.0-13.0-2.51","match_key":"l","participant_id":"06","correct":true},{"rt":null,"stimulus":"Sounds/correct.wav","key_press":null,"block":1,"trial_type":"audio-keyboard-response","trial_index":259,"time_elapsed":3556992,"internal_node_id":"0.0-13.0-3.51","match_key":"l","participant_id":"06"},{"rt":null,"stimulus":"Sounds/frog_sound.wav","key_press":null,"block":1,"trial_type":"audio-keyboard-response","trial_index":260,"time_elapsed":3557911,"internal_node_id":"0.0-13.0-0.52","match_key":"l","participant_id":"06"},{"rt":null,"stimulus":"<p style=\"font-size: 48px;\">+</p>","key_press":null,"block":1,"trial_type":"html-keyboard-response","trial_index":261,"time_elapsed":3558904,"internal_node_id":"0.0-13.0-1.52","match_key":"l","participant_id":"06"},{"rt":589.475000044331,"stimulus":"Images/motorcycle_1.png","key_press":65,"stim_onset":1581390275697,"block":1,"match_type":"non-match","image_category":"motorcycle","sound_category":"frog","audio_type":"sound","phase":"test","trial_type":"image-keyboard-response","trial_index":262,"time_elapsed":3559494,"internal_node_id":"0.0-13.0-2.52","match_key":"l","participant_id":"06","correct":true},{"rt":null,"stimulus":"Sounds/correct.wav","key_press":null,"block":1,"trial_type":"audio-keyboard-response","trial_index":263,"time_elapsed":3561508,"internal_node_id":"0.0-13.0-3.52","match_key":"l","participant_id":"06"},{"rt":null,"stimulus":"Sounds/rooster_label.wav","key_press":null,"block":1,"trial_type":"audio-keyboard-response","trial_index":264,"time_elapsed":3562211,"internal_node_id":"0.0-13.0-0.53","match_key":"l","participant_id":"06"},{"rt":null,"stimulus":"<p style=\"font-size: 48px;\">+</p>","key_press":null,"block":1,"trial_type":"html-keyboard-response","trial_index":265,"time_elapsed":3563204,"internal_node_id":"0.0-13.0-1.53","match_key":"l","participant_id":"06"},{"rt":497.46500002220273,"stimulus":"Images/dog_1.png","key_press":65,"stim_onset":1581390279997,"block":1,"match_type":"non-match","image_category":"dog","sound_category":"rooster","audio_type":"label","phase":"test","trial_type":"image-keyboard-response","trial_index":266,"time_elapsed":3563702,"internal_node_id":"0.0-13.0-2.53","match_key":"l","participant_id":"06","correct":true},{"rt":null,"stimulus":"Sounds/correct.wav","key_press":null,"block":1,"trial_type":"audio-keyboard-response","trial_index":267,"time_elapsed":3565714,"internal_node_id":"0.0-13.0-3.53","match_key":"l","participant_id":"06"},{"rt":null,"stimulus":"Sounds/cow_sound.wav","key_press":null,"block":1,"trial_type":"audio-keyboard-response","trial_index":268,"time_elapsed":3566731,"internal_node_id":"0.0-13.0-0.54","match_key":"l","participant_id":"06"},{"rt":null,"stimulus":"<p style=\"font-size: 48px;\">+</p>","key_press":null,"block":1,"trial_type":"html-keyboard-response","trial_index":269,"time_elapsed":3567738,"internal_node_id":"0.0-13.0-1.54","match_key":"l","participant_id":"06"},{"rt":652.2200000472367,"stimulus":"Images/cow_2.png","key_press":76,"stim_onset":1581390284531,"block":1,"match_type":"match","image_category":"cow","sound_category":"cow","audio_type":"sound","phase":"test","trial_type":"image-keyboard-response","trial_index":270,"time_elapsed":3568391,"internal_node_id":"0.0-13.0-2.54","match_key":"l","participant_id":"06","correct":true},{"rt":null,"stimulus":"Sounds/correct.wav","key_press":null,"block":1,"trial_type":"audio-keyboard-response","trial_index":271,"time_elapsed":3570404,"internal_node_id":"0.0-13.0-3.54","match_key":"l","participant_id":"06"},{"rt":null,"stimulus":"Sounds/cat_label.wav","key_press":null,"block":1,"trial_type":"audio-keyboard-response","trial_index":272,"time_elapsed":3571252,"internal_node_id":"0.0-13.0-0.55","match_key":"l","participant_id":"06"},{"rt":null,"stimulus":"<p style=\"font-size: 48px;\">+</p>","key_press":null,"block":1,"trial_type":"html-keyboard-response","trial_index":273,"time_elapsed":3572254,"internal_node_id":"0.0-13.0-1.55","match_key":"l","participant_id":"06"},{"rt":535.4600000428036,"stimulus":"Images/dog_cartoon.png","key_press":65,"stim_onset":1581390289048,"block":1,"match_type":"non-match","image_category":"dog","sound_category":"cat","audio_type":"label","phase":"test","trial_type":"image-keyboard-response","trial_index":274,"time_elapsed":3572791,"internal_node_id":"0.0-13.0-2.55","match_key":"l","participant_id":"06","correct":true},{"rt":null,"stimulus":"Sounds/correct.wav","key_press":null,"block":1,"trial_type":"audio-keyboard-response","trial_index":275,"time_elapsed":3574797,"internal_node_id":"0.0-13.0-3.55","match_key":"l","participant_id":"06"},{"rt":null,"stimulus":"Sounds/cow_sound.wav","key_press":null,"block":1,"trial_type":"audio-keyboard-response","trial_index":276,"time_elapsed":3575792,"internal_node_id":"0.0-13.0-0.56","match_key":"l","participant_id":"06"},{"rt":null,"stimulus":"<p style=\"font-size: 48px;\">+</p>","key_press":null,"block":1,"trial_type":"html-keyboard-response","trial_index":277,"time_elapsed":3576788,"internal_node_id":"0.0-13.0-1.56","match_key":"l","participant_id":"06"},{"rt":498.410000000149,"stimulus":"Images/cow_3.png","key_press":65,"stim_onset":1581390293581,"block":1,"match_type":"match","image_category":"cow","sound_category":"cow","audio_type":"sound","phase":"test","trial_type":"image-keyboard-response","trial_index":278,"time_elapsed":3577287,"internal_node_id":"0.0-13.0-2.56","match_key":"l","participant_id":"06","correct":false},{"rt":null,"stimulus":"Sounds/incorrect.wav","key_press":null,"block":1,"trial_type":"audio-keyboard-response","trial_index":279,"time_elapsed":3579293,"internal_node_id":"0.0-13.0-3.56","match_key":"l","participant_id":"06"},{"rt":null,"stimulus":"Sounds/cat_sound.wav","key_press":null,"block":1,"trial_type":"audio-keyboard-response","trial_index":280,"time_elapsed":3580132,"internal_node_id":"0.0-13.0-0.57","match_key":"l","participant_id":"06"},{"rt":null,"stimulus":"<p style=\"font-size: 48px;\">+</p>","key_press":null,"block":1,"trial_type":"html-keyboard-response","trial_index":281,"time_elapsed":3581121,"internal_node_id":"0.0-13.0-1.57","match_key":"l","participant_id":"06"},{"rt":532.6849999837577,"stimulus":"Images/cat_3.png","key_press":76,"stim_onset":1581390297914,"block":1,"match_type":"match","image_category":"cat","sound_category":"cat","audio_type":"sound","phase":"test","trial_type":"image-keyboard-response","trial_index":282,"time_elapsed":3581655,"internal_node_id":"0.0-13.0-2.57","match_key":"l","participant_id":"06","correct":true},{"rt":null,"stimulus":"Sounds/correct.wav","key_press":null,"block":1,"trial_type":"audio-keyboard-response","trial_index":283,"time_elapsed":3583664,"internal_node_id":"0.0-13.0-3.57","match_key":"l","participant_id":"06"},{"rt":null,"stimulus":"Sounds/cat_label.wav","key_press":null,"block":1,"trial_type":"audio-keyboard-response","trial_index":284,"time_elapsed":3584472,"internal_node_id":"0.0-13.0-0.58","match_key":"l","participant_id":"06"},{"rt":null,"stimulus":"<p style=\"font-size: 48px;\">+</p>","key_press":null,"block":1,"trial_type":"html-keyboard-response","trial_index":285,"time_elapsed":3585471,"internal_node_id":"0.0-13.0-1.58","match_key":"l","participant_id":"06"},{"rt":502.3700000019744,"stimulus":"Images/cat_2.png","key_press":76,"stim_onset":1581390302264,"block":1,"match_type":"match","image_category":"cat","sound_category":"cat","audio_type":"label","phase":"test","trial_type":"image-keyboard-response","trial_index":286,"time_elapsed":3585975,"internal_node_id":"0.0-13.0-2.58","match_key":"l","participant_id":"06","correct":true},{"rt":null,"stimulus":"Sounds/correct.wav","key_press":null,"block":1,"trial_type":"audio-keyboard-response","trial_index":287,"time_elapsed":3587981,"internal_node_id":"0.0-13.0-3.58","match_key":"l","participant_id":"06"},{"rt":null,"stimulus":"Sounds/dog_sound.wav","key_press":null,"block":1,"trial_type":"audio-keyboard-response","trial_index":288,"time_elapsed":3588692,"internal_node_id":"0.0-13.0-0.59","match_key":"l","participant_id":"06"},{"rt":null,"stimulus":"<p style=\"font-size: 48px;\">+</p>","key_press":null,"block":1,"trial_type":"html-keyboard-response","trial_index":289,"time_elapsed":3589688,"internal_node_id":"0.0-13.0-1.59","match_key":"l","participant_id":"06"},{"rt":894.1049999557436,"stimulus":"Images/cow_orig.png","key_press":65,"stim_onset":1581390306481,"block":1,"match_type":"non-match","image_category":"cow","sound_category":"dog","audio_type":"sound","phase":"test","trial_type":"image-keyboard-response","trial_index":290,"time_elapsed":3590583,"internal_node_id":"0.0-13.0-2.59","match_key":"l","participant_id":"06","correct":true},{"rt":null,"stimulus":"Sounds/correct.wav","key_press":null,"block":1,"trial_type":"audio-keyboard-response","trial_index":291,"time_elapsed":3592587,"internal_node_id":"0.0-13.0-3.59","match_key":"l","participant_id":"06"},{"rt":null,"stimulus":"Sounds/cat_label.wav","key_press":null,"block":1,"trial_type":"audio-keyboard-response","trial_index":292,"time_elapsed":3593392,"internal_node_id":"0.0-13.0-0.60","match_key":"l","participant_id":"06"},{"rt":null,"stimulus":"<p style=\"font-size: 48px;\">+</p>","key_press":null,"block":1,"trial_type":"html-keyboard-response","trial_index":293,"time_elapsed":3594388,"internal_node_id":"0.0-13.0-1.60","match_key":"l","participant_id":"06"},{"rt":721.919999923557,"stimulus":"Images/gun_cartoon.png","key_press":65,"stim_onset":1581390311181,"block":1,"match_type":"non-match","image_category":"gun","sound_category":"cat","audio_type":"label","phase":"test","trial_type":"image-keyboard-response","trial_index":294,"time_elapsed":3595111,"internal_node_id":"0.0-13.0-2.60","match_key":"l","participant_id":"06","correct":true},{"rt":null,"stimulus":"Sounds/correct.wav","key_press":null,"block":1,"trial_type":"audio-keyboard-response","trial_index":295,"time_elapsed":3597115,"internal_node_id":"0.0-13.0-3.60","match_key":"l","participant_id":"06"},{"rt":null,"stimulus":"Sounds/dog_label.wav","key_press":null,"block":1,"trial_type":"audio-keyboard-response","trial_index":296,"time_elapsed":3597772,"internal_node_id":"0.0-13.0-0.61","match_key":"l","participant_id":"06"},{"rt":null,"stimulus":"<p style=\"font-size: 48px;\">+</p>","key_press":null,"block":1,"trial_type":"html-keyboard-response","trial_index":297,"time_elapsed":3598771,"internal_node_id":"0.0-13.0-1.61","match_key":"l","participant_id":"06"},{"rt":482.52000007778406,"stimulus":"Images/dog_3.png","key_press":76,"stim_onset":1581390315564,"block":1,"match_type":"match","image_category":"dog","sound_category":"dog","audio_type":"label","phase":"test","trial_type":"image-keyboard-response","trial_index":298,"time_elapsed":3599255,"internal_node_id":"0.0-13.0-2.61","match_key":"l","participant_id":"06","correct":true},{"rt":null,"stimulus":"Sounds/correct.wav","key_press":null,"block":1,"trial_type":"audio-keyboard-response","trial_index":299,"time_elapsed":3601267,"internal_node_id":"0.0-13.0-3.61","match_key":"l","participant_id":"06"},{"rt":null,"stimulus":"Sounds/frog_sound.wav","key_press":null,"block":1,"trial_type":"audio-keyboard-response","trial_index":300,"time_elapsed":3602172,"internal_node_id":"0.0-13.0-0.62","match_key":"l","participant_id":"06"},{"rt":null,"stimulus":"<p style=\"font-size: 48px;\">+</p>","key_press":null,"block":1,"trial_type":"html-keyboard-response","trial_index":301,"time_elapsed":3603171,"internal_node_id":"0.0-13.0-1.62","match_key":"l","participant_id":"06"},{"rt":546.695000026375,"stimulus":"Images/gun_2.png","key_press":65,"stim_onset":1581390319964,"block":1,"match_type":"non-match","image_category":"gun","sound_category":"frog","audio_type":"sound","phase":"test","trial_type":"image-keyboard-response","trial_index":302,"time_elapsed":3603719,"internal_node_id":"0.0-13.0-2.62","match_key":"l","participant_id":"06","correct":true},{"rt":null,"stimulus":"Sounds/correct.wav","key_press":null,"block":1,"trial_type":"audio-keyboard-response","trial_index":303,"time_elapsed":3605731,"internal_node_id":"0.0-13.0-3.62","match_key":"l","participant_id":"06"},{"rt":null,"stimulus":"Sounds/rooster_label.wav","key_press":null,"block":1,"trial_type":"audio-keyboard-response","trial_index":304,"time_elapsed":3606432,"internal_node_id":"0.0-13.0-0.63","match_key":"l","participant_id":"06"},{"rt":null,"stimulus":"<p style=\"font-size: 48px;\">+</p>","key_press":null,"block":1,"trial_type":"html-keyboard-response","trial_index":305,"time_elapsed":3607421,"internal_node_id":"0.0-13.0-1.63","match_key":"l","participant_id":"06"},{"rt":936.8299999041483,"stimulus":"Images/train_2.png","key_press":65,"stim_onset":1581390324214,"block":1,"match_type":"non-match","image_category":"train","sound_category":"rooster","audio_type":"label","phase":"test","trial_type":"image-keyboard-response","trial_index":306,"time_elapsed":3608359,"internal_node_id":"0.0-13.0-2.63","match_key":"l","participant_id":"06","correct":true},{"rt":null,"stimulus":"Sounds/correct.wav","key_press":null,"block":1,"trial_type":"audio-keyboard-response","trial_index":307,"time_elapsed":3610367,"internal_node_id":"0.0-13.0-3.63","match_key":"l","participant_id":"06"},{"rt":null,"stimulus":"Sounds/motorcycle_sound.wav","key_press":null,"block":1,"trial_type":"audio-keyboard-response","trial_index":308,"time_elapsed":3611492,"internal_node_id":"0.0-13.0-0.64","match_key":"l","participant_id":"06"},{"rt":null,"stimulus":"<p style=\"font-size: 48px;\">+</p>","key_press":null,"block":1,"trial_type":"html-keyboard-response","trial_index":309,"time_elapsed":3612488,"internal_node_id":"0.0-13.0-1.64","match_key":"l","participant_id":"06"},{"rt":525.6949999602512,"stimulus":"Images/train_cartoon.png","key_press":65,"stim_onset":1581390329281,"block":1,"match_type":"non-match","image_category":"train","sound_category":"motorcycle","audio_type":"sound","phase":"test","trial_type":"image-keyboard-response","trial_index":310,"time_elapsed":3613015,"internal_node_id":"0.0-13.0-2.64","match_key":"l","participant_id":"06","correct":true},{"rt":null,"stimulus":"Sounds/correct.wav","key_press":null,"block":1,"trial_type":"audio-keyboard-response","trial_index":311,"time_elapsed":3615032,"internal_node_id":"0.0-13.0-3.64","match_key":"l","participant_id":"06"},{"rt":null,"stimulus":"Sounds/frog_label.wav","key_press":null,"block":1,"trial_type":"audio-keyboard-response","trial_index":312,"time_elapsed":3615932,"internal_node_id":"0.0-13.0-0.65","match_key":"l","participant_id":"06"},{"rt":null,"stimulus":"<p style=\"font-size: 48px;\">+</p>","key_press":null,"block":1,"trial_type":"html-keyboard-response","trial_index":313,"time_elapsed":3616922,"internal_node_id":"0.0-13.0-1.65","match_key":"l","participant_id":"06"},{"rt":412.4699999811128,"stimulus":"Images/frog_cartoon.png","key_press":76,"stim_onset":1581390333715,"block":1,"match_type":"match","image_category":"frog","sound_category":"frog","audio_type":"label","phase":"test","trial_type":"image-keyboard-response","trial_index":314,"time_elapsed":3617335,"internal_node_id":"0.0-13.0-2.65","match_key":"l","participant_id":"06","correct":true},{"rt":null,"stimulus":"Sounds/correct.wav","key_press":null,"block":1,"trial_type":"audio-keyboard-response","trial_index":315,"time_elapsed":3619341,"internal_node_id":"0.0-13.0-3.65","match_key":"l","participant_id":"06"},{"rt":null,"stimulus":"Sounds/car_label.wav","key_press":null,"block":1,"trial_type":"audio-keyboard-response","trial_index":316,"time_elapsed":3620412,"internal_node_id":"0.0-13.0-0.66","match_key":"l","participant_id":"06"},{"rt":null,"stimulus":"<p style=\"font-size: 48px;\">+</p>","key_press":null,"block":1,"trial_type":"html-keyboard-response","trial_index":317,"time_elapsed":3621405,"internal_node_id":"0.0-13.0-1.66","match_key":"l","participant_id":"06"},{"rt":392.83999998588115,"stimulus":"Images/car_1.png","key_press":76,"stim_onset":1581390338198,"block":1,"match_type":"match","image_category":"car","sound_category":"car","audio_type":"label","phase":"test","trial_type":"image-keyboard-response","trial_index":318,"time_elapsed":3621799,"internal_node_id":"0.0-13.0-2.66","match_key":"l","participant_id":"06","correct":true},{"rt":null,"stimulus":"Sounds/correct.wav","key_press":null,"block":1,"trial_type":"audio-keyboard-response","trial_index":319,"time_elapsed":3623809,"internal_node_id":"0.0-13.0-3.66","match_key":"l","participant_id":"06"},{"rt":null,"stimulus":"Sounds/rooster_label.wav","key_press":null,"block":1,"trial_type":"audio-keyboard-response","trial_index":320,"time_elapsed":3624492,"internal_node_id":"0.0-13.0-0.67","match_key":"l","participant_id":"06"},{"rt":null,"stimulus":"<p style=\"font-size: 48px;\">+</p>","key_press":null,"block":1,"trial_type":"html-keyboard-response","trial_index":321,"time_elapsed":3625488,"internal_node_id":"0.0-13.0-1.67","match_key":"l","participant_id":"06"},{"rt":629.4449999695644,"stimulus":"Images/rooster_2.png","key_press":76,"stim_onset":1581390342281,"block":1,"match_type":"match","image_category":"rooster","sound_category":"rooster","audio_type":"label","phase":"test","trial_type":"image-keyboard-response","trial_index":322,"time_elapsed":3626119,"internal_node_id":"0.0-13.0-2.67","match_key":"l","participant_id":"06","correct":true},{"rt":null,"stimulus":"Sounds/correct.wav","key_press":null,"block":1,"trial_type":"audio-keyboard-response","trial_index":323,"time_elapsed":3628127,"internal_node_id":"0.0-13.0-3.67","match_key":"l","participant_id":"06"},{"rt":null,"stimulus":"Sounds/car_sound.wav","key_press":null,"block":1,"trial_type":"audio-keyboard-response","trial_index":324,"time_elapsed":3629212,"internal_node_id":"0.0-13.0-0.68","match_key":"l","participant_id":"06"},{"rt":null,"stimulus":"<p style=\"font-size: 48px;\">+</p>","key_press":null,"block":1,"trial_type":"html-keyboard-response","trial_index":325,"time_elapsed":3630205,"internal_node_id":"0.0-13.0-1.68","match_key":"l","participant_id":"06"},{"rt":440.92000008095056,"stimulus":"Images/cat_cartoon.png","key_press":65,"stim_onset":1581390346998,"block":1,"match_type":"non-match","image_category":"cat","sound_category":"car","audio_type":"sound","phase":"test","trial_type":"image-keyboard-response","trial_index":326,"time_elapsed":3630647,"internal_node_id":"0.0-13.0-2.68","match_key":"l","participant_id":"06","correct":true},{"rt":null,"stimulus":"Sounds/correct.wav","key_press":null,"block":1,"trial_type":"audio-keyboard-response","trial_index":327,"time_elapsed":3632655,"internal_node_id":"0.0-13.0-3.68","match_key":"l","participant_id":"06"},{"rt":null,"stimulus":"Sounds/gun_sound.wav","key_press":null,"block":1,"trial_type":"audio-keyboard-response","trial_index":328,"time_elapsed":3633232,"internal_node_id":"0.0-13.0-0.69","match_key":"l","participant_id":"06"},{"rt":null,"stimulus":"<p style=\"font-size: 48px;\">+</p>","key_press":null,"block":1,"trial_type":"html-keyboard-response","trial_index":329,"time_elapsed":3634222,"internal_node_id":"0.0-13.0-1.69","match_key":"l","participant_id":"06"},{"rt":392.0899999793619,"stimulus":"Images/gun_orig.png","key_press":76,"stim_onset":1581390351015,"block":1,"match_type":"match","image_category":"gun","sound_category":"gun","audio_type":"sound","phase":"test","trial_type":"image-keyboard-response","trial_index":330,"time_elapsed":3634615,"internal_node_id":"0.0-13.0-2.69","match_key":"l","participant_id":"06","correct":true},{"rt":null,"stimulus":"Sounds/correct.wav","key_press":null,"block":1,"trial_type":"audio-keyboard-response","trial_index":331,"time_elapsed":3636625,"internal_node_id":"0.0-13.0-3.69","match_key":"l","participant_id":"06"},{"rt":null,"stimulus":"Sounds/cow_label.wav","key_press":null,"block":1,"trial_type":"audio-keyboard-response","trial_index":332,"time_elapsed":3637632,"internal_node_id":"0.0-13.0-0.70","match_key":"l","participant_id":"06"},{"rt":null,"stimulus":"<p style=\"font-size: 48px;\">+</p>","key_press":null,"block":1,"trial_type":"html-keyboard-response","trial_index":333,"time_elapsed":3638622,"internal_node_id":"0.0-13.0-1.70","match_key":"l","participant_id":"06"},{"rt":407.9599999822676,"stimulus":"Images/cow_cartoon.png","key_press":76,"stim_onset":1581390355415,"block":1,"match_type":"match","image_category":"cow","sound_category":"cow","audio_type":"label","phase":"test","trial_type":"image-keyboard-response","trial_index":334,"time_elapsed":3639031,"internal_node_id":"0.0-13.0-2.70","match_key":"l","participant_id":"06","correct":true},{"rt":null,"stimulus":"Sounds/correct.wav","key_press":null,"block":1,"trial_type":"audio-keyboard-response","trial_index":335,"time_elapsed":3641041,"internal_node_id":"0.0-13.0-3.70","match_key":"l","participant_id":"06"},{"rt":null,"stimulus":"Sounds/whistle_label.wav","key_press":null,"block":1,"trial_type":"audio-keyboard-response","trial_index":336,"time_elapsed":3641732,"internal_node_id":"0.0-13.0-0.71","match_key":"l","participant_id":"06"},{"rt":null,"stimulus":"<p style=\"font-size: 48px;\">+</p>","key_press":null,"block":1,"trial_type":"html-keyboard-response","trial_index":337,"time_elapsed":3642722,"internal_node_id":"0.0-13.0-1.71","match_key":"l","participant_id":"06"},{"rt":484.03499997220933,"stimulus":"Images/dog_3.png","key_press":65,"stim_onset":1581390359515,"block":1,"match_type":"non-match","image_category":"dog","sound_category":"whistle","audio_type":"label","phase":"test","trial_type":"image-keyboard-response","trial_index":338,"time_elapsed":3643207,"internal_node_id":"0.0-13.0-2.71","match_key":"l","participant_id":"06","correct":true},{"rt":null,"stimulus":"Sounds/correct.wav","key_press":null,"block":1,"trial_type":"audio-keyboard-response","trial_index":339,"time_elapsed":3645217,"internal_node_id":"0.0-13.0-3.71","match_key":"l","participant_id":"06"},{"rt":null,"stimulus":"Sounds/rooster_sound.wav","key_press":null,"block":1,"trial_type":"audio-keyboard-response","trial_index":340,"time_elapsed":3645912,"internal_node_id":"0.0-13.0-0.72","match_key":"l","participant_id":"06"},{"rt":null,"stimulus":"<p style=\"font-size: 48px;\">+</p>","key_press":null,"block":1,"trial_type":"html-keyboard-response","trial_index":341,"time_elapsed":3646906,"internal_node_id":"0.0-13.0-1.72","match_key":"l","participant_id":"06"},{"rt":492.5150000490248,"stimulus":"Images/rooster_1.png","key_press":76,"stim_onset":1581390363699,"block":1,"match_type":"match","image_category":"rooster","sound_category":"rooster","audio_type":"sound","phase":"test","trial_type":"image-keyboard-response","trial_index":342,"time_elapsed":3647399,"internal_node_id":"0.0-13.0-2.72","match_key":"l","participant_id":"06","correct":true},{"rt":null,"stimulus":"Sounds/correct.wav","key_press":null,"block":1,"trial_type":"audio-keyboard-response","trial_index":343,"time_elapsed":3649416,"internal_node_id":"0.0-13.0-3.72","match_key":"l","participant_id":"06"},{"rt":null,"stimulus":"Sounds/gun_label.wav","key_press":null,"block":1,"trial_type":"audio-keyboard-response","trial_index":344,"time_elapsed":3649992,"internal_node_id":"0.0-13.0-0.73","match_key":"l","participant_id":"06"},{"rt":null,"stimulus":"<p style=\"font-size: 48px;\">+</p>","key_press":null,"block":1,"trial_type":"html-keyboard-response","trial_index":345,"time_elapsed":3650989,"internal_node_id":"0.0-13.0-1.73","match_key":"l","participant_id":"06"},{"rt":521.1200000485405,"stimulus":"Images/gun_1.png","key_press":76,"stim_onset":1581390367782,"block":1,"match_type":"match","image_category":"gun","sound_category":"gun","audio_type":"label","phase":"test","trial_type":"image-keyboard-response","trial_index":346,"time_elapsed":3651511,"internal_node_id":"0.0-13.0-2.73","match_key":"l","participant_id":"06","correct":true},{"rt":null,"stimulus":"Sounds/correct.wav","key_press":null,"block":1,"trial_type":"audio-keyboard-response","trial_index":347,"time_elapsed":3653515,"internal_node_id":"0.0-13.0-3.73","match_key":"l","participant_id":"06"},{"rt":null,"stimulus":"Sounds/car_sound.wav","key_press":null,"block":1,"trial_type":"audio-keyboard-response","trial_index":348,"time_elapsed":3654592,"internal_node_id":"0.0-13.0-0.74","match_key":"l","participant_id":"06"},{"rt":null,"stimulus":"<p style=\"font-size: 48px;\">+</p>","key_press":null,"block":1,"trial_type":"html-keyboard-response","trial_index":349,"time_elapsed":3655589,"internal_node_id":"0.0-13.0-1.74","match_key":"l","participant_id":"06"},{"rt":656.5849999897182,"stimulus":"Images/car_orig.png","key_press":76,"stim_onset":1581390372382,"block":1,"match_type":"match","image_category":"car","sound_category":"car","audio_type":"sound","phase":"test","trial_type":"image-keyboard-response","trial_index":350,"time_elapsed":3656247,"internal_node_id":"0.0-13.0-2.74","match_key":"l","participant_id":"06","correct":true},{"rt":null,"stimulus":"Sounds/correct.wav","key_press":null,"block":1,"trial_type":"audio-keyboard-response","trial_index":351,"time_elapsed":3658256,"internal_node_id":"0.0-13.0-3.74","match_key":"l","participant_id":"06"},{"rt":null,"stimulus":"Sounds/train_sound.wav","key_press":null,"block":1,"trial_type":"audio-keyboard-response","trial_index":352,"time_elapsed":3659552,"internal_node_id":"0.0-13.0-0.75","match_key":"l","participant_id":"06"},{"rt":null,"stimulus":"<p style=\"font-size: 48px;\">+</p>","key_press":null,"block":1,"trial_type":"html-keyboard-response","trial_index":353,"time_elapsed":3660556,"internal_node_id":"0.0-13.0-1.75","match_key":"l","participant_id":"06"},{"rt":394.4099999498576,"stimulus":"Images/rooster_cartoon.png","key_press":65,"stim_onset":1581390377349,"block":1,"match_type":"non-match","image_category":"rooster","sound_category":"train","audio_type":"sound","phase":"test","trial_type":"image-keyboard-response","trial_index":354,"time_elapsed":3660951,"internal_node_id":"0.0-13.0-2.75","match_key":"l","participant_id":"06","correct":true},{"rt":null,"stimulus":"Sounds/correct.wav","key_press":null,"block":1,"trial_type":"audio-keyboard-response","trial_index":355,"time_elapsed":3662957,"internal_node_id":"0.0-13.0-3.75","match_key":"l","participant_id":"06"},{"rt":null,"stimulus":"Sounds/dog_label.wav","key_press":null,"block":1,"trial_type":"audio-keyboard-response","trial_index":356,"time_elapsed":3663612,"internal_node_id":"0.0-13.0-0.76","match_key":"l","participant_id":"06"},{"rt":null,"stimulus":"<p style=\"font-size: 48px;\">+</p>","key_press":null,"block":1,"trial_type":"html-keyboard-response","trial_index":357,"time_elapsed":3664606,"internal_node_id":"0.0-13.0-1.76","match_key":"l","participant_id":"06"},{"rt":488.77499997615814,"stimulus":"Images/dog_1.png","key_press":76,"stim_onset":1581390381399,"block":1,"match_type":"match","image_category":"dog","sound_category":"dog","audio_type":"label","phase":"test","trial_type":"image-keyboard-response","trial_index":358,"time_elapsed":3665096,"internal_node_id":"0.0-13.0-2.76","match_key":"l","participant_id":"06","correct":true},{"rt":null,"stimulus":"Sounds/correct.wav","key_press":null,"block":1,"trial_type":"audio-keyboard-response","trial_index":359,"time_elapsed":3667100,"internal_node_id":"0.0-13.0-3.76","match_key":"l","participant_id":"06"},{"rt":null,"stimulus":"Sounds/motorcycle_sound.wav","key_press":null,"block":1,"trial_type":"audio-keyboard-response","trial_index":360,"time_elapsed":3668212,"internal_node_id":"0.0-13.0-0.77","match_key":"l","participant_id":"06"},{"rt":null,"stimulus":"<p style=\"font-size: 48px;\">+</p>","key_press":null,"block":1,"trial_type":"html-keyboard-response","trial_index":361,"time_elapsed":3669206,"internal_node_id":"0.0-13.0-1.77","match_key":"l","participant_id":"06"},{"rt":608.6050000740215,"stimulus":"Images/car_2.png","key_press":76,"stim_onset":1581390385999,"block":1,"match_type":"non-match","image_category":"car","sound_category":"motorcycle","audio_type":"sound","phase":"test","trial_type":"image-keyboard-response","trial_index":362,"time_elapsed":3669815,"internal_node_id":"0.0-13.0-2.77","match_key":"l","participant_id":"06","correct":false},{"rt":null,"stimulus":"Sounds/incorrect.wav","key_press":null,"block":1,"trial_type":"audio-keyboard-response","trial_index":363,"time_elapsed":3671826,"internal_node_id":"0.0-13.0-3.77","match_key":"l","participant_id":"06"},{"rt":null,"stimulus":"Sounds/dog_sound.wav","key_press":null,"block":1,"trial_type":"audio-keyboard-response","trial_index":364,"time_elapsed":3672532,"internal_node_id":"0.0-13.0-0.78","match_key":"l","participant_id":"06"},{"rt":null,"stimulus":"<p style=\"font-size: 48px;\">+</p>","key_press":null,"block":1,"trial_type":"html-keyboard-response","trial_index":365,"time_elapsed":3673523,"internal_node_id":"0.0-13.0-1.78","match_key":"l","participant_id":"06"},{"rt":883.6799999698997,"stimulus":"Images/car_1.png","key_press":65,"stim_onset":1581390390316,"block":1,"match_type":"non-match"