[{"rt":62444.209999986924,"responses":"{\"Q0\":\"COGS219_2020_26\"}","trial_type":"survey-text","trial_index":0,"time_elapsed":62474,"internal_node_id":"0.0-0.0","match_key":"a","participant_id":"COGS219_2020_26"},{"rt":34846.84500005096,"stimulus":"<p>Use KEYBOARD 2 (match LEFT)</p><p>Press MATCH to continue.</p>","key_press":65,"trial_type":"html-keyboard-response","trial_index":1,"time_elapsed":97332,"internal_node_id":"0.0-1.0","match_key":"a","participant_id":"COGS219_2020_26"},{"rt":1826525.3050000174,"stimulus":"<p>Welcome to the experiment.</p>","key_press":40,"trial_type":"html-keyboard-response","trial_index":2,"time_elapsed":1923587,"internal_node_id":"0.0-2.0","match_key":"a","participant_id":"COGS219_2020_26"},{"rt":14224.919999949634,"stimulus":"<p>Thank you for agreeing to participate in this study.</p><p>If during any part of the procedure you must stop for any reason, please inform the researcher that you do not wish to continue.</p>","key_press":39,"trial_type":"html-keyboard-response","trial_index":3,"time_elapsed":1937817,"internal_node_id":"0.0-3.0","match_key":"a","participant_id":"COGS219_2020_26"},{"rt":18847.769999993034,"stimulus":"<p>In this experiment, you will hear various words or sounds and see pictures of various animals and objects.</p><p>Most of the images will be of common everyday objects, such as cars, cats, cows, firearms, frogs, chickens, whistles, trains, motorcycles, and dogs.</p><p>Some of the images will be real-life stills, while others will be cartoons.</p>","key_press":39,"trial_type":"html-keyboard-response","trial_index":4,"time_elapsed":1956666,"internal_node_id":"0.0-4.0","match_key":"a","participant_id":"COGS219_2020_26"},{"rt":15798.320000059903,"stimulus":"<p>Sometimes, the word/sound will match the picture, for example you'll hear a meowing sound and see a cat.</p><p>Other times, the picture will not match the sound or word.</p><p>Your task is to decide as quickly as possible if the word/sound matches the picture or not. </p>","key_press":39,"trial_type":"html-keyboard-response","trial_index":5,"time_elapsed":1972466,"internal_node_id":"0.0-5.0","match_key":"a","participant_id":"COGS219_2020_26"},{"rt":12182.934999931604,"stimulus":"<p>For example, if you hear the word \"cat\" or hear a meowing sound, and then see a picture of a cat, you should press the MATCH key.</p><p> If the sound and image do not match, press the NOT-MATCH key to indicate that there is not a match.</p>","key_press":39,"trial_type":"html-keyboard-response","trial_index":6,"time_elapsed":1984640,"internal_node_id":"0.0-6.0","match_key":"a","participant_id":"COGS219_2020_26"},{"rt":11174.619999947026,"stimulus":"<p>If you make a mistake, you will hear a buzzing sound instead of a more pleasant sound.</p><p> Try to respond as quickly as possible, while making as few errors as possible. If you are making mistakes, you are probably rushing.</p>","key_press":39,"trial_type":"html-keyboard-response","trial_index":7,"time_elapsed":1995816,"internal_node_id":"0.0-7.0","match_key":"a","participant_id":"COGS219_2020_26"},{"rt":10118.875000043772,"stimulus":"<p>Please try to not move or blink your eyes during the presentation of the images. You can move and blink between images.</p><p>During the experiment there will be some breaks during which you can rest your eyes.</p>","key_press":39,"trial_type":"html-keyboard-response","trial_index":8,"time_elapsed":2005936,"internal_node_id":"0.0-8.0","match_key":"a","participant_id":"COGS219_2020_26"},{"rt":4350.570000009611,"stimulus":"<p>We will begin with 10 practice trials. Please let the experimenter know if you have any questions.</p>","key_press":39,"trial_type":"html-keyboard-response","trial_index":9,"time_elapsed":2010287,"internal_node_id":"0.0-9.0","match_key":"a","participant_id":"COGS219_2020_26"},{"rt":null,"stimulus":"Sounds/train_label.wav","key_press":null,"block":0,"trial_type":"audio-keyboard-response","trial_index":10,"time_elapsed":2011649,"internal_node_id":"0.0-10.0-0.0","match_key":"a","participant_id":"COGS219_2020_26"},{"rt":null,"stimulus":"<p style=\"font-size: 48px;\">+</p>","key_press":null,"block":0,"trial_type":"html-keyboard-response","trial_index":11,"time_elapsed":2012652,"internal_node_id":"0.0-10.0-1.0","match_key":"a","participant_id":"COGS219_2020_26"},{"rt":1073.2800000114366,"stimulus":"Images/train_orig.png","key_press":65,"stim_onset":1582573342216,"block":0,"match_type":"match","image_category":"train","sound_category":"train","audio_type":"label","phase":"practice","trial_type":"image-keyboard-response","trial_index":12,"time_elapsed":2013727,"internal_node_id":"0.0-10.0-2.0","match_key":"a","participant_id":"COGS219_2020_26","correct":true},{"rt":null,"stimulus":"Sounds/correct.wav","key_press":null,"block":0,"trial_type":"audio-keyboard-response","trial_index":13,"time_elapsed":2015740,"internal_node_id":"0.0-10.0-3.0","match_key":"a","participant_id":"COGS219_2020_26"},{"rt":null,"stimulus":"Sounds/car_sound.wav","key_press":null,"block":0,"trial_type":"audio-keyboard-response","trial_index":14,"time_elapsed":2016809,"internal_node_id":"0.0-10.0-0.1","match_key":"a","participant_id":"COGS219_2020_26"},{"rt":null,"stimulus":"<p style=\"font-size: 48px;\">+</p>","key_press":null,"block":0,"trial_type":"html-keyboard-response","trial_index":15,"time_elapsed":2017802,"internal_node_id":"0.0-10.0-1.1","match_key":"a","participant_id":"COGS219_2020_26"},{"rt":2820.0149999465793,"stimulus":"Images/car_3.png","key_press":76,"stim_onset":1582573347366,"block":0,"match_type":"match","image_category":"car","sound_category":"car","audio_type":"sound","phase":"practice","trial_type":"image-keyboard-response","trial_index":16,"time_elapsed":2020623,"internal_node_id":"0.0-10.0-2.1","match_key":"a","participant_id":"COGS219_2020_26","correct":false},{"rt":null,"stimulus":"Sounds/incorrect.wav","key_press":null,"block":0,"trial_type":"audio-keyboard-response","trial_index":17,"time_elapsed":2022628,"internal_node_id":"0.0-10.0-3.1","match_key":"a","participant_id":"COGS219_2020_26"},{"rt":null,"stimulus":"Sounds/motorcycle_label.wav","key_press":null,"block":0,"trial_type":"audio-keyboard-response","trial_index":18,"time_elapsed":2023769,"internal_node_id":"0.0-10.0-0.2","match_key":"a","participant_id":"COGS219_2020_26"},{"rt":null,"stimulus":"<p style=\"font-size: 48px;\">+</p>","key_press":null,"block":0,"trial_type":"html-keyboard-response","trial_index":19,"time_elapsed":2024768,"internal_node_id":"0.0-10.0-1.2","match_key":"a","participant_id":"COGS219_2020_26"},{"rt":717.255000025034,"stimulus":"Images/motorcycle_3.png","key_press":65,"stim_onset":1582573354333,"block":0,"match_type":"match","image_category":"motorcycle","sound_category":"motorcycle","audio_type":"label","phase":"practice","trial_type":"image-keyboard-response","trial_index":20,"time_elapsed":2025487,"internal_node_id":"0.0-10.0-2.2","match_key":"a","participant_id":"COGS219_2020_26","correct":true},{"rt":null,"stimulus":"Sounds/correct.wav","key_press":null,"block":0,"trial_type":"audio-keyboard-response","trial_index":21,"time_elapsed":2027492,"internal_node_id":"0.0-10.0-3.2","match_key":"a","participant_id":"COGS219_2020_26"},{"rt":null,"stimulus":"Sounds/cat_label.wav","key_press":null,"block":0,"trial_type":"audio-keyboard-response","trial_index":22,"time_elapsed":2028329,"internal_node_id":"0.0-10.0-0.3","match_key":"a","participant_id":"COGS219_2020_26"},{"rt":null,"stimulus":"<p style=\"font-size: 48px;\">+</p>","key_press":null,"block":0,"trial_type":"html-keyboard-response","trial_index":23,"time_elapsed":2029318,"internal_node_id":"0.0-10.0-1.3","match_key":"a","participant_id":"COGS219_2020_26"},{"rt":719.8799999896437,"stimulus":"Images/rooster_3.png","key_press":76,"stim_onset":1582573358882,"block":0,"match_type":"non-match","image_category":"rooster","sound_category":"cat","audio_type":"label","phase":"practice","trial_type":"image-keyboard-response","trial_index":24,"time_elapsed":2030039,"internal_node_id":"0.0-10.0-2.3","match_key":"a","participant_id":"COGS219_2020_26","correct":true},{"rt":null,"stimulus":"Sounds/correct.wav","key_press":null,"block":0,"trial_type":"audio-keyboard-response","trial_index":25,"time_elapsed":2032042,"internal_node_id":"0.0-10.0-3.3","match_key":"a","participant_id":"COGS219_2020_26"},{"rt":null,"stimulus":"Sounds/whistle_sound.wav","key_press":null,"block":0,"trial_type":"audio-keyboard-response","trial_index":26,"time_elapsed":2032749,"internal_node_id":"0.0-10.0-0.4","match_key":"a","participant_id":"COGS219_2020_26"},{"rt":null,"stimulus":"<p style=\"font-size: 48px;\">+</p>","key_press":null,"block":0,"trial_type":"html-keyboard-response","trial_index":27,"time_elapsed":2033752,"internal_node_id":"0.0-10.0-1.4","match_key":"a","participant_id":"COGS219_2020_26"},{"rt":718.155000009574,"stimulus":"Images/car_3.png","key_press":76,"stim_onset":1582573363316,"block":0,"match_type":"non-match","image_category":"car","sound_category":"whistle","audio_type":"sound","phase":"practice","trial_type":"image-keyboard-response","trial_index":28,"time_elapsed":2034471,"internal_node_id":"0.0-10.0-2.4","match_key":"a","participant_id":"COGS219_2020_26","correct":true},{"rt":null,"stimulus":"Sounds/correct.wav","key_press":null,"block":0,"trial_type":"audio-keyboard-response","trial_index":29,"time_elapsed":2036474,"internal_node_id":"0.0-10.0-3.4","match_key":"a","participant_id":"COGS219_2020_26"},{"rt":null,"stimulus":"Sounds/dog_label.wav","key_press":null,"block":0,"trial_type":"audio-keyboard-response","trial_index":30,"time_elapsed":2037129,"internal_node_id":"0.0-10.0-0.5","match_key":"a","participant_id":"COGS219_2020_26"},{"rt":null,"stimulus":"<p style=\"font-size: 48px;\">+</p>","key_press":null,"block":0,"trial_type":"html-keyboard-response","trial_index":31,"time_elapsed":2038119,"internal_node_id":"0.0-10.0-1.5","match_key":"a","participant_id":"COGS219_2020_26"},{"rt":615.1049999753013,"stimulus":"Images/rooster_1.png","key_press":76,"stim_onset":1582573367683,"block":0,"match_type":"non-match","image_category":"rooster","sound_category":"dog","audio_type":"label","phase":"practice","trial_type":"image-keyboard-response","trial_index":32,"time_elapsed":2038735,"internal_node_id":"0.0-10.0-2.5","match_key":"a","participant_id":"COGS219_2020_26","correct":true},{"rt":null,"stimulus":"Sounds/correct.wav","key_press":null,"block":0,"trial_type":"audio-keyboard-response","trial_index":33,"time_elapsed":2040741,"internal_node_id":"0.0-10.0-3.5","match_key":"a","participant_id":"COGS219_2020_26"},{"rt":null,"stimulus":"Sounds/dog_label.wav","key_press":null,"block":0,"trial_type":"audio-keyboard-response","trial_index":34,"time_elapsed":2041369,"internal_node_id":"0.0-10.0-0.6","match_key":"a","participant_id":"COGS219_2020_26"},{"rt":null,"stimulus":"<p style=\"font-size: 48px;\">+</p>","key_press":null,"block":0,"trial_type":"html-keyboard-response","trial_index":35,"time_elapsed":2042369,"internal_node_id":"0.0-10.0-1.6","match_key":"a","participant_id":"COGS219_2020_26"},{"rt":612.8150000004098,"stimulus":"Images/cat_1.png","key_press":76,"stim_onset":1582573371933,"block":0,"match_type":"non-match","image_category":"cat","sound_category":"dog","audio_type":"label","phase":"practice","trial_type":"image-keyboard-response","trial_index":36,"time_elapsed":2042983,"internal_node_id":"0.0-10.0-2.6","match_key":"a","participant_id":"COGS219_2020_26","correct":true},{"rt":null,"stimulus":"Sounds/correct.wav","key_press":null,"block":0,"trial_type":"audio-keyboard-response","trial_index":37,"time_elapsed":2045001,"internal_node_id":"0.0-10.0-3.6","match_key":"a","participant_id":"COGS219_2020_26"},{"rt":null,"stimulus":"Sounds/cat_label.wav","key_press":null,"block":0,"trial_type":"audio-keyboard-response","trial_index":38,"time_elapsed":2045819,"internal_node_id":"0.0-10.0-0.7","match_key":"a","participant_id":"COGS219_2020_26"},{"rt":null,"stimulus":"<p style=\"font-size: 48px;\">+</p>","key_press":null,"block":0,"trial_type":"html-keyboard-response","trial_index":39,"time_elapsed":2046812,"internal_node_id":"0.0-10.0-1.7","match_key":"a","participant_id":"COGS219_2020_26"},{"rt":532.024999964051,"stimulus":"Images/cow_cartoon.png","key_press":76,"stim_onset":1582573376376,"block":0,"match_type":"non-match","image_category":"cow","sound_category":"cat","audio_type":"label","phase":"practice","trial_type":"image-keyboard-response","trial_index":40,"time_elapsed":2047345,"internal_node_id":"0.0-10.0-2.7","match_key":"a","participant_id":"COGS219_2020_26","correct":true},{"rt":null,"stimulus":"Sounds/correct.wav","key_press":null,"block":0,"trial_type":"audio-keyboard-response","trial_index":41,"time_elapsed":2049351,"internal_node_id":"0.0-10.0-3.7","match_key":"a","participant_id":"COGS219_2020_26"},{"rt":null,"stimulus":"Sounds/rooster_label.wav","key_press":null,"block":0,"trial_type":"audio-keyboard-response","trial_index":42,"time_elapsed":2050059,"internal_node_id":"0.0-10.0-0.8","match_key":"a","participant_id":"COGS219_2020_26"},{"rt":null,"stimulus":"<p style=\"font-size: 48px;\">+</p>","key_press":null,"block":0,"trial_type":"html-keyboard-response","trial_index":43,"time_elapsed":2051062,"internal_node_id":"0.0-10.0-1.8","match_key":"a","participant_id":"COGS219_2020_26"},{"rt":641.5050000650808,"stimulus":"Images/motorcycle_3.png","key_press":76,"stim_onset":1582573380626,"block":0,"match_type":"non-match","image_category":"motorcycle","sound_category":"rooster","audio_type":"label","phase":"practice","trial_type":"image-keyboard-response","trial_index":44,"time_elapsed":2051705,"internal_node_id":"0.0-10.0-2.8","match_key":"a","participant_id":"COGS219_2020_26","correct":true},{"rt":null,"stimulus":"Sounds/correct.wav","key_press":null,"block":0,"trial_type":"audio-keyboard-response","trial_index":45,"time_elapsed":2053716,"internal_node_id":"0.0-10.0-3.8","match_key":"a","participant_id":"COGS219_2020_26"},{"rt":null,"stimulus":"Sounds/car_sound.wav","key_press":null,"block":0,"trial_type":"audio-keyboard-response","trial_index":46,"time_elapsed":2054799,"internal_node_id":"0.0-10.0-0.9","match_key":"a","participant_id":"COGS219_2020_26"},{"rt":null,"stimulus":"<p style=\"font-size: 48px;\">+</p>","key_press":null,"block":0,"trial_type":"html-keyboard-response","trial_index":47,"time_elapsed":2055795,"internal_node_id":"0.0-10.0-1.9","match_key":"a","participant_id":"COGS219_2020_26"},{"rt":564.4699999829754,"stimulus":"Images/car_1.png","key_press":65,"stim_onset":1582573385360,"block":0,"match_type":"match","image_category":"car","sound_category":"car","audio_type":"sound","phase":"practice","trial_type":"image-keyboard-response","trial_index":48,"time_elapsed":2056361,"internal_node_id":"0.0-10.0-2.9","match_key":"a","participant_id":"COGS219_2020_26","correct":true},{"rt":null,"stimulus":"Sounds/correct.wav","key_press":null,"block":0,"trial_type":"audio-keyboard-response","trial_index":49,"time_elapsed":2058369,"internal_node_id":"0.0-10.0-3.9","match_key":"a","participant_id":"COGS219_2020_26"},{"rt":18023.664999986067,"stimulus":"<p>The rest of the experiment is divided into five blocks with 100 trials in each block. It will take about 45 minutes to complete.</p><p>The experimenter will be in the outer room and you can communicate with them through the monitor if you have any questions or wish to stop the experiment.</p>","key_press":39,"trial_type":"html-keyboard-response","trial_index":50,"time_elapsed":2076393,"internal_node_id":"0.0-11.0","match_key":"a","participant_id":"COGS219_2020_26"},{"rt":9966.669999994338,"stimulus":"<p>Remember, please try not to move or blink your eyes during the presentation of the images. </p><p>At the end of the experiment, we will show you your scores on the task so you can see how you did.</p><p>The experiment will start on the next screen.</p>","key_press":39,"trial_type":"html-keyboard-response","trial_index":51,"time_elapsed":2086361,"internal_node_id":"0.0-12.0","match_key":"a","participant_id":"COGS219_2020_26"},{"rt":null,"stimulus":"Sounds/dog_label.wav","key_press":null,"block":1,"trial_type":"audio-keyboard-response","trial_index":52,"time_elapsed":2089045,"internal_node_id":"0.0-13.0-0.0","match_key":"a","participant_id":"COGS219_2020_26"},{"rt":null,"stimulus":"<p style=\"font-size: 48px;\">+</p>","key_press":null,"block":1,"trial_type":"html-keyboard-response","trial_index":53,"time_elapsed":2090063,"internal_node_id":"0.0-13.0-1.0","match_key":"a","participant_id":"COGS219_2020_26"},{"rt":785.3749999776483,"stimulus":"Images/dog_3.png","key_press":65,"stim_onset":1582573419627,"block":1,"match_type":"match","image_category":"dog","sound_category":"dog","audio_type":"label","phase":"test","trial_type":"image-keyboard-response","trial_index":54,"time_elapsed":2090849,"internal_node_id":"0.0-13.0-2.0","match_key":"a","participant_id":"COGS219_2020_26","correct":true},{"rt":null,"stimulus":"Sounds/correct.wav","key_press":null,"block":1,"trial_type":"audio-keyboard-response","trial_index":55,"time_elapsed":2092867,"internal_node_id":"0.0-13.0-3.0","match_key":"a","participant_id":"COGS219_2020_26"},{"rt":null,"stimulus":"Sounds/train_label.wav","key_press":null,"block":1,"trial_type":"audio-keyboard-response","trial_index":56,"time_elapsed":2094146,"internal_node_id":"0.0-13.0-0.1","match_key":"a","participant_id":"COGS219_2020_26"},{"rt":null,"stimulus":"<p style=\"font-size: 48px;\">+</p>","key_press":null,"block":1,"trial_type":"html-keyboard-response","trial_index":57,"time_elapsed":2095162,"internal_node_id":"0.0-13.0-1.1","match_key":"a","participant_id":"COGS219_2020_26"},{"rt":597.0599999418482,"stimulus":"Images/train_cartoon.png","key_press":65,"stim_onset":1582573424727,"block":1,"match_type":"match","image_category":"train","sound_category":"train","audio_type":"label","phase":"test","trial_type":"image-keyboard-response","trial_index":58,"time_elapsed":2095761,"internal_node_id":"0.0-13.0-2.1","match_key":"a","participant_id":"COGS219_2020_26","correct":true},{"rt":null,"stimulus":"Sounds/correct.wav","key_press":null,"block":1,"trial_type":"audio-keyboard-response","trial_index":59,"time_elapsed":2097768,"internal_node_id":"0.0-13.0-3.1","match_key":"a","participant_id":"COGS219_2020_26"},{"rt":null,"stimulus":"Sounds/train_sound.wav","key_press":null,"block":1,"trial_type":"audio-keyboard-response","trial_index":60,"time_elapsed":2099064,"internal_node_id":"0.0-13.0-0.2","match_key":"a","participant_id":"COGS219_2020_26"},{"rt":null,"stimulus":"<p style=\"font-size: 48px;\">+</p>","key_press":null,"block":1,"trial_type":"html-keyboard-response","trial_index":61,"time_elapsed":2100063,"internal_node_id":"0.0-13.0-1.2","match_key":"a","participant_id":"COGS219_2020_26"},{"rt":505.06999995559454,"stimulus":"Images/train_1.png","key_press":65,"stim_onset":1582573429627,"block":1,"match_type":"match","image_category":"train","sound_category":"train","audio_type":"sound","phase":"test","trial_type":"image-keyboard-response","trial_index":62,"time_elapsed":2100569,"internal_node_id":"0.0-13.0-2.2","match_key":"a","participant_id":"COGS219_2020_26","correct":true},{"rt":null,"stimulus":"Sounds/correct.wav","key_press":null,"block":1,"trial_type":"audio-keyboard-response","trial_index":63,"time_elapsed":2102584,"internal_node_id":"0.0-13.0-3.2","match_key":"a","participant_id":"COGS219_2020_26"},{"rt":null,"stimulus":"Sounds/gun_sound.wav","key_press":null,"block":1,"trial_type":"audio-keyboard-response","trial_index":64,"time_elapsed":2103165,"internal_node_id":"0.0-13.0-0.3","match_key":"a","participant_id":"COGS219_2020_26"},{"rt":null,"stimulus":"<p style=\"font-size: 48px;\">+</p>","key_press":null,"block":1,"trial_type":"html-keyboard-response","trial_index":65,"time_elapsed":2104163,"internal_node_id":"0.0-13.0-1.3","match_key":"a","participant_id":"COGS219_2020_26"},{"rt":685.3000000119209,"stimulus":"Images/gun_cartoon.png","key_press":65,"stim_onset":1582573433727,"block":1,"match_type":"match","image_category":"gun","sound_category":"gun","audio_type":"sound","phase":"test","trial_type":"image-keyboard-response","trial_index":66,"time_elapsed":2104849,"internal_node_id":"0.0-13.0-2.3","match_key":"a","participant_id":"COGS219_2020_26","correct":true},{"rt":null,"stimulus":"Sounds/correct.wav","key_press":null,"block":1,"trial_type":"audio-keyboard-response","trial_index":67,"time_elapsed":2106867,"internal_node_id":"0.0-13.0-3.3","match_key":"a","participant_id":"COGS219_2020_26"},{"rt":null,"stimulus":"Sounds/dog_label.wav","key_press":null,"block":1,"trial_type":"audio-keyboard-response","trial_index":68,"time_elapsed":2107525,"internal_node_id":"0.0-13.0-0.4","match_key":"a","participant_id":"COGS219_2020_26"},{"rt":null,"stimulus":"<p style=\"font-size: 48px;\">+</p>","key_press":null,"block":1,"trial_type":"html-keyboard-response","trial_index":69,"time_elapsed":2108529,"internal_node_id":"0.0-13.0-1.4","match_key":"a","participant_id":"COGS219_2020_26"},{"rt":454.15999996475875,"stimulus":"Images/motorcycle_cartoon.png","key_press":76,"stim_onset":1582573438094,"block":1,"match_type":"non-match","image_category":"motorcycle","sound_category":"dog","audio_type":"label","phase":"test","trial_type":"image-keyboard-response","trial_index":70,"time_elapsed":2108985,"internal_node_id":"0.0-13.0-2.4","match_key":"a","participant_id":"COGS219_2020_26","correct":true},{"rt":null,"stimulus":"Sounds/correct.wav","key_press":null,"block":1,"trial_type":"audio-keyboard-response","trial_index":71,"time_elapsed":2111000,"internal_node_id":"0.0-13.0-3.4","match_key":"a","participant_id":"COGS219_2020_26"},{"rt":null,"stimulus":"Sounds/frog_sound.wav","key_press":null,"block":1,"trial_type":"audio-keyboard-response","trial_index":72,"time_elapsed":2111905,"internal_node_id":"0.0-13.0-0.5","match_key":"a","participant_id":"COGS219_2020_26"},{"rt":null,"stimulus":"<p style=\"font-size: 48px;\">+</p>","key_press":null,"block":1,"trial_type":"html-keyboard-response","trial_index":73,"time_elapsed":2112896,"internal_node_id":"0.0-13.0-1.5","match_key":"a","participant_id":"COGS219_2020_26"},{"rt":487.55000007804483,"stimulus":"Images/rooster_3.png","key_press":76,"stim_onset":1582573442460,"block":1,"match_type":"non-match","image_category":"rooster","sound_category":"frog","audio_type":"sound","phase":"test","trial_type":"image-keyboard-response","trial_index":74,"time_elapsed":2113385,"internal_node_id":"0.0-13.0-2.5","match_key":"a","participant_id":"COGS219_2020_26","correct":true},{"rt":null,"stimulus":"Sounds/correct.wav","key_press":null,"block":1,"trial_type":"audio-keyboard-response","trial_index":75,"time_elapsed":2115400,"internal_node_id":"0.0-13.0-3.5","match_key":"a","participant_id":"COGS219_2020_26"},{"rt":null,"stimulus":"Sounds/gun_sound.wav","key_press":null,"block":1,"trial_type":"audio-keyboard-response","trial_index":76,"time_elapsed":2115945,"internal_node_id":"0.0-13.0-0.6","match_key":"a","participant_id":"COGS219_2020_26"},{"rt":null,"stimulus":"<p style=\"font-size: 48px;\">+</p>","key_press":null,"block":1,"trial_type":"html-keyboard-response","trial_index":77,"time_elapsed":2116963,"internal_node_id":"0.0-13.0-1.6","match_key":"a","participant_id":"COGS219_2020_26"},{"rt":885.3399999206886,"stimulus":"Images/train_2.png","key_press":76,"stim_onset":1582573446527,"block":1,"match_type":"non-match","image_category":"train","sound_category":"gun","audio_type":"sound","phase":"test","trial_type":"image-keyboard-response","trial_index":78,"time_elapsed":2117849,"internal_node_id":"0.0-13.0-2.6","match_key":"a","participant_id":"COGS219_2020_26","correct":true},{"rt":null,"stimulus":"Sounds/correct.wav","key_press":null,"block":1,"trial_type":"audio-keyboard-response","trial_index":79,"time_elapsed":2119867,"internal_node_id":"0.0-13.0-3.6","match_key":"a","participant_id":"COGS219_2020_26"},{"rt":null,"stimulus":"Sounds/train_label.wav","key_press":null,"block":1,"trial_type":"audio-keyboard-response","trial_index":80,"time_elapsed":2121145,"internal_node_id":"0.0-13.0-0.7","match_key":"a","participant_id":"COGS219_2020_26"},{"rt":null,"stimulus":"<p style=\"font-size: 48px;\">+</p>","key_press":null,"block":1,"trial_type":"html-keyboard-response","trial_index":81,"time_elapsed":2122163,"internal_node_id":"0.0-13.0-1.7","match_key":"a","participant_id":"COGS219_2020_26"},{"rt":469.09000002779067,"stimulus":"Images/cow_3.png","key_press":76,"stim_onset":1582573451727,"block":1,"match_type":"non-match","image_category":"cow","sound_category":"train","audio_type":"label","phase":"test","trial_type":"image-keyboard-response","trial_index":82,"time_elapsed":2122633,"internal_node_id":"0.0-13.0-2.7","match_key":"a","participant_id":"COGS219_2020_26","correct":true},{"rt":null,"stimulus":"Sounds/correct.wav","key_press":null,"block":1,"trial_type":"audio-keyboard-response","trial_index":83,"time_elapsed":2124651,"internal_node_id":"0.0-13.0-3.7","match_key":"a","participant_id":"COGS219_2020_26"},{"rt":null,"stimulus":"Sounds/whistle_sound.wav","key_press":null,"block":1,"trial_type":"audio-keyboard-response","trial_index":84,"time_elapsed":2125345,"internal_node_id":"0.0-13.0-0.8","match_key":"a","participant_id":"COGS219_2020_26"},{"rt":null,"stimulus":"<p style=\"font-size: 48px;\">+</p>","key_press":null,"block":1,"trial_type":"html-keyboard-response","trial_index":85,"time_elapsed":2126363,"internal_node_id":"0.0-13.0-1.8","match_key":"a","participant_id":"COGS219_2020_26"},{"rt":564.8100000107661,"stimulus":"Images/whistle_cartoon.png","key_press":65,"stim_onset":1582573455927,"block":1,"match_type":"match","image_category":"whistle","sound_category":"whistle","audio_type":"sound","phase":"test","trial_type":"image-keyboard-response","trial_index":86,"time_elapsed":2126929,"internal_node_id":"0.0-13.0-2.8","match_key":"a","participant_id":"COGS219_2020_26","correct":true},{"rt":null,"stimulus":"Sounds/correct.wav","key_press":null,"block":1,"trial_type":"audio-keyboard-response","trial_index":87,"time_elapsed":2128935,"internal_node_id":"0.0-13.0-3.8","match_key":"a","participant_id":"COGS219_2020_26"},{"rt":null,"stimulus":"Sounds/rooster_sound.wav","key_press":null,"block":1,"trial_type":"audio-keyboard-response","trial_index":88,"time_elapsed":2129625,"internal_node_id":"0.0-13.0-0.9","match_key":"a","participant_id":"COGS219_2020_26"},{"rt":null,"stimulus":"<p style=\"font-size: 48px;\">+</p>","key_press":null,"block":1,"trial_type":"html-keyboard-response","trial_index":89,"time_elapsed":2130613,"internal_node_id":"0.0-13.0-1.9","match_key":"a","participant_id":"COGS219_2020_26"},{"rt":523.2700000051409,"stimulus":"Images/train_cartoon.png","key_press":76,"stim_onset":1582573460177,"block":1,"match_type":"non-match","image_category":"train","sound_category":"rooster","audio_type":"sound","phase":"test","trial_type":"image-keyboard-response","trial_index":90,"time_elapsed":2131137,"internal_node_id":"0.0-13.0-2.9","match_key":"a","participant_id":"COGS219_2020_26","correct":true},{"rt":null,"stimulus":"Sounds/correct.wav","key_press":null,"block":1,"trial_type":"audio-keyboard-response","trial_index":91,"time_elapsed":2133150,"internal_node_id":"0.0-13.0-3.9","match_key":"a","participant_id":"COGS219_2020_26"},{"rt":null,"stimulus":"Sounds/car_sound.wav","key_press":null,"block":1,"trial_type":"audio-keyboard-response","trial_index":92,"time_elapsed":2134225,"internal_node_id":"0.0-13.0-0.10","match_key":"a","participant_id":"COGS219_2020_26"},{"rt":null,"stimulus":"<p style=\"font-size: 48px;\">+</p>","key_press":null,"block":1,"trial_type":"html-keyboard-response","trial_index":93,"time_elapsed":2135230,"internal_node_id":"0.0-13.0-1.10","match_key":"a","participant_id":"COGS219_2020_26"},{"rt":361.8700000224635,"stimulus":"Images/car_1.png","key_press":65,"stim_onset":1582573464794,"block":1,"match_type":"match","image_category":"car","sound_category":"car","audio_type":"sound","phase":"test","trial_type":"image-keyboard-response","trial_index":94,"time_elapsed":2135593,"internal_node_id":"0.0-13.0-2.10","match_key":"a","participant_id":"COGS219_2020_26","correct":true},{"rt":null,"stimulus":"Sounds/correct.wav","key_press":null,"block":1,"trial_type":"audio-keyboard-response","trial_index":95,"time_elapsed":2137602,"internal_node_id":"0.0-13.0-3.10","match_key":"a","participant_id":"COGS219_2020_26"},{"rt":null,"stimulus":"Sounds/rooster_sound.wav","key_press":null,"block":1,"trial_type":"audio-keyboard-response","trial_index":96,"time_elapsed":2138265,"internal_node_id":"0.0-13.0-0.11","match_key":"a","participant_id":"COGS219_2020_26"},{"rt":null,"stimulus":"<p style=\"font-size: 48px;\">+</p>","key_press":null,"block":1,"trial_type":"html-keyboard-response","trial_index":97,"time_elapsed":2139263,"internal_node_id":"0.0-13.0-1.11","match_key":"a","participant_id":"COGS219_2020_26"},{"rt":504.8299999907613,"stimulus":"Images/gun_3.png","key_press":76,"stim_onset":1582573468827,"block":1,"match_type":"non-match","image_category":"gun","sound_category":"rooster","audio_type":"sound","phase":"test","trial_type":"image-keyboard-response","trial_index":98,"time_elapsed":2139769,"internal_node_id":"0.0-13.0-2.11","match_key":"a","participant_id":"COGS219_2020_26","correct":true},{"rt":null,"stimulus":"Sounds/correct.wav","key_press":null,"block":1,"trial_type":"audio-keyboard-response","trial_index":99,"time_elapsed":2141784,"internal_node_id":"0.0-13.0-3.11","match_key":"a","participant_id":"COGS219_2020_26"},{"rt":null,"stimulus":"Sounds/gun_label.wav","key_press":null,"block":1,"trial_type":"audio-keyboard-response","trial_index":100,"time_elapsed":2142365,"internal_node_id":"0.0-13.0-0.12","match_key":"a","participant_id":"COGS219_2020_26"},{"rt":null,"stimulus":"<p style=\"font-size: 48px;\">+</p>","key_press":null,"block":1,"trial_type":"html-keyboard-response","trial_index":101,"time_elapsed":2143363,"internal_node_id":"0.0-13.0-1.12","match_key":"a","participant_id":"COGS219_2020_26"},{"rt":468.8000000314787,"stimulus":"Images/whistle_cartoon.png","key_press":65,"stim_onset":1582573472927,"block":1,"match_type":"non-match","image_category":"whistle","sound_category":"gun","audio_type":"label","phase":"test","trial_type":"image-keyboard-response","trial_index":102,"time_elapsed":2143833,"internal_node_id":"0.0-13.0-2.12","match_key":"a","participant_id":"COGS219_2020_26","correct":false},{"rt":null,"stimulus":"Sounds/incorrect.wav","key_press":null,"block":1,"trial_type":"audio-keyboard-response","trial_index":103,"time_elapsed":2145850,"internal_node_id":"0.0-13.0-3.12","match_key":"a","participant_id":"COGS219_2020_26"},{"rt":null,"stimulus":"Sounds/motorcycle_label.wav","key_press":null,"block":1,"trial_type":"audio-keyboard-response","trial_index":104,"time_elapsed":2146985,"internal_node_id":"0.0-13.0-0.13","match_key":"a","participant_id":"COGS219_2020_26"},{"rt":null,"stimulus":"<p style=\"font-size: 48px;\">+</p>","key_press":null,"block":1,"trial_type":"html-keyboard-response","trial_index":105,"time_elapsed":2147980,"internal_node_id":"0.0-13.0-1.13","match_key":"a","participant_id":"COGS219_2020_26"},{"rt":540.0249999947846,"stimulus":"Images/motorcycle_3.png","key_press":65,"stim_onset":1582573477544,"block":1,"match_type":"match","image_category":"motorcycle","sound_category":"motorcycle","audio_type":"label","phase":"test","trial_type":"image-keyboard-response","trial_index":106,"time_elapsed":2148521,"internal_node_id":"0.0-13.0-2.13","match_key":"a","participant_id":"COGS219_2020_26","correct":true},{"rt":null,"stimulus":"Sounds/correct.wav","key_press":null,"block":1,"trial_type":"audio-keyboard-response","trial_index":107,"time_elapsed":2150534,"internal_node_id":"0.0-13.0-3.13","match_key":"a","participant_id":"COGS219_2020_26"},{"rt":null,"stimulus":"Sounds/dog_sound.wav","key_press":null,"block":1,"trial_type":"audio-keyboard-response","trial_index":108,"time_elapsed":2151245,"internal_node_id":"0.0-13.0-0.14","match_key":"a","participant_id":"COGS219_2020_26"},{"rt":null,"stimulus":"<p style=\"font-size: 48px;\">+</p>","key_press":null,"block":1,"trial_type":"html-keyboard-response","trial_index":109,"time_elapsed":2152263,"internal_node_id":"0.0-13.0-1.14","match_key":"a","participant_id":"COGS219_2020_26"},{"rt":552.5249999482185,"stimulus":"Images/gun_2.png","key_press":76,"stim_onset":1582573481827,"block":1,"match_type":"non-match","image_category":"gun","sound_category":"dog","audio_type":"sound","phase":"test","trial_type":"image-keyboard-response","trial_index":110,"time_elapsed":2152817,"internal_node_id":"0.0-13.0-2.14","match_key":"a","participant_id":"COGS219_2020_26","correct":true},{"rt":null,"stimulus":"Sounds/correct.wav","key_press":null,"block":1,"trial_type":"audio-keyboard-response","trial_index":111,"time_elapsed":2154834,"internal_node_id":"0.0-13.0-3.14","match_key":"a","participant_id":"COGS219_2020_26"},{"rt":null,"stimulus":"Sounds/cat_label.wav","key_press":null,"block":1,"trial_type":"audio-keyboard-response","trial_index":112,"time_elapsed":2155685,"internal_node_id":"0.0-13.0-0.15","match_key":"a","participant_id":"COGS219_2020_26"},{"rt":null,"stimulus":"<p style=\"font-size: 48px;\">+</p>","key_press":null,"block":1,"trial_type":"html-keyboard-response","trial_index":113,"time_elapsed":2156680,"internal_node_id":"0.0-13.0-1.15","match_key":"a","participant_id":"COGS219_2020_26"},{"rt":720.2650000108406,"stimulus":"Images/cat_orig.png","key_press":65,"stim_onset":1582573486244,"block":1,"match_type":"match","image_category":"cat","sound_category":"cat","audio_type":"label","phase":"test","trial_type":"image-keyboard-response","trial_index":114,"time_elapsed":2157401,"internal_node_id":"0.0-13.0-2.15","match_key":"a","participant_id":"COGS219_2020_26","correct":true},{"rt":null,"stimulus":"Sounds/correct.wav","key_press":null,"block":1,"trial_type":"audio-keyboard-response","trial_index":115,"time_elapsed":2159418,"internal_node_id":"0.0-13.0-3.15","match_key":"a","participant_id":"COGS219_2020_26"},{"rt":null,"stimulus":"Sounds/rooster_sound.wav","key_press":null,"block":1,"trial_type":"audio-keyboard-response","trial_index":116,"time_elapsed":2160125,"internal_node_id":"0.0-13.0-0.16","match_key":"a","participant_id":"COGS219_2020_26"},{"rt":null,"stimulus":"<p style=\"font-size: 48px;\">+</p>","key_press":null,"block":1,"trial_type":"html-keyboard-response","trial_index":117,"time_elapsed":2161113,"internal_node_id":"0.0-13.0-1.16","match_key":"a","participant_id":"COGS219_2020_26"},{"rt":598.3850000193343,"stimulus":"Images/whistle_1.png","key_press":76,"stim_onset":1582573490677,"block":1,"match_type":"non-match","image_category":"whistle","sound_category":"rooster","audio_type":"sound","phase":"test","trial_type":"image-keyboard-response","trial_index":118,"time_elapsed":2161713,"internal_node_id":"0.0-13.0-2.16","match_key":"a","participant_id":"COGS219_2020_26","correct":true},{"rt":null,"stimulus":"Sounds/correct.wav","key_press":null,"block":1,"trial_type":"audio-keyboard-response","trial_index":119,"time_elapsed":2163720,"internal_node_id":"0.0-13.0-3.16","match_key":"a","participant_id":"COGS219_2020_26"},{"rt":null,"stimulus":"Sounds/cow_label.wav","key_press":null,"block":1,"trial_type":"audio-keyboard-response","trial_index":120,"time_elapsed":2164745,"internal_node_id":"0.0-13.0-0.17","match_key":"a","participant_id":"COGS219_2020_26"},{"rt":null,"stimulus":"<p style=\"font-size: 48px;\">+</p>","key_press":null,"block":1,"trial_type":"html-keyboard-response","trial_index":121,"time_elapsed":2165747,"internal_node_id":"0.0-13.0-1.17","match_key":"a","participant_id":"COGS219_2020_26"},{"rt":389.25500004552305,"stimulus":"Images/train_1.png","key_press":76,"stim_onset":1582573495311,"block":1,"match_type":"non-match","image_category":"train","sound_category":"cow","audio_type":"label","phase":"test","trial_type":"image-keyboard-response","trial_index":122,"time_elapsed":2166137,"internal_node_id":"0.0-13.0-2.17","match_key":"a","participant_id":"COGS219_2020_26","correct":true},{"rt":null,"stimulus":"Sounds/correct.wav","key_press":null,"block":1,"trial_type":"audio-keyboard-response","trial_index":123,"time_elapsed":2168152,"internal_node_id":"0.0-13.0-3.17","match_key":"a","participant_id":"COGS219_2020_26"},{"rt":null,"stimulus":"Sounds/motorcycle_label.wav","key_press":null,"block":1,"trial_type":"audio-keyboard-response","trial_index":124,"time_elapsed":2169285,"internal_node_id":"0.0-13.0-0.18","match_key":"a","participant_id":"COGS219_2020_26"},{"rt":null,"stimulus":"<p style=\"font-size: 48px;\">+</p>","key_press":null,"block":1,"trial_type":"html-keyboard-response","trial_index":125,"time_elapsed":2170280,"internal_node_id":"0.0-13.0-1.18","match_key":"a","participant_id":"COGS219_2020_26"},{"rt":400.03499994054437,"stimulus":"Images/motorcycle_2.png","key_press":65,"stim_onset":1582573499844,"block":1,"match_type":"match","image_category":"motorcycle","sound_category":"motorcycle","audio_type":"label","phase":"test","trial_type":"image-keyboard-response","trial_index":126,"time_elapsed":2170681,"internal_node_id":"0.0-13.0-2.18","match_key":"a","participant_id":"COGS219_2020_26","correct":true},{"rt":null,"stimulus":"Sounds/correct.wav","key_press":null,"block":1,"trial_type":"audio-keyboard-response","trial_index":127,"time_elapsed":2172685,"internal_node_id":"0.0-13.0-3.18","match_key":"a","participant_id":"COGS219_2020_26"},{"rt":null,"stimulus":"Sounds/cow_sound.wav","key_press":null,"block":1,"trial_type":"audio-keyboard-response","trial_index":128,"time_elapsed":2173705,"internal_node_id":"0.0-13.0-0.19","match_key":"a","participant_id":"COGS219_2020_26"},{"rt":null,"stimulus":"<p style=\"font-size: 48px;\">+</p>","key_press":null,"block":1,"trial_type":"html-keyboard-response","trial_index":129,"time_elapsed":2174697,"internal_node_id":"0.0-13.0-1.19","match_key":"a","participant_id":"COGS219_2020_26"},{"rt":415.24500004015863,"stimulus":"Images/rooster_orig.png","key_press":76,"stim_onset":1582573504261,"block":1,"match_type":"non-match","image_category":"rooster","sound_category":"cow","audio_type":"sound","phase":"test","trial_type":"image-keyboard-response","trial_index":130,"time_elapsed":2175113,"internal_node_id":"0.0-13.0-2.19","match_key":"a","participant_id":"COGS219_2020_26","correct":true},{"rt":null,"stimulus":"Sounds/correct.wav","key_press":null,"block":1,"trial_type":"audio-keyboard-response","trial_index":131,"time_elapsed":2177120,"internal_node_id":"0.0-13.0-3.19","match_key":"a","participant_id":"COGS219_2020_26"},{"rt":null,"stimulus":"Sounds/cat_sound.wav","key_press":null,"block":1,"trial_type":"audio-keyboard-response","trial_index":132,"time_elapsed":2177965,"internal_node_id":"0.0-13.0-0.20","match_key":"a","participant_id":"COGS219_2020_26"},{"rt":null,"stimulus":"<p style=\"font-size: 48px;\">+</p>","key_press":null,"block":1,"trial_type":"html-keyboard-response","trial_index":133,"time_elapsed":2178964,"internal_node_id":"0.0-13.0-1.20","match_key":"a","participant_id":"COGS219_2020_26"},{"rt":444.09499992616475,"stimulus":"Images/cat_1.png","key_press":65,"stim_onset":1582573508528,"block":1,"match_type":"match","image_category":"cat","sound_category":"cat","audio_type":"sound","phase":"test","trial_type":"image-keyboard-response","trial_index":134,"time_elapsed":2179409,"internal_node_id":"0.0-13.0-2.20","match_key":"a","participant_id":"COGS219_2020_26","correct":true},{"rt":null,"stimulus":"Sounds/correct.wav","key_press":null,"block":1,"trial_type":"audio-keyboard-response","trial_index":135,"time_elapsed":2181419,"internal_node_id":"0.0-13.0-3.20","match_key":"a","participant_id":"COGS219_2020_26"},{"rt":null,"stimulus":"Sounds/gun_label.wav","key_press":null,"block":1,"trial_type":"audio-keyboard-response","trial_index":136,"time_elapsed":2182005,"internal_node_id":"0.0-13.0-0.21","match_key":"a","participant_id":"COGS219_2020_26"},{"rt":null,"stimulus":"<p style=\"font-size: 48px;\">+</p>","key_press":null,"block":1,"trial_type":"html-keyboard-response","trial_index":137,"time_elapsed":2182997,"internal_node_id":"0.0-13.0-1.21","match_key":"a","participant_id":"COGS219_2020_26"},{"rt":515.1100000366569,"stimulus":"Images/car_2.png","key_press":76,"stim_onset":1582573512561,"block":1,"match_type":"non-match","image_category":"car","sound_category":"gun","audio_type":"label","phase":"test","trial_type":"image-keyboard-response","trial_index":138,"time_elapsed":2183513,"internal_node_id":"0.0-13.0-2.21","match_key":"a","participant_id":"COGS219_2020_26","correct":true},{"rt":null,"stimulus":"Sounds/correct.wav","key_press":null,"block":1,"trial_type":"audio-keyboard-response","trial_index":139,"time_elapsed":2185519,"internal_node_id":"0.0-13.0-3.21","match_key":"a","participant_id":"COGS219_2020_26"},{"rt":null,"stimulus":"Sounds/car_label.wav","key_press":null,"block":1,"trial_type":"audio-keyboard-response","trial_index":140,"time_elapsed":2186605,"internal_node_id":"0.0-13.0-0.22","match_key":"a","participant_id":"COGS219_2020_26"},{"rt":null,"stimulus":"<p style=\"font-size: 48px;\">+</p>","key_press":null,"block":1,"trial_type":"html-keyboard-response","trial_index":141,"time_elapsed":2187597,"internal_node_id":"0.0-13.0-1.22","match_key":"a","participant_id":"COGS219_2020_26"},{"rt":442.7849999628961,"stimulus":"Images/dog_orig.png","key_press":76,"stim_onset":1582573517161,"block":1,"match_type":"non-match","image_category":"dog","sound_category":"car","audio_type":"label","phase":"test","trial_type":"image-keyboard-response","trial_index":142,"time_elapsed":2188041,"internal_node_id":"0.0-13.0-2.22","match_key":"a","participant_id":"COGS219_2020_26","correct":true},{"rt":null,"stimulus":"Sounds/correct.wav","key_press":null,"block":1,"trial_type":"audio-keyboard-response","trial_index":143,"time_elapsed":2190052,"internal_node_id":"0.0-13.0-3.22","match_key":"a","participant_id":"COGS219_2020_26"},{"rt":null,"stimulus":"Sounds/train_label.wav","key_press":null,"block":1,"trial_type":"audio-keyboard-response","trial_index":144,"time_elapsed":2191325,"internal_node_id":"0.0-13.0-0.23","match_key":"a","participant_id":"COGS219_2020_26"},{"rt":null,"stimulus":"<p style=\"font-size: 48px;\">+</p>","key_press":null,"block":1,"trial_type":"html-keyboard-response","trial_index":145,"time_elapsed":2192331,"internal_node_id":"0.0-13.0-1.23","match_key":"a","participant_id":"COGS219_2020_26"},{"rt":445.34000009298325,"stimulus":"Images/gun_cartoon.png","key_press":76,"stim_onset":1582573521894,"block":1,"match_type":"non-match","image_category":"gun","sound_category":"train","audio_type":"label","phase":"test","trial_type":"image-keyboard-response","trial_index":146,"time_elapsed":2192777,"internal_node_id":"0.0-13.0-2.23","match_key":"a","participant_id":"COGS219_2020_26","correct":true},{"rt":null,"stimulus":"Sounds/correct.wav","key_press":null,"block":1,"trial_type":"audio-keyboard-response","trial_index":147,"time_elapsed":2194786,"internal_node_id":"0.0-13.0-3.23","match_key":"a","participant_id":"COGS219_2020_26"},{"rt":null,"stimulus":"Sounds/cow_label.wav","key_press":null,"block":1,"trial_type":"audio-keyboard-response","trial_index":148,"time_elapsed":2195805,"internal_node_id":"0.0-13.0-0.24","match_key":"a","participant_id":"COGS219_2020_26"},{"rt":null,"stimulus":"<p style=\"font-size: 48px;\">+</p>","key_press":null,"block":1,"trial_type":"html-keyboard-response","trial_index":149,"time_elapsed":2196797,"internal_node_id":"0.0-13.0-1.24","match_key":"a","participant_id":"COGS219_2020_26"},{"rt":475.08500004187226,"stimulus":"Images/cow_3.png","key_press":76,"stim_onset":1582573526361,"block":1,"match_type":"match","image_category":"cow","sound_category":"cow","audio_type":"label","phase":"test","trial_type":"image-keyboard-response","trial_index":150,"time_elapsed":2197273,"internal_node_id":"0.0-13.0-2.24","match_key":"a","participant_id":"COGS219_2020_26","correct":false},{"rt":null,"stimulus":"Sounds/incorrect.wav","key_press":null,"block":1,"trial_type":"audio-keyboard-response","trial_index":151,"time_elapsed":2199285,"internal_node_id":"0.0-13.0-3.24","match_key":"a","participant_id":"COGS219_2020_26"},{"rt":null,"stimulus":"Sounds/cow_sound.wav","key_press":null,"block":1,"trial_type":"audio-keyboard-response","trial_index":152,"time_elapsed":2200305,"internal_node_id":"0.0-13.0-0.25","match_key":"a","participant_id":"COGS219_2020_26"},{"rt":null,"stimulus":"<p style=\"font-size: 48px;\">+</p>","key_press":null,"block":1,"trial_type":"html-keyboard-response","trial_index":153,"time_elapsed":2201297,"internal_node_id":"0.0-13.0-1.25","match_key":"a","participant_id":"COGS219_2020_26"},{"rt":542.7399999462068,"stimulus":"Images/dog_2.png","key_press":76,"stim_onset":1582573530861,"block":1,"match_type":"non-match","image_category":"dog","sound_category":"cow","audio_type":"sound","phase":"test","trial_type":"image-keyboard-response","trial_index":154,"time_elapsed":2201841,"internal_node_id":"0.0-13.0-2.25","match_key":"a","participant_id":"COGS219_2020_26","correct":true},{"rt":null,"stimulus":"Sounds/correct.wav","key_press":null,"block":1,"trial_type":"audio-keyboard-response","trial_index":155,"time_elapsed":2203851,"internal_node_id":"0.0-13.0-3.25","match_key":"a","participant_id":"COGS219_2020_26"},{"rt":null,"stimulus":"Sounds/cat_label.wav","key_press":null,"block":1,"trial_type":"audio-keyboard-response","trial_index":156,"time_elapsed":2204685,"internal_node_id":"0.0-13.0-0.26","match_key":"a","participant_id":"COGS219_2020_26"},{"rt":null,"stimulus":"<p style=\"font-size: 48px;\">+</p>","key_press":null,"block":1,"trial_type":"html-keyboard-response","trial_index":157,"time_elapsed":2205681,"internal_node_id":"0.0-13.0-1.26","match_key":"a","participant_id":"COGS219_2020_26"},{"rt":383.31000006292015,"stimulus":"Images/whistle_2.png","key_press":76,"stim_onset":1582573535245,"block":1,"match_type":"non-match","image_category":"whistle","sound_category":"cat","audio_type":"label","phase":"test","trial_type":"image-keyboard-response","trial_index":158,"time_elapsed":2206065,"internal_node_id":"0.0-13.0-2.26","match_key":"a","participant_id":"COGS219_2020_26","correct":true},{"rt":null,"stimulus":"Sounds/correct.wav","key_press":null,"block":1,"trial_type":"audio-keyboard-response","trial_index":159,"time_elapsed":2208069,"internal_node_id":"0.0-13.0-3.26","match_key":"a","participant_id":"COGS219_2020_26"},{"rt":null,"stimulus":"Sounds/frog_sound.wav","key_press":null,"block":1,"trial_type":"audio-keyboard-response","trial_index":160,"time_elapsed":2208985,"internal_node_id":"0.0-13.0-0.27","match_key":"a","participant_id":"COGS219_2020_26"},{"rt":null,"stimulus":"<p style=\"font-size: 48px;\">+</p>","key_press":null,"block":1,"trial_type":"html-keyboard-response","trial_index":161,"time_elapsed":2209980,"internal_node_id":"0.0-13.0-1.27","match_key":"a","participant_id":"COGS219_2020_26"},{"rt":595.5100000137463,"stimulus":"Images/frog_1.png","key_press":65,"stim_onset":1582573539545,"block":1,"match_type":"match","image_category":"frog","sound_category":"frog","audio_type":"sound","phase":"test","trial_type":"image-keyboard-response","trial_index":162,"time_elapsed":2210577,"internal_node_id":"0.0-13.0-2.27","match_key":"a","participant_id":"COGS219_2020_26","correct":true},{"rt":null,"stimulus":"Sounds/correct.wav","key_press":null,"block":1,"trial_type":"audio-keyboard-response","trial_index":163,"time_elapsed":2212587,"internal_node_id":"0.0-13.0-3.27","match_key":"a","participant_id":"COGS219_2020_26"},{"rt":null,"stimulus":"Sounds/motorcycle_sound.wav","key_press":null,"block":1,"trial_type":"audio-keyboard-response","trial_index":164,"time_elapsed":2213705,"internal_node_id":"0.0-13.0-0.28","match_key":"a","participant_id":"COGS219_2020_26"},{"rt":null,"stimulus":"<p style=\"font-size: 48px;\">+</p>","key_press":null,"block":1,"trial_type":"html-keyboard-response","trial_index":165,"time_elapsed":2214697,"internal_node_id":"0.0-13.0-1.28","match_key":"a","participant_id":"COGS219_2020_26"},{"rt":773.8250000402331,"stimulus":"Images/train_3.png","key_press":76,"stim_onset":1582573544261,"block":1,"match_type":"non-match","image_category":"train","sound_category":"motorcycle","audio_type":"sound","phase":"test","trial_type":"image-keyboard-response","trial_index":166,"time_elapsed":2215473,"internal_node_id":"0.0-13.0-2.28","match_key":"a","participant_id":"COGS219_2020_26","correct":true},{"rt":null,"stimulus":"Sounds/correct.wav","key_press":null,"block":1,"trial_type":"audio-keyboard-response","trial_index":167,"time_elapsed":2217484,"internal_node_id":"0.0-13.0-3.28","match_key":"a","participant_id":"COGS219_2020_26"},{"rt":null,"stimulus":"Sounds/whistle_label.wav","key_press":null,"block":1,"trial_type":"audio-keyboard-response","trial_index":168,"time_elapsed":2218185,"internal_node_id":"0.0-13.0-0.29","match_key":"a","participant_id":"COGS219_2020_26"},{"rt":null,"stimulus":"<p style=\"font-size: 48px;\">+</p>","key_press":null,"block":1,"trial_type":"html-keyboard-response","trial_index":169,"time_elapsed":2219181,"internal_node_id":"0.0-13.0-1.29","match_key":"a","participant_id":"COGS219_2020_26"},{"rt":587.0949999662116,"stimulus":"Images/whistle_3.png","key_press":65,"stim_onset":1582573548745,"block":1,"match_type":"match","image_category":"whistle","sound_category":"whistle","audio_type":"label","phase":"test","trial_type":"image-keyboard-response","trial_index":170,"time_elapsed":2219769,"internal_node_id":"0.0-13.0-2.29","match_key":"a","participant_id":"COGS219_2020_26","correct":true},{"rt":null,"stimulus":"Sounds/correct.wav","key_press":null,"block":1,"trial_type":"audio-keyboard-response","trial_index":171,"time_elapsed":2221784,"internal_node_id":"0.0-13.0-3.29","match_key":"a","participant_id":"COGS219_2020_26"},{"rt":null,"stimulus":"Sounds/cow_label.wav","key_press":null,"block":1,"trial_type":"audio-keyboard-response","trial_index":172,"time_elapsed":2222805,"internal_node_id":"0.0-13.0-0.30","match_key":"a","participant_id":"COGS219_2020_26"},{"rt":null,"stimulus":"<p style=\"font-size: 48px;\">+</p>","key_press":null,"block":1,"trial_type":"html-keyboard-response","trial_index":173,"time_elapsed":2223797,"internal_node_id":"0.0-13.0-1.30","match_key":"a","participant_id":"COGS219_2020_26"},{"rt":443.0250000441447,"stimulus":"Images/frog_orig.png","key_press":76,"stim_onset":1582573553361,"block":1,"match_type":"non-match","image_category":"frog","sound_category":"cow","audio_type":"label","phase":"test","trial_type":"image-keyboard-response","trial_index":174,"time_elapsed":2224241,"internal_node_id":"0.0-13.0-2.30","match_key":"a","participant_id":"COGS219_2020_26","correct":true},{"rt":null,"stimulus":"Sounds/correct.wav","key_press":null,"block":1,"trial_type":"audio-keyboard-response","trial_index":175,"time_elapsed":2226251,"internal_node_id":"0.0-13.0-3.30","match_key":"a","participant_id":"COGS219_2020_26"},{"rt":null,"stimulus":"Sounds/cow_label.wav","key_press":null,"block":1,"trial_type":"audio-keyboard-response","trial_index":176,"time_elapsed":2227245,"internal_node_id":"0.0-13.0-0.31","match_key":"a","participant_id":"COGS219_2020_26"},{"rt":null,"stimulus":"<p style=\"font-size: 48px;\">+</p>","key_press":null,"block":1,"trial_type":"html-keyboard-response","trial_index":177,"time_elapsed":2228248,"internal_node_id":"0.0-13.0-1.31","match_key":"a","participant_id":"COGS219_2020_26"},{"rt":464.4949999637902,"stimulus":"Images/cow_orig.png","key_press":65,"stim_onset":1582573557812,"block":1,"match_type":"match","image_category":"cow","sound_category":"cow","audio_type":"label","phase":"test","trial_type":"image-keyboard-response","trial_index":178,"time_elapsed":2228713,"internal_node_id":"0.0-13.0-2.31","match_key":"a","participant_id":"COGS219_2020_26","correct":true},{"rt":null,"stimulus":"Sounds/correct.wav","key_press":null,"block":1,"trial_type":"audio-keyboard-response","trial_index":179,"time_elapsed":2230721,"internal_node_id":"0.0-13.0-3.31","match_key":"a","participant_id":"COGS219_2020_26"},{"rt":null,"stimulus":"Sounds/cat_label.wav","key_press":null,"block":1,"trial_type":"audio-keyboard-response","trial_index":180,"time_elapsed":2231565,"internal_node_id":"0.0-13.0-0.32","match_key":"a","participant_id":"COGS219_2020_26"},{"rt":null,"stimulus":"<p style=\"font-size: 48px;\">+</p>","key_press":null,"block":1,"trial_type":"html-keyboard-response","trial_index":181,"time_elapsed":2232564,"internal_node_id":"0.0-13.0-1.32","match_key":"a","participant_id":"COGS219_2020_26"},{"rt":684.015000006184,"stimulus":"Images/rooster_1.png","key_press":76,"stim_onset":1582573562129,"block":1,"match_type":"non-match","image_category":"rooster","sound_category":"cat","audio_type":"label","phase":"test","trial_type":"image-keyboard-response","trial_index":182,"time_elapsed":2233249,"internal_node_id":"0.0-13.0-2.32","match_key":"a","participant_id":"COGS219_2020_26","correct":true},{"rt":null,"stimulus":"Sounds/correct.wav","key_press":null,"block":1,"trial_type":"audio-keyboard-response","trial_index":183,"time_elapsed":2235255,"internal_node_id":"0.0-13.0-3.32","match_key":"a","participant_id":"COGS219_2020_26"},{"rt":null,"stimulus":"Sounds/motorcycle_sound.wav","key_press":null,"block":1,"trial_type":"audio-keyboard-response","trial_index":184,"time_elapsed":2236365,"internal_node_id":"0.0-13.0-0.33","match_key":"a","participant_id":"COGS219_2020_26"},{"rt":null,"stimulus":"<p style=\"font-size: 48px;\">+</p>","key_press":null,"block":1,"trial_type":"html-keyboard-response","trial_index":185,"time_elapsed":2237364,"internal_node_id":"0.0-13.0-1.33","match_key":"a","participant_id":"COGS219_2020_26"},{"rt":460.10500006377697,"stimulus":"Images/frog_3.png","key_press":76,"stim_onset":1582573566929,"block":1,"match_type":"non-match","image_category":"frog","sound_category":"motorcycle","audio_type":"sound","phase":"test","trial_type":"image-keyboard-response","trial_index":186,"time_elapsed":2237826,"internal_node_id":"0.0-13.0-2.33","match_key":"a","participant_id":"COGS219_2020_26","correct":true},{"rt":null,"stimulus":"Sounds/correct.wav","key_press":null,"block":1,"trial_type":"audio-keyboard-response","trial_index":187,"time_elapsed":2239836,"internal_node_id":"0.0-13.0-3.33","match_key":"a","participant_id":"COGS219_2020_26"},{"rt":null,"stimulus":"Sounds/car_label.wav","key_press":null,"block":1,"trial_type":"audio-keyboard-response","trial_index":188,"time_elapsed":2240905,"internal_node_id":"0.0-13.0-0.34","match_key":"a","participant_id":"COGS219_2020_26"},{"rt":null,"stimulus":"<p style=\"font-size: 48px;\">+</p>","key_press":null,"block":1,"trial_type":"html-keyboard-response","trial_index":189,"time_elapsed":2241898,"internal_node_id":"0.0-13.0-1.34","match_key":"a","participant_id":"COGS219_2020_26"},{"rt":470.3000000445172,"stimulus":"Images/car_3.png","key_press":65,"stim_onset":1582573571462,"block":1,"match_type":"match","image_category":"car","sound_category":"car","audio_type":"label","phase":"test","trial_type":"image-keyboard-response","trial_index":190,"time_elapsed":2242369,"internal_node_id":"0.0-13.0-2.34","match_key":"a","participant_id":"COGS219_2020_26","correct":true},{"rt":null,"stimulus":"Sounds/correct.wav","key_press":null,"block":1,"trial_type":"audio-keyboard-response","trial_index":191,"time_elapsed":2244385,"internal_node_id":"0.0-13.0-3.34","match_key":"a","participant_id":"COGS219_2020_26"},{"rt":null,"stimulus":"Sounds/train_label.wav","key_press":null,"block":1,"trial_type":"audio-keyboard-response","trial_index":192,"time_elapsed":2245665,"internal_node_id":"0.0-13.0-0.35","match_key":"a","participant_id":"COGS219_2020_26"},{"rt":null,"stimulus":"<p style=\"font-size: 48px;\">+</p>","key_press":null,"block":1,"trial_type":"html-keyboard-response","trial_index":193,"time_elapsed":2246665,"internal_node_id":"0.0-13.0-1.35","match_key":"a","participant_id":"COGS219_2020_26"},{"rt":447.56999996025115,"stimulus":"Images/train_2.png","key_press":65,"stim_onset":1582573576229,"block":1,"match_type":"match","image_category":"train","sound_category":"train","audio_type":"label","phase":"test","trial_type":"image-keyboard-response","trial_index":194,"time_elapsed":2247113,"internal_node_id":"0.0-13.0-2.35","match_key":"a","participant_id":"COGS219_2020_26","correct":true},{"rt":null,"stimulus":"Sounds/correct.wav","key_press":null,"block":1,"trial_type":"audio-keyboard-response","trial_index":195,"time_elapsed":2249120,"internal_node_id":"0.0-13.0-3.35","match_key":"a","participant_id":"COGS219_2020_26"},{"rt":null,"stimulus":"Sounds/gun_sound.wav","key_press":null,"block":1,"trial_type":"audio-keyboard-response","trial_index":196,"time_elapsed":2249705,"internal_node_id":"0.0-13.0-0.36","match_key":"a","participant_id":"COGS219_2020_26"},{"rt":null,"stimulus":"<p style=\"font-size: 48px;\">+</p>","key_press":null,"block":1,"trial_type":"html-keyboard-response","trial_index":197,"time_elapsed":2250698,"internal_node_id":"0.0-13.0-1.36","match_key":"a","participant_id":"COGS219_2020_26"},{"rt":374.515000032261,"stimulus":"Images/gun_1.png","key_press":65,"stim_onset":1582573580262,"block":1,"match_type":"match","image_category":"gun","sound_category":"gun","audio_type":"sound","phase":"test","trial_type":"image-keyboard-response","trial_index":198,"time_elapsed":2251073,"internal_node_id":"0.0-13.0-2.36","match_key":"a","participant_id":"COGS219_2020_26","correct":true},{"rt":null,"stimulus":"Sounds/correct.wav","key_press":null,"block":1,"trial_type":"audio-keyboard-response","trial_index":199,"time_elapsed":2253084,"internal_node_id":"0.0-13.0-3.36","match_key":"a","participant_id":"COGS219_2020_26"},{"rt":null,"stimulus":"Sounds/rooster_sound.wav","key_press":null,"block":1,"trial_type":"audio-keyboard-response","trial_index":200,"time_elapsed":2253785,"internal_node_id":"0.0-13.0-0.37","match_key":"a","participant_id":"COGS219_2020_26"},{"rt":null,"stimulus":"<p style=\"font-size: 48px;\">+</p>","key_press":null,"block":1,"trial_type":"html-keyboard-response","trial_index":201,"time_elapsed":2254781,"internal_node_id":"0.0-13.0-1.37","match_key":"a","participant_id":"COGS219_2020_26"},{"rt":1162.7399999415502,"stimulus":"Images/rooster_1.png","key_press":65,"stim_onset":1582573584345,"block":1,"match_type":"match","image_category":"rooster","sound_category":"rooster","audio_type":"sound","phase":"test","trial_type":"image-keyboard-response","trial_index":202,"time_elapsed":2255945,"internal_node_id":"0.0-13.0-2.37","match_key":"a","participant_id":"COGS219_2020_26","correct":true},{"rt":null,"stimulus":"Sounds/correct.wav","key_press":null,"block":1,"trial_type":"audio-keyboard-response","trial_index":203,"time_elapsed":2257953,"internal_node_id":"0.0-13.0-3.37","match_key":"a","participant_id":"COGS219_2020_26"},{"rt":null,"stimulus":"Sounds/train_sound.wav","key_press":null,"block":1,"trial_type":"audio-keyboard-response","trial_index":204,"time_elapsed":2259245,"internal_node_id":"0.0-13.0-0.38","match_key":"a","participant_id":"COGS219_2020_26"},{"rt":null,"stimulus":"<p style=\"font-size: 48px;\">+</p>","key_press":null,"block":1,"trial_type":"html-keyboard-response","trial_index":205,"time_elapsed":2260248,"internal_node_id":"0.0-13.0-1.38","match_key":"a","participant_id":"COGS219_2020_26"},{"rt":552.1050000097603,"stimulus":"Images/motorcycle_orig.png","key_press":76,"stim_onset":1582573589812,"block":1,"match_type":"non-match","image_category":"motorcycle","sound_category":"train","audio_type":"sound","phase":"test","trial_type":"image-keyboard-response","trial_index":206,"time_elapsed":2260801,"internal_node_id":"0.0-13.0-2.38","match_key":"a","participant_id":"COGS219_2020_26","correct":true},{"rt":null,"stimulus":"Sounds/correct.wav","key_press":null,"block":1,"trial_type":"audio-keyboard-response","trial_index":207,"time_elapsed":2262804,"internal_node_id":"0.0-13.0-3.38","match_key":"a","participant_id":"COGS219_2020_26"},{"rt":null,"stimulus":"Sounds/cat_label.wav","key_press":null,"block":1,"trial_type":"audio-keyboard-response","trial_index":208,"time_elapsed":2263645,"internal_node_id":"0.0-13.0-0.39","match_key":"a","participant_id":"COGS219_2020_26"},{"rt":null,"stimulus":"<p style=\"font-size: 48px;\">+</p>","key_press":null,"block":1,"trial_type":"html-keyboard-response","trial_index":209,"time_elapsed":2264648,"internal_node_id":"0.0-13.0-1.39","match_key":"a","participant_id":"COGS219_2020_26"},{"rt":336.490000016056,"stimulus":"Images/motorcycle_3.png","key_press":76,"stim_onset":1582573594212,"block":1,"match_type":"non-match","image_category":"motorcycle","sound_category":"cat","audio_type":"label","phase":"test","trial_type":"image-keyboard-response","trial_index":210,"time_elapsed":2264986,"internal_node_id":"0.0-13.0-2.39","match_key":"a","participant_id":"COGS219_2020_26","correct":true},{"rt":null,"stimulus":"Sounds/correct.wav","key_press":null,"block":1,"trial_type":"audio-keyboard-response","trial_index":211,"time_elapsed":2267002,"internal_node_id":"0.0-13.0-3.39","match_key":"a","participant_id":"COGS219_2020_26"},{"rt":null,"stimulus":"Sounds/whistle_sound.wav","key_press":null,"block":1,"trial_type":"audio-keyboard-response","trial_index":212,"time_elapsed":2267705,"internal_node_id":"0.0-13.0-0.40","match_key":"a","participant_id":"COGS219_2020_26"},{"rt":null,"stimulus":"<p style=\"font-size: 48px;\">+</p>","key_press":null,"block":1,"trial_type":"html-keyboard-response","trial_index":213,"time_elapsed":2268698,"internal_node_id":"0.0-13.0-1.40","match_key":"a","participant_id":"COGS219_2020_26"},{"rt":589.9300000164658,"stimulus":"Images/gun_orig.png","key_press":76,"stim_onset":1582573598262,"block":1,"match_type":"non-match","image_category":"gun","sound_category":"whistle","audio_type":"sound","phase":"test","trial_type":"image-keyboard-response","trial_index":214,"time_elapsed":2269289,"internal_node_id":"0.0-13.0-2.40","match_key":"a","participant_id":"COGS219_2020_26","correct":true},{"rt":null,"stimulus":"Sounds/correct.wav","key_press":null,"block":1,"trial_type":"audio-keyboard-response","trial_index":215,"time_elapsed":2271302,"internal_node_id":"0.0-13.0-3.40","match_key":"a","participant_id":"COGS219_2020_26"},{"rt":null,"stimulus":"Sounds/dog_sound.wav","key_press":null,"block":1,"trial_type":"audio-keyboard-response","trial_index":216,"time_elapsed":2272005,"internal_node_id":"0.0-13.0-0.41","match_key":"a","participant_id":"COGS219_2020_26"},{"rt":null,"stimulus":"<p style=\"font-size: 48px;\">+</p>","key_press":null,"block":1,"trial_type":"html-keyboard-response","trial_index":217,"time_elapsed":2272998,"internal_node_id":"0.0-13.0-1.41","match_key":"a","participant_id":"COGS219_2020_26"},{"rt":514.1549999825656,"stimulus":"Images/dog_orig.png","key_press":65,"stim_onset":1582573602563,"block":1,"match_type":"match","image_category":"dog","sound_category":"dog","audio_type":"sound","phase":"test","trial_type":"image-keyboard-response","trial_index":218,"time_elapsed":2273513,"internal_node_id":"0.0-13.0-2.41","match_key":"a","participant_id":"COGS219_2020_26","correct":true},{"rt":null,"stimulus":"Sounds/correct.wav","key_press":null,"block":1,"trial_type":"audio-keyboard-response","trial_index":219,"time_elapsed":2275520,"internal_node_id":"0.0-13.0-3.41","match_key":"a","participant_id":"COGS219_2020_26"},{"rt":null,"stimulus":"Sounds/rooster_sound.wav","key_press":null,"block":1,"trial_type":"audio-keyboard-response","trial_index":220,"time_elapsed":2276205,"internal_node_id":"0.0-13.0-0.42","match_key":"a","participant_id":"COGS219_2020_26"},{"rt":null,"stimulus":"<p style=\"font-size: 48px;\">+</p>","key_press":null,"block":1,"trial_type":"html-keyboard-response","trial_index":221,"time_elapsed":2277198,"internal_node_id":"0.0-13.0-1.42","match_key":"a","participant_id":"COGS219_2020_26"},{"rt":802.1500000031665,"stimulus":"Images/rooster_3.png","key_press":65,"stim_onset":1582573606762,"block":1,"match_type":"match","image_category":"rooster","sound_category":"rooster","audio_type":"sound","phase":"test","trial_type":"image-keyboard-response","trial_index":222,"time_elapsed":2278001,"internal_node_id":"0.0-13.0-2.42","match_key":"a","participant_id":"COGS219_2020_26","correct":true},{"rt":null,"stimulus":"Sounds/correct.wav","key_press":null,"block":1,"trial_type":"audio-keyboard-response","trial_index":223,"time_elapsed":2280007,"internal_node_id":"0.0-13.0-3.42","match_key":"a","participant_id":"COGS219_2020_26"},{"rt":null,"stimulus":"Sounds/whistle_sound.wav","key_press":null,"block":1,"trial_type":"audio-keyboard-response","trial_index":224,"time_elapsed":2280685,"internal_node_id":"0.0-13.0-0.43","match_key":"a","participant_id":"COGS219_2020_26"},{"rt":null,"stimulus":"<p style=\"font-size: 48px;\">+</p>","key_press":null,"block":1,"trial_type":"html-keyboard-response","trial_index":225,"time_elapsed":2281682,"internal_node_id":"0.0-13.0-1.43","match_key":"a","participant_id":"COGS219_2020_26"},{"rt":566.675000009127,"stimulus":"Images/whistle_orig.png","key_press":65,"stim_onset":1582573611246,"block":1,"match_type":"match","image_category":"whistle","sound_category":"whistle","audio_type":"sound","phase":"test","trial_type":"image-keyboard-response","trial_index":226,"time_elapsed":2282249,"internal_node_id":"0.0-13.0-2.43","match_key":"a","participant_id":"COGS219_2020_26","correct":true},{"rt":null,"stimulus":"Sounds/correct.wav","key_press":null,"block":1,"trial_type":"audio-keyboard-response","trial_index":227,"time_elapsed":2284254,"internal_node_id":"0.0-13.0-3.43","match_key":"a","participant_id":"COGS219_2020_26"},{"rt":null,"stimulus":"Sounds/car_sound.wav","key_press":null,"block":1,"trial_type":"audio-keyboard-response","trial_index":228,"time_elapsed":2285325,"internal_node_id":"0.0-13.0-0.44","match_key":"a","participant_id":"COGS219_2020_26"},{"rt":null,"stimulus":"<p style=\"font-size: 48px;\">+</p>","key_press":null,"block":1,"trial_type":"html-keyboard-response","trial_index":229,"time_elapsed":2286315,"internal_node_id":"0.0-13.0-1.44","match_key":"a","participant_id":"COGS219_2020_26"},{"rt":693.265000008978,"stimulus":"Images/whistle_3.png","key_press":76,"stim_onset":1582573615879,"block":1,"match_type":"non-match","image_category":"whistle","sound_category":"car","audio_type":"sound","phase":"test","trial_type":"image-keyboard-response","trial_index":230,"time_elapsed":2287009,"internal_node_id":"0.0-13.0-2.44","match_key":"a","participant_id":"COGS219_2020_26","correct":true},{"rt":null,"stimulus":"Sounds/correct.wav","key_press":null,"block":1,"trial_type":"audio-keyboard-response","trial_index":231,"time_elapsed":2289022,"internal_node_id":"0.0-13.0-3.44","match_key":"a","participant_id":"COGS219_2020_26"},{"rt":null,"stimulus":"Sounds/whistle_sound.wav","key_press":null,"block":1,"trial_type":"audio-keyboard-response","trial_index":232,"time_elapsed":2289685,"internal_node_id":"0.0-13.0-0.45","match_key":"a","participant_id":"COGS219_2020_26"},{"rt":null,"stimulus":"<p style=\"font-size: 48px;\">+</p>","key_press":null,"block":1,"trial_type":"html-keyboard-response","trial_index":233,"time_elapsed":2290682,"internal_node_id":"0.0-13.0-1.45","match_key":"a","participant_id":"COGS219_2020_26"},{"rt":566.8300000252202,"stimulus":"Images/whistle_2.png","key_press":65,"stim_onset":1582573620246,"block":1,"match_type":"match","image_category":"whistle","sound_category":"whistle","audio_type":"sound","phase":"test","trial_type":"image-keyboard-response","trial_index":234,"time_elapsed":2291250,"internal_node_id":"0.0-13.0-2.45","match_key":"a","participant_id":"COGS219_2020_26","correct":true},{"rt":null,"stimulus":"Sounds/correct.wav","key_press":null,"block":1,"trial_type":"audio-keyboard-response","trial_index":235,"time_elapsed":2293256,"internal_node_id":"0.0-13.0-3.45","match_key":"a","participant_id":"COGS219_2020_26"},{"rt":null,"stimulus":"Sounds/dog_label.wav","key_press":null,"block":1,"trial_type":"audio-keyboard-response","trial_index":236,"time_elapsed":2293905,"internal_node_id":"0.0-13.0-0.46","match_key":"a","participant_id":"COGS219_2020_26"},{"rt":null,"stimulus":"<p style=\"font-size: 48px;\">+</p>","key_press":null,"block":1,"trial_type":"html-keyboard-response","trial_index":237,"time_elapsed":2294899,"internal_node_id":"0.0-13.0-1.46","match_key":"a","participant_id":"COGS219_2020_26"},{"rt":413.79000002052635,"stimulus":"Images/dog_1.png","key_press":65,"stim_onset":1582573624463,"block":1,"match_type":"match","image_category":"dog","sound_category":"dog","audio_type":"label","phase":"test","trial_type":"image-keyboard-response","trial_index":238,"time_elapsed":2295314,"internal_node_id":"0.0-13.0-2.46","match_key":"a","participant_id":"COGS219_2020_26","correct":true},{"rt":null,"stimulus":"Sounds/correct.wav","key_press":null,"block":1,"trial_type":"audio-keyboard-response","trial_index":239,"time_elapsed":2297322,"internal_node_id":"0.0-13.0-3.46","match_key":"a","participant_id":"COGS219_2020_26"},{"rt":null,"stimulus":"Sounds/cat_label.wav","key_press":null,"block":1,"trial_type":"audio-keyboard-response","trial_index":240,"time_elapsed":2298165,"internal_node_id":"0.0-13.0-0.47","match_key":"a","participant_id":"COGS219_2020_26"},{"rt":null,"stimulus":"<p style=\"font-size: 48px;\">+</p>","key_press":null,"block":1,"trial_type":"html-keyboard-response","trial_index":241,"time_elapsed":2299166,"internal_node_id":"0.0-13.0-1.47","match_key":"a","participant_id":"COGS219_2020_26"},{"rt":449.44500003475696,"stimulus":"Images/cat_2.png","key_press":65,"stim_onset":1582573628730,"block":1,"match_type":"match","image_category":"cat","sound_category":"cat","audio_type":"label","phase":"test","trial_type":"image-keyboard-response","trial_index":242,"time_elapsed":2299618,"internal_node_id":"0.0-13.0-2.47","match_key":"a","participant_id":"COGS219_2020_26","correct":true},{"rt":null,"stimulus":"Sounds/correct.wav","key_press":null,"block":1,"trial_type":"audio-keyboard-response","trial_index":243,"time_elapsed":2301620,"internal_node_id":"0.0-13.0-3.47","match_key":"a","participant_id":"COGS219_2020_26"},{"rt":null,"stimulus":"Sounds/train_label.wav","key_press":null,"block":1,"trial_type":"audio-keyboard-response","trial_index":244,"time_elapsed":2302905,"internal_node_id":"0.0-13.0-0.48","match_key":"a","participant_id":"COGS219_2020_26"},{"rt":null,"stimulus":"<p style=\"font-size: 48px;\">+</p>","key_press":null,"block":1,"trial_type":"html-keyboard-response","trial_index":245,"time_elapsed":2303899,"internal_node_id":"0.0-13.0-1.48","match_key":"a","participant_id":"COGS219_2020_26"},{"rt":414.0050000278279,"stimulus":"Images/train_3.png","key_press":65,"stim_onset":1582573633463,"block":1,"match_type":"match","image_category":"train","sound_category":"train","audio_type":"label","phase":"test","trial_type":"image-keyboard-response","trial_index":246,"time_elapsed":2304314,"internal_node_id":"0.0-13.0-2.48","match_key":"a","participant_id":"COGS219_2020_26","correct":true},{"rt":null,"stimulus":"Sounds/correct.wav","key_press":null,"block":1,"trial_type":"audio-keyboard-response","trial_index":247,"time_elapsed":2306324,"internal_node_id":"0.0-13.0-3.48","match_key":"a","participant_id":"COGS219_2020_26"},{"rt":null,"stimulus":"Sounds/car_sound.wav","key_press":null,"block":1,"trial_type":"audio-keyboard-response","trial_index":248,"time_elapsed":2307405,"internal_node_id":"0.0-13.0-0.49","match_key":"a","participant_id":"COGS219_2020_26"},{"rt":null,"stimulus":"<p style=\"font-size: 48px;\">+</p>","key_press":null,"block":1,"trial_type":"html-keyboard-response","trial_index":249,"time_elapsed":2308399,"internal_node_id":"0.0-13.0-1.49","match_key":"a","participant_id":"COGS219_2020_26"},{"rt":1009.7749999258667,"stimulus":"Images/motorcycle_1.png","key_press":76,"stim_onset":1582573637963,"block":1,"match_type":"non-match","image_category":"motorcycle","sound_category":"car","audio_type":"sound","phase":"test","trial_type":"image-keyboard-response","trial_index":250,"time_elapsed":2309410,"internal_node_id":"0.0-13.0-2.49","match_key":"a","participant_id":"COGS219_2020_26","correct":true},{"rt":null,"stimulus":"Sounds/correct.wav","key_press":null,"block":1,"trial_type":"audio-keyboard-response","trial_index":251,"time_elapsed":2311419,"internal_node_id":"0.0-13.0-3.49","match_key":"a","participant_id":"COGS219_2020_26"},{"rt":null,"stimulus":"Sounds/car_sound.wav","key_press":null,"block":1,"trial_type":"audio-keyboard-response","trial_index":252,"time_elapsed":2312465,"internal_node_id":"0.0-13.0-0.50","match_key":"a","participant_id":"COGS219_2020_26"},{"rt":null,"stimulus":"<p style=\"font-size: 48px;\">+</p>","key_press":null,"block":1,"trial_type":"html-keyboard-response","trial_index":253,"time_elapsed":2313466,"internal_node_id":"0.0-13.0-1.50","match_key":"a","participant_id":"COGS219_2020_26"},{"rt":471.019999939017,"stimulus":"Images/frog_1.png","key_press":76,"stim_onset":1582573643030,"block":1,"match_type":"non-match","image_category":"frog","sound_category":"car","audio_type":"sound","phase":"test","trial_type":"image-keyboard-response","trial_index":254,"time_elapsed":2313938,"internal_node_id":"0.0-13.0-2.50","match_key":"a","participant_id":"COGS219_2020_26","correct":true},{"rt":null,"stimulus":"Sounds/correct.wav","key_press":null,"block":1,"trial_type":"audio-keyboard-response","trial_index":255,"time_elapsed":2315953,"internal_node_id":"0.0-13.0-3.50","match_key":"a","participant_id":"COGS219_2020_26"},{"rt":null,"stimulus":"Sounds/frog_label.wav","key_press":null,"block":1,"trial_type":"audio-keyboard-response","trial_index":256,"time_elapsed":2316845,"internal_node_id":"0.0-13.0-0.51","match_key":"a","participant_id":"COGS219_2020_26"},{"rt":null,"stimulus":"<p style=\"font-size: 48px;\">+</p>","key_press":null,"block":1,"trial_type":"html-keyboard-response","trial_index":257,"time_elapsed":2317849,"internal_node_id":"0.0-13.0-1.51","match_key":"a","participant_id":"COGS219_2020_26"},{"rt":399.06999992672354,"stimulus":"Images/car_cartoon.png","key_press":76,"stim_onset":1582573647413,"block":1,"match_type":"non-match","image_category":"car","sound_category":"frog","audio_type":"label","phase":"test","trial_type":"image-keyboard-response","trial_index":258,"time_elapsed":2318250,"internal_node_id":"0.0-13.0-2.51","match_key":"a","participant_id":"COGS219_2020_26","correct":true},{"rt":null,"stimulus":"Sounds/correct.wav","key_press":null,"block":1,"trial_type":"audio-keyboard-response","trial_index":259,"time_elapsed":2320254,"internal_node_id":"0.0-13.0-3.51","match_key":"a","participant_id":"COGS219_2020_26"},{"rt":null,"stimulus":"Sounds/frog_label.wav","key_press":null,"block":1,"trial_type":"audio-keyboard-response","trial_index":260,"time_elapsed":2321125,"internal_node_id":"0.0-13.0-0.52","match_key":"a","participant_id":"COGS219_2020_26"},{"rt":null,"stimulus":"<p style=\"font-size: 48px;\">+</p>","key_press":null,"block":1,"trial_type":"html-keyboard-response","trial_index":261,"time_elapsed":2322116,"internal_node_id":"0.0-13.0-1.52","match_key":"a","participant_id":"COGS219_2020_26"},{"rt":316.664999932982,"stimulus":"Images/frog_orig.png","key_press":65,"stim_onset":1582573651680,"block":1,"match_type":"match","image_category":"frog","sound_category":"frog","audio_type":"label","phase":"test","trial_type":"image-keyboard-response","trial_index":262,"time_elapsed":2322434,"internal_node_id":"0.0-13.0-2.52","match_key":"a","participant_id":"COGS219_2020_26","correct":true},{"rt":null,"stimulus":"Sounds/correct.wav","key_press":null,"block":1,"trial_type":"audio-keyboard-response","trial_index":263,"time_elapsed":2324438,"internal_node_id":"0.0-13.0-3.52","match_key":"a","participant_id":"COGS219_2020_26"},{"rt":null,"stimulus":"Sounds/rooster_label.wav","key_press":null,"block":1,"trial_type":"audio-keyboard-response","trial_index":264,"time_elapsed":2325145,"internal_node_id":"0.0-13.0-0.53","match_key":"a","participant_id":"COGS219_2020_26"},{"rt":null,"stimulus":"<p style=\"font-size: 48px;\">+</p>","key_press":null,"block":1,"trial_type":"html-keyboard-response","trial_index":265,"time_elapsed":2326149,"internal_node_id":"0.0-13.0-1.53","match_key":"a","participant_id":"COGS219_2020_26"},{"rt":507.52500002272427,"stimulus":"Images/rooster_2.png","key_press":65,"stim_onset":1582573655713,"block":1,"match_type":"match","image_category":"rooster","sound_category":"rooster","audio_type":"label","phase":"test","trial_type":"image-keyboard-response","trial_index":266,"time_elapsed":2326658,"internal_node_id":"0.0-13.0-2.53","match_key":"a","participant_id":"COGS219_2020_26","correct":true},{"rt":null,"stimulus":"Sounds/correct.wav","key_press":null,"block":1,"trial_type":"audio-keyboard-response","trial_index":267,"time_elapsed":2328670,"internal_node_id":"0.0-13.0-3.53","match_key":"a","participant_id":"COGS219_2020_26"},{"rt":null,"stimulus":"Sounds/whistle_sound.wav","key_press":null,"block":1,"trial_type":"audio-keyboard-response","trial_index":268,"time_elapsed":2329365,"internal_node_id":"0.0-13.0-0.54","match_key":"a","participant_id":"COGS219_2020_26"},{"rt":null,"stimulus":"<p style=\"font-size: 48px;\">+</p>","key_press":null,"block":1,"trial_type":"html-keyboard-response","trial_index":269,"time_elapsed":2330366,"internal_node_id":"0.0-13.0-1.54","match_key":"a","participant_id":"COGS219_2020_26"},{"rt":611.0200000694022,"stimulus":"Images/whistle_1.png","key_press":65,"stim_onset":1582573659930,"block":1,"match_type":"match","image_category":"whistle","sound_category":"whistle","audio_type":"sound","phase":"test","trial_type":"image-keyboard-response","trial_index":270,"time_elapsed":2330978,"internal_node_id":"0.0-13.0-2.54","match_key":"a","participant_id":"COGS219_2020_26","correct":true},{"rt":null,"stimulus":"Sounds/correct.wav","key_press":null,"block":1,"trial_type":"audio-keyboard-response","trial_index":271,"time_elapsed":2332987,"internal_node_id":"0.0-13.0-3.54","match_key":"a","participant_id":"COGS219_2020_26"},{"rt":null,"stimulus":"Sounds/cat_sound.wav","key_press":null,"block":1,"trial_type":"audio-keyboard-response","trial_index":272,"time_elapsed":2333825,"internal_node_id":"0.0-13.0-0.55","match_key":"a","participant_id":"COGS219_2020_26"},{"rt":null,"stimulus":"<p style=\"font-size: 48px;\">+</p>","key_press":null,"block":1,"trial_type":"html-keyboard-response","trial_index":273,"time_elapsed":2334816,"internal_node_id":"0.0-13.0-1.55","match_key":"a","participant_id":"COGS219_2020_26"},{"rt":424.67500001657754,"stimulus":"Images/car_3.png","key_press":76,"stim_onset":1582573664380,"block":1,"match_type":"non-match","image_category":"car","sound_category":"cat","audio_type":"sound","phase":"test","trial_type":"image-keyboard-response","trial_index":274,"time_elapsed":2335242,"internal_node_id":"0.0-13.0-2.55","match_key":"a","participant_id":"COGS219_2020_26","correct":true},{"rt":null,"stimulus":"Sounds/correct.wav","key_press":null,"block":1,"trial_type":"audio-keyboard-response","trial_index":275,"time_elapsed":2337252,"internal_node_id":"0.0-13.0-3.55","match_key":"a","participant_id":"COGS219_2020_26"},{"rt":null,"stimulus":"Sounds/rooster_label.wav","key_press":null,"block":1,"trial_type":"audio-keyboard-response","trial_index":276,"time_elapsed":2337926,"internal_node_id":"0.0-13.0-0.56","match_key":"a","participant_id":"COGS219_2020_26"},{"rt":null,"stimulus":"<p style=\"font-size: 48px;\">+</p>","key_press":null,"block":1,"trial_type":"html-keyboard-response","trial_index":277,"time_elapsed":2338916,"internal_node_id":"0.0-13.0-1.56","match_key":"a","participant_id":"COGS219_2020_26"},{"rt":668.6549999285489,"stimulus":"Images/cat_cartoon.png","key_press":76,"stim_onset":1582573668480,"block":1,"match_type":"non-match","image_category":"cat","sound_category":"rooster","audio_type":"label","phase":"test","trial_type":"image-keyboard-response","trial_index":278,"time_elapsed":2339586,"internal_node_id":"0.0-13.0-2.56","match_key":"a","participant_id":"COGS219_2020_26","correct":true},{"rt":null,"stimulus":"Sounds/correct.wav","key_press":null,"block":1,"trial_type":"audio-keyboard-response","trial_index":279,"time_elapsed":2341589,"internal_node_id":"0.0-13.0-3.56","match_key":"a","participant_id":"COGS219_2020_26"},{"rt":null,"stimulus":"Sounds/gun_label.wav","key_press":null,"block":1,"trial_type":"audio-keyboard-response","trial_index":280,"time_elapsed":2342165,"internal_node_id":"0.0-13.0-0.57","match_key":"a","participant_id":"COGS219_2020_26"},{"rt":null,"stimulus":"<p style=\"font-size: 48px;\">+</p>","key_press":null,"block":1,"trial_type":"html-keyboard-response","trial_index":281,"time_elapsed":2343166,"internal_node_id":"0.0-13.0-1.57","match_key":"a","participant_id":"COGS219_2020_26"},{"rt":514.435000019148,"stimulus":"Images/gun_3.png","key_press":65,"stim_onset":1582573672730,"block":1,"match_type":"match","image_category":"gun","sound_category":"gun","audio_type":"label","phase":"test","trial_type":"image-keyboard-response","trial_index":282,"time_elapsed":2343682,"internal_node_id":"0.0-13.0-2.57","match_key":"a","participant_id":"COGS219_2020_26","correct":true},{"rt":null,"stimulus":"Sounds/correct.wav","key_press":null,"block":1,"trial_type":"audio-keyboard-response","trial_index":283,"time_elapsed":2345689,"internal_node_id":"0.0-13.0-3.57","match_key":"a","participant_id":"COGS219_2020_26"},{"rt":null,"stimulus":"Sounds/car_label.wav","key_press":null,"block":1,"trial_type":"audio-keyboard-response","trial_index":284,"time_elapsed":2346765,"internal_node_id":"0.0-13.0-0.58","match_key":"a","participant_id":"COGS219_2020_26"},{"rt":null,"stimulus":"<p style=\"font-size: 48px;\">+</p>","key_press":null,"block":1,"trial_type":"html-keyboard-response","trial_index":285,"time_elapsed":2347766,"internal_node_id":"0.0-13.0-1.58","match_key":"a","participant_id":"COGS219_2020_26"},{"rt":482.62999998405576,"stimulus":"Images/car_2.png","key_press":65,"stim_onset":1582573677330,"block":1,"match_type":"match","image_category":"car","sound_category":"car","audio_type":"label","phase":"test","trial_type":"image-keyboard-response","trial_index":286,"time_elapsed":2348250,"internal_node_id":"0.0-13.0-2.58","match_key":"a","participant_id":"COGS219_2020_26","correct":true},{"rt":null,"stimulus":"Sounds/correct.wav","key_press":null,"block":1,"trial_type":"audio-keyboard-response","trial_index":287,"time_elapsed":2350255,"internal_node_id":"0.0-13.0-3.58","match_key":"a","participant_id":"COGS219_2020_26"},{"rt":null,"stimulus":"Sounds/rooster_sound.wav","key_press":null,"block":1,"trial_type":"audio-keyboard-response","trial_index":288,"time_elapsed":2350945,"internal_node_id":"0.0-13.0-0.59","match_key":"a","participant_id":"COGS219_2020_26"},{"rt":null,"stimulus":"<p style=\"font-size: 48px;\">+</p>","key_press":null,"block":1,"trial_type":"html-keyboard-response","trial_index":289,"time_elapsed":2351950,"internal_node_id":"0.0-13.0-1.59","match_key":"a","participant_id":"COGS219_2020_26"},{"rt":458.8950000470504,"stimulus":"Images/dog_3.png","key_press":76,"stim_onset":1582573681514,"block":1,"match_type":"non-match","image_category":"dog","sound_category":"rooster","audio_type":"sound","phase":"test","trial_type":"image-keyboard-response","trial_index":290,"time_elapsed":2352410,"internal_node_id":"0.0-13.0-2.59","match_key":"a","participant_id":"COGS219_2020_26","correct":true},{"rt":null,"stimulus":"Sounds/correct.wav","key_press":null,"block":1,"trial_type":"audio-keyboard-response","trial_index":291,"time_elapsed":2354420,"internal_node_id":"0.0-13.0-3.59","match_key":"a","participant_id":"COGS219_2020_26"},{"rt":null,"stimulus":"Sounds/rooster_label.wav","key_press":null,"block":1,"trial_type":"audio-keyboard-response","trial_index":292,"time_elapsed":2355086,"internal_node_id":"0.0-13.0-0.60","match_key":"a","participant_id":"COGS219_2020_26"},{"rt":null,"stimulus":"<p style=\"font-size: 48px;\">+</p>","key_press":null,"block":1,"trial_type":"html-keyboard-response","trial_index":293,"time_elapsed":2356083,"internal_node_id":"0.0-13.0-1.60","match_key":"a","participant_id":"COGS219_2020_26"},{"rt":630.0300000002608,"stimulus":"Images/rooster_cartoon.png","key_press":65,"stim_onset":1582573685647,"block":1,"match_type":"match","image_category":"rooster","sound_category":"rooster","audio_type":"label","phase":"test","trial_type":"image-keyboard-response","trial_index":294,"time_elapsed":2356714,"internal_node_id":"0.0-13.0-2.60","match_key":"a","participant_id":"COGS219_2020_26","correct":true},{"rt":null,"stimulus":"Sounds/correct.wav","key_press":null,"block":1,"trial_type":"audio-keyboard-response","trial_index":295,"time_elapsed":2358722,"internal_node_id":"0.0-13.0-3.60","match_key":"a","participant_id":"COGS219_2020_26"},{"rt":null,"stimulus":"Sounds/dog_sound.wav","key_press":null,"block":1,"trial_type":"audio-keyboard-response","trial_index":296,"time_elapsed":2359426,"internal_node_id":"0.0-13.0-0.61","match_key":"a","participant_id":"COGS219_2020_26"},{"rt":null,"stimulus":"<p style=\"font-size: 48px;\">+</p>","key_press":null,"block":1,"trial_type":"html-keyboard-response","trial_index":297,"time_elapsed":2360416,"internal_node_id":"0.0-13.0-1.61","match_key":"a","participant_id":"COGS219_2020_26"},{"rt":408.38000003714114,"stimulus":"Images/dog_2.png","key_press":65,"stim_onset":1582573689980,"block":1,"match_type":"match","image_category":"dog","sound_category":"dog","audio_type":"sound","phase":"test","trial_type":"image-keyboard-response","trial_index":298,"time_elapsed":2360826,"internal_node_id":"0.0-13.0-2.61","match_key":"a","participant_id":"COGS219_2020_26","correct":true},{"rt":null,"stimulus":"Sounds/correct.wav","key_press":null,"block":1,"trial_type":"audio-keyboard-response","trial_index":299,"time_elapsed":2362837,"internal_node_id":"0.0-13.0-3.61","match_key":"a","participant_id":"COGS219_2020_26"},{"rt":null,"stimulus":"Sounds/dog_label.wav","key_press":null,"block":1,"trial_type":"audio-keyboard-response","trial_index":300,"time_elapsed":2363506,"internal_node_id":"0.0-13.0-0.62","match_key":"a","participant_id":"COGS219_2020_26"},{"rt":null,"stimulus":"<p style=\"font-size: 48px;\">+</p>","key_press":null,"block":1,"trial_type":"html-keyboard-response","trial_index":301,"time_elapsed":2364500,"internal_node_id":"0.0-13.0-1.62","match_key":"a","participant_id":"COGS219_2020_26"},{"rt":396.9400000059977,"stimulus":"Images/car_1.png","key_press":76,"stim_onset":1582573694064,"block":1,"match_type":"non-match","image_category":"car","sound_category":"dog","audio_type":"label","phase":"test","trial_type":"image-keyboard-response","trial_index":302,"time_elapsed":2364898,"internal_node_id":"0.0-13.0-2.62","match_key":"a","participant_id":"COGS219_2020_26","correct":true},{"rt":null,"stimulus":"Sounds/correct.wav","key_press":null,"block":1,"trial_type":"audio-keyboard-response","trial_index":303,"time_elapsed":2366906,"internal_node_id":"0.0-13.0-3.62","match_key":"a","participant_id":"COGS219_2020_26"},{"rt":null,"stimulus":"Sounds/cow_sound.wav","key_press":null,"block":1,"trial_type":"audio-keyboard-response","trial_index":304,"time_elapsed":2367926,"internal_node_id":"0.0-13.0-0.63","match_key":"a","participant_id":"COGS219_2020_26"},{"rt":null,"stimulus":"<p style=\"font-size: 48px;\">+</p>","key_press":null,"block":1,"trial_type":"html-keyboard-response","trial_index":305,"time_elapsed":2368917,"internal_node_id":"0.0-13.0-1.63","match_key":"a","participant_id":"COGS219_2020_26"},{"rt":532.3649999918416,"stimulus":"Images/cow_1.png","key_press":65,"stim_onset":1582573698481,"block":1,"match_type":"match","image_category":"cow","sound_category":"cow","audio_type":"sound","phase":"test","trial_type":"image-keyboard-response","trial_index":306,"time_elapsed":2369450,"internal_node_id":"0.0-13.0-2.63","match_key":"a","participant_id":"COGS219_2020_26","correct":true},{"rt":null,"stimulus":"Sounds/correct.wav","key_press":null,"block":1,"trial_type":"audio-keyboard-response","trial_index":307,"time_elapsed":2371457,"internal_node_id":"0.0-13.0-3.63","match_key":"a","participant_id":"COGS219_2020_26"},{"rt":null,"stimulus":"Sounds/frog_label.wav","key_press":null,"block":1,"trial_type":"audio-keyboard-response","trial_index":308,"time_elapsed":2372346,"internal_node_id":"0.0-13.0-0.64","match_key":"a","participant_id":"COGS219_2020_26"},{"rt":null,"stimulus":"<p style=\"font-size: 48px;\">+</p>","key_press":null,"block":1,"trial_type":"html-keyboard-response","trial_index":309,"time_elapsed":2373350,"internal_node_id":"0.0-13.0-1.64","match_key":"a","participant_id":"COGS219_2020_26"},{"rt":610.8999999705702,"stimulus":"Images/train_orig.png","key_press":76,"stim_onset":1582573702914,"block":1,"match_type":"non-match","image_category":"train","sound_category":"frog","audio_type":"label","phase":"test","trial_type":"image-keyboard-response","trial_index":310,"time_elapsed":2373962,"internal_node_id":"0.0-13.0-2.64","match_key":"a","participant_id":"COGS219_2020_26","correct":true},{"rt":null,"stimulus":"Sounds/correct.wav","key_press":null,"block":1,"trial_type":"audio-keyboard-response","trial_index":311,"time_elapsed":2375972,"internal_node_id":"0.0-13.0-3.64","match_key":"a","participant_id":"COGS219_2020_26"},{"rt":null,"stimulus":"Sounds/gun_label.wav","key_press":null,"block":1,"trial_type":"audio-keyboard-response","trial_index":312,"time_elapsed":2376546,"internal_node_id":"0.0-13.0-0.65","match_key":"a","participant_id":"COGS219_2020_26"},{"rt":null,"stimulus":"<p style=\"font-size: 48px;\">+</p>","key_press":null,"block":1,"trial_type":"html-keyboard-response","trial_index":313,"time_elapsed":2377550,"internal_node_id":"0.0-13.0-1.65","match_key":"a","participant_id":"COGS219_2020_26"},{"rt":402.1649999776855,"stimulus":"Images/gun_orig.png","key_press":65,"stim_onset":1582573707114,"block":1,"match_type":"match","image_category":"gun","sound_category":"gun","audio_type":"label","phase":"test","trial_type":"image-keyboard-response","trial_index":314,"time_elapsed":2377954,"internal_node_id":"0.0-13.0-2.65","match_key":"a","participant_id":"COGS219_2020_26","correct":true},{"rt":null,"stimulus":"Sounds/correct.wav","key_press":null,"block":1,"trial_type":"audio-keyboard-response","trial_index":315,"time_elapsed":2379971,"internal_node_id":"0.0-13.0-3.65","match_key":"a","participant_id":"COGS219_2020_26"},{"rt":null,"stimulus":"Sounds/train_sound.wav","key_press":null,"block":1,"trial_type":"audio-keyboard-response","trial_index":316,"time_elapsed":2381266,"internal_node_id":"0.0-13.0-0.66","match_key":"a","participant_id":"COGS219_2020_26"},{"rt":null,"stimulus":"<p style=\"font-size: 48px;\">+</p>","key_press":null,"block":1,"trial_type":"html-keyboard-response","trial_index":317,"time_elapsed":2382283,"internal_node_id":"0.0-13.0-1.66","match_key":"a","participant_id":"COGS219_2020_26"},{"rt":589.6199999842793,"stimulus":"Images/train_orig.png","key_press":65,"stim_onset":1582573711847,"block":1,"match_type":"match","image_category":"train","sound_category":"train","audio_type":"sound","phase":"test","trial_type":"image-keyboard-response","trial_index":318,"time_elapsed":2382874,"internal_node_id":"0.0-13.0-2.66","match_key":"a","participant_id":"COGS219_2020_26","correct":true},{"rt":null,"stimulus":"Sounds/correct.wav","key_press":null,"block":1,"trial_type":"audio-keyboard-response","trial_index":319,"time_elapsed":2384889,"internal_node_id":"0.0-13.0-3.66","match_key":"a","participant_id":"COGS219_2020_26"},{"rt":null,"stimulus":"Sounds/frog_label.wav","key_press":null,"block":1,"trial_type":"audio-keyboard-response","trial_index":320,"time_elapsed":2385766,"internal_node_id":"0.0-13.0-0.67","match_key":"a","participant_id":"COGS219_2020_26"},{"rt":null,"stimulus":"<p style=\"font-size: 48px;\">+</p>","key_press":null,"block":1,"trial_type":"html-keyboard-response","trial_index":321,"time_elapsed":2386783,"internal_node_id":"0.0-13.0-1.67","match_key":"a","participant_id":"COGS219_2020_26"},{"rt":449.3349998956546,"stimulus":"Images/gun_1.png","key_press":76,"stim_onset":1582573716347,"block":1,"match_type":"non-match","image_category":"gun","sound_category":"frog","audio_type":"label","phase":"test","trial_type":"image-keyboard-response","trial_index":322,"time_elapsed":2387234,"internal_node_id":"0.0-13.0-2.67","match_key":"a","participant_id":"COGS219_2020_26","correct":true},{"rt":null,"stimulus":"Sounds/correct.wav","key_press":null,"block":1,"trial_type":"audio-keyboard-response","trial_index":323,"time_elapsed":2389241,"internal_node_id":"0.0-13.0-3.67","match_key":"a","participant_id":"COGS219_2020_26"},{"rt":null,"stimulus":"Sounds/whistle_sound.wav","key_press":null,"block":1,"trial_type":"audio-keyboard-response","trial_index":324,"time_elapsed":2389946,"internal_node_id":"0.0-13.0-0.68","match_key":"a","participant_id":"COGS219_2020_26"},{"rt":null,"stimulus":"<p style=\"font-size: 48px;\">+</p>","key_press":null,"block":1,"trial_type":"html-keyboard-response","trial_index":325,"time_elapsed":2390950,"internal_node_id":"0.0-13.0-1.68","match_key":"a","participant_id":"COGS219_2020_26"},{"rt":562.6400000182912,"stimulus":"Images/motorcycle_2.png","key_press":76,"stim_onset":1582573720514,"block":1,"match_type":"non-match","image_category":"motorcycle","sound_category":"whistle","audio_type":"sound","phase":"test","trial_type":"image-keyboard-response","trial_index":326,"time_elapsed":2391514,"internal_node_id":"0.0-13.0-2.68","match_key":"a","participant_id":"COGS219_2020_26","correct":true},{"rt":null,"stimulus":"Sounds/correct.wav","key_press":null,"block":1,"trial_type":"audio-keyboard-response","trial_index":327,"time_elapsed":2393522,"internal_node_id":"0.0-13.0-3.68","match_key":"a","participant_id":"COGS219_2020_26"},{"rt":null,"stimulus":"Sounds/cat_sound.wav","key_press":null,"block":1,"trial_type":"audio-keyboard-response","trial_index":328,"time_elapsed":2394366,"internal_node_id":"0.0-13.0-0.69","match_key":"a","participant_id":"COGS219_2020_26"},{"rt":null,"stimulus":"<p style=\"font-size: 48px;\">+</p>","key_press":null,"block":1,"trial_type":"html-keyboard-response","trial_index":329,"time_elapsed":2395383,"internal_node_id":"0.0-13.0-1.69","match_key":"a","participant_id":"COGS219_2020_26"},{"rt":441.67500000912696,"stimulus":"Images/cow_1.png","key_press":76,"stim_onset":1582573724947,"block":1,"match_type":"non-match","image_category":"cow","sound_category":"cat","audio_type":"sound","phase":"test","trial_type":"image-keyboard-response","trial_index":330,"time_elapsed":2395826,"internal_node_id":"0.0-13.0-2.69","match_key":"a","participant_id":"COGS219_2020_26","correct":true},{"rt":null,"stimulus":"Sounds/correct.wav","key_press":null,"block":1,"trial_type":"audio-keyboard-response","trial_index":331,"time_elapsed":2397837,"internal_node_id":"0.0-13.0-3.69","match_key":"a","participant_id":"COGS219_2020_26"},{"rt":null,"stimulus":"Sounds/dog_label.wav","key_press":null,"block":1,"trial_type":"audio-keyboard-response","trial_index":332,"time_elapsed":2398486,"internal_node_id":"0.0-13.0-0.70","match_key":"a","participant_id":"COGS219_2020_26"},{"rt":null,"stimulus":"<p style=\"font-size: 48px;\">+</p>","key_press":null,"block":1,"trial_type":"html-keyboard-response","trial_index":333,"time_elapsed":2399483,"internal_node_id":"0.0-13.0-1.70","match_key":"a","participant_id":"COGS219_2020_26"},{"rt":605.2700000582263,"stimulus":"Images/rooster_cartoon.png","key_press":76,"stim_onset":1582573729048,"block":1,"match_type":"non-match","image_category":"rooster","sound_category":"dog","audio_type":"label","phase":"test","trial_type":"image-keyboard-response","trial_index":334,"time_elapsed":2400090,"internal_node_id":"0.0-13.0-2.70","match_key":"a","participant_id":"COGS219_2020_26","correct":true},{"rt":null,"stimulus":"Sounds/correct.wav","key_press":null,"block":1,"trial_type":"audio-keyboard-response","trial_index":335,"time_elapsed":2402104,"internal_node_id":"0.0-13.0-3.70","match_key":"a","participant_id":"COGS219_2020_26"},{"rt":null,"stimulus":"Sounds/frog_label.wav","key_press":null,"block":1,"trial_type":"audio-keyboard-response","trial_index":336,"time_elapsed":2402986,"internal_node_id":"0.0-13.0-0.71","match_key":"a","participant_id":"COGS219_2020_26"},{"rt":null,"stimulus":"<p style=\"font-size: 48px;\">+</p>","key_press":null,"block":1,"trial_type":"html-keyboard-response","trial_index":337,"time_elapsed":2403984,"internal_node_id":"0.0-13.0-1.71","match_key":"a","participant_id":"COGS219_2020_26"},{"rt":841.2200000602752,"stimulus":"Images/cow_2.png","key_press":76,"stim_onset":1582573733548,"block":1,"match_type":"non-match","image_category":"cow","sound_category":"frog","audio_type":"label","phase":"test","trial_type":"image-keyboard-response","trial_index":338,"time_elapsed":2404826,"internal_node_id":"0.0-13.0-2.71","match_key":"a","participant_id":"COGS219_2020_26","correct":true},{"rt":null,"stimulus":"Sounds/correct.wav","key_press":null,"block":1,"trial_type":"audio-keyboard-response","trial_index":339,"time_elapsed":2406837,"internal_node_id":"0.0-13.0-3.71","match_key":"a","participant_id":"COGS219_2020_26"},{"rt":null,"stimulus":"Sounds/motorcycle_label.wav","key_press":null,"block":1,"trial_type":"audio-keyboard-response","trial_index":340,"time_elapsed":2407986,"internal_node_id":"0.0-13.0-0.72","match_key":"a","participant_id":"COGS219_2020_26"},{"rt":null,"stimulus":"<p style=\"font-size: 48px;\">+</p>","key_press":null,"block":1,"trial_type":"html-keyboard-response","trial_index":341,"time_elapsed":2408984,"internal_node_id":"0.0-13.0-1.72","match_key":"a","participant_id":"COGS219_2020_26"},{"rt":449.4050000794232,"stimulus":"Images/whistle_orig.png","key_press":76,"stim_onset":1582573738548,"block":1,"match_type":"non-match","image_category":"whistle","sound_category":"motorcycle","audio_type":"label","phase":"test","trial_type":"image-keyboard-response","trial_index":342,"time_elapsed":2409434,"internal_node_id":"0.0-13.0-2.72","match_key":"a","participant_id":"COGS219_2020_26","correct":true},{"rt":null,"stimulus":"Sounds/correct.wav","key_press":null,"block":1,"trial_type":"audio-keyboard-response","trial_index":343,"time_elapsed":2411439,"internal_node_id":"0.0-13.0-3.72","match_key":"a","participant_id":"COGS219_2020_26"},{"rt":null,"stimulus":"Sounds/motorcycle_sound.wav","key_press":null,"block":1,"trial_type":"audio-keyboard-response","trial_index":344,"time_elapsed":2412566,"internal_node_id":"0.0-13.0-0.73","match_key":"a","participant_id":"COGS219_2020_26"},{"rt":null,"stimulus":"<p style=\"font-size: 48px;\">+</p>","key_press":null,"block":1,"trial_type":"html-keyboard-response","trial_index":345,"time_elapsed":2413584,"internal_node_id":"0.0-13.0-1.73","match_key":"a","participant_id":"COGS219_2020_26"},{"rt":457.04000000841916,"stimulus":"Images/cat_2.png","key_press":76,"stim_onset":1582573743148,"block":1,"match_type":"non-match","image_category":"cat","sound_category":"motorcycle","audio_type":"sound","phase":"test","trial_type":"image-keyboard-response","trial_index":346,"time_elapsed":2414042,"internal_node_id":"0.0-13.0-2.73","match_key":"a","participant_id":"COGS219_2020_26","correct":true},{"rt":null,"stimulus":"Sounds/correct.wav","key_press":null,"block":1,"trial_type":"audio-keyboard-response","trial_index":347,"time_elapsed":2416053,"internal_node_id":"0.0-13.0-3.73","match_key":"a","participant_id":"COGS219_2020_26"},{"rt":null,"stimulus":"Sounds/cat_sound.wav","key_press":null,"block":1,"trial_type":"audio-keyboard-response","trial_index":348,"time_elapsed":2416886,"internal_node_id":"0.0-13.0-0.74","match_key":"a","participant_id":"COGS219_2020_26"},{"rt":null,"stimulus":"<p style=\"font-size