[{"rt":3885.0299999903655,"responses":"{\"Q0\":\"19\"}","trial_type":"survey-text","trial_index":0,"time_elapsed":3918,"internal_node_id":"0.0-0.0","match_key":"l","participant_id":"19"},{"rt":7457.225000005565,"stimulus":"<p>Use KEYBOARD 1 (match RIGHT)</p><p>Press MATCH to continue.</p>","key_press":76,"trial_type":"html-keyboard-response","trial_index":1,"time_elapsed":11386,"internal_node_id":"0.0-1.0","match_key":"l","participant_id":"19"},{"rt":3452.1700000041164,"stimulus":"<p>Welcome to the experiment.</p>","key_press":74,"trial_type":"html-keyboard-response","trial_index":2,"time_elapsed":14840,"internal_node_id":"0.0-2.0","match_key":"l","participant_id":"19"},{"rt":732.3299999989104,"stimulus":"<p>Thank you for agreeing to participate in this study.</p><p>If during any part of the procedure you must stop for any reason, please inform the researcher that you do not wish to continue.</p>","key_press":74,"trial_type":"html-keyboard-response","trial_index":3,"time_elapsed":15577,"internal_node_id":"0.0-3.0","match_key":"l","participant_id":"19"},{"rt":574.5749999914551,"stimulus":"<p>In this experiment, you will hear various words or sounds and see pictures of various animals and objects.</p><p>Most of the images will be of common everyday objects, such as cars, cats, cows, firearms, frogs, chickens, whistles, trains, motorcycles, and dogs.</p><p>Some of the images will be real-life stills, while others will be cartoons.</p>","key_press":74,"trial_type":"html-keyboard-response","trial_index":4,"time_elapsed":16152,"internal_node_id":"0.0-4.0","match_key":"l","participant_id":"19"},{"rt":526.6049999918323,"stimulus":"<p>Sometimes, the word/sound will match the picture, for example you'll hear a meowing sound and see a cat.</p><p>Other times, the picture will not match the sound or word.</p><p>Your task is to decide as quickly as possible if the word/sound matches the picture or not. </p>","key_press":74,"trial_type":"html-keyboard-response","trial_index":5,"time_elapsed":16680,"internal_node_id":"0.0-5.0","match_key":"l","participant_id":"19"},{"rt":478.92499998852145,"stimulus":"<p>For example, if you hear the word \"cat\" or hear a meowing sound, and then see a picture of a cat, you should press the MATCH key.</p><p> If the sound and image do not match, press the NOT-MATCH key to indicate that there is not a match.</p>","key_press":74,"trial_type":"html-keyboard-response","trial_index":6,"time_elapsed":17160,"internal_node_id":"0.0-6.0","match_key":"l","participant_id":"19"},{"rt":462.92999999423046,"stimulus":"<p>If you make a mistake, you will hear a buzzing sound instead of a more pleasant sound.</p><p> Try to respond as quickly as possible, while making as few errors as possible. If you are making mistakes, you are probably rushing.</p>","key_press":74,"trial_type":"html-keyboard-response","trial_index":7,"time_elapsed":17624,"internal_node_id":"0.0-7.0","match_key":"l","participant_id":"19"},{"rt":446.9449999887729,"stimulus":"<p>Please try to not move or blink your eyes during the presentation of the images. You can move and blink between images.</p><p>During the experiment there will be some breaks during which you can rest your eyes.</p>","key_press":74,"trial_type":"html-keyboard-response","trial_index":8,"time_elapsed":18072,"internal_node_id":"0.0-8.0","match_key":"l","participant_id":"19"},{"rt":734.7849999932805,"stimulus":"<p>We will begin with 10 practice trials. Please let the experimenter know if you have any questions.</p>","key_press":74,"trial_type":"html-keyboard-response","trial_index":9,"time_elapsed":18808,"internal_node_id":"0.0-9.0","match_key":"l","participant_id":"19"},{"rt":null,"stimulus":"Sounds/gun_sound.wav","key_press":null,"block":0,"trial_type":"audio-keyboard-response","trial_index":10,"time_elapsed":19399,"internal_node_id":"0.0-10.0-0.0","match_key":"l","participant_id":"19"},{"rt":null,"stimulus":"<p style=\"font-size: 48px;\">+</p>","key_press":null,"block":0,"trial_type":"html-keyboard-response","trial_index":11,"time_elapsed":20390,"internal_node_id":"0.0-10.0-1.0","match_key":"l","participant_id":"19"},{"rt":3552.450000002864,"stimulus":"Images/dog_cartoon.png","key_press":65,"stim_onset":1582059293774,"block":0,"match_type":"non-match","image_category":"dog","sound_category":"gun","audio_type":"sound","phase":"practice","trial_type":"image-keyboard-response","trial_index":12,"time_elapsed":23945,"internal_node_id":"0.0-10.0-2.0","match_key":"l","participant_id":"19","correct":true},{"rt":null,"stimulus":"Sounds/correct.wav","key_press":null,"block":0,"trial_type":"audio-keyboard-response","trial_index":13,"time_elapsed":25951,"internal_node_id":"0.0-10.0-3.0","match_key":"l","participant_id":"19"},{"rt":null,"stimulus":"Sounds/frog_label.wav","key_press":null,"block":0,"trial_type":"audio-keyboard-response","trial_index":14,"time_elapsed":26839,"internal_node_id":"0.0-10.0-0.1","match_key":"l","participant_id":"19"},{"rt":null,"stimulus":"<p style=\"font-size: 48px;\">+</p>","key_press":null,"block":0,"trial_type":"html-keyboard-response","trial_index":15,"time_elapsed":27841,"internal_node_id":"0.0-10.0-1.1","match_key":"l","participant_id":"19"},{"rt":742.5999999977648,"stimulus":"Images/frog_2.png","key_press":76,"stim_onset":1582059301224,"block":0,"match_type":"match","image_category":"frog","sound_category":"frog","audio_type":"label","phase":"practice","trial_type":"image-keyboard-response","trial_index":16,"time_elapsed":28584,"internal_node_id":"0.0-10.0-2.1","match_key":"l","participant_id":"19","correct":true},{"rt":null,"stimulus":"Sounds/correct.wav","key_press":null,"block":0,"trial_type":"audio-keyboard-response","trial_index":17,"time_elapsed":30598,"internal_node_id":"0.0-10.0-3.1","match_key":"l","participant_id":"19"},{"rt":null,"stimulus":"Sounds/cat_label.wav","key_press":null,"block":0,"trial_type":"audio-keyboard-response","trial_index":18,"time_elapsed":31439,"internal_node_id":"0.0-10.0-0.2","match_key":"l","participant_id":"19"},{"rt":null,"stimulus":"<p style=\"font-size: 48px;\">+</p>","key_press":null,"block":0,"trial_type":"html-keyboard-response","trial_index":19,"time_elapsed":32441,"internal_node_id":"0.0-10.0-1.2","match_key":"l","participant_id":"19"},{"rt":942.7050000085728,"stimulus":"Images/car_orig.png","key_press":65,"stim_onset":1582059305824,"block":0,"match_type":"non-match","image_category":"car","sound_category":"cat","audio_type":"label","phase":"practice","trial_type":"image-keyboard-response","trial_index":20,"time_elapsed":33384,"internal_node_id":"0.0-10.0-2.2","match_key":"l","participant_id":"19","correct":true},{"rt":null,"stimulus":"Sounds/correct.wav","key_press":null,"block":0,"trial_type":"audio-keyboard-response","trial_index":21,"time_elapsed":35394,"internal_node_id":"0.0-10.0-3.2","match_key":"l","participant_id":"19"},{"rt":null,"stimulus":"Sounds/train_label.wav","key_press":null,"block":0,"trial_type":"audio-keyboard-response","trial_index":22,"time_elapsed":36679,"internal_node_id":"0.0-10.0-0.3","match_key":"l","participant_id":"19"},{"rt":null,"stimulus":"<p style=\"font-size: 48px;\">+</p>","key_press":null,"block":0,"trial_type":"html-keyboard-response","trial_index":23,"time_elapsed":37674,"internal_node_id":"0.0-10.0-1.3","match_key":"l","participant_id":"19"},{"rt":1165.4649999982212,"stimulus":"Images/whistle_1.png","key_press":65,"stim_onset":1582059311057,"block":0,"match_type":"non-match","image_category":"whistle","sound_category":"train","audio_type":"label","phase":"practice","trial_type":"image-keyboard-response","trial_index":24,"time_elapsed":38840,"internal_node_id":"0.0-10.0-2.3","match_key":"l","participant_id":"19","correct":true},{"rt":null,"stimulus":"Sounds/correct.wav","key_press":null,"block":0,"trial_type":"audio-keyboard-response","trial_index":25,"time_elapsed":40850,"internal_node_id":"0.0-10.0-3.3","match_key":"l","participant_id":"19"},{"rt":null,"stimulus":"Sounds/cow_sound.wav","key_press":null,"block":0,"trial_type":"audio-keyboard-response","trial_index":26,"time_elapsed":41879,"internal_node_id":"0.0-10.0-0.4","match_key":"l","participant_id":"19"},{"rt":null,"stimulus":"<p style=\"font-size: 48px;\">+</p>","key_press":null,"block":0,"trial_type":"html-keyboard-response","trial_index":27,"time_elapsed":42874,"internal_node_id":"0.0-10.0-1.4","match_key":"l","participant_id":"19"},{"rt":1853.2699999923352,"stimulus":"Images/cow_3.png","key_press":76,"stim_onset":1582059316257,"block":0,"match_type":"match","image_category":"cow","sound_category":"cow","audio_type":"sound","phase":"practice","trial_type":"image-keyboard-response","trial_index":28,"time_elapsed":44729,"internal_node_id":"0.0-10.0-2.4","match_key":"l","participant_id":"19","correct":true},{"rt":null,"stimulus":"Sounds/correct.wav","key_press":null,"block":0,"trial_type":"audio-keyboard-response","trial_index":29,"time_elapsed":46731,"internal_node_id":"0.0-10.0-3.4","match_key":"l","participant_id":"19"},{"rt":null,"stimulus":"Sounds/car_label.wav","key_press":null,"block":0,"trial_type":"audio-keyboard-response","trial_index":30,"time_elapsed":47819,"internal_node_id":"0.0-10.0-0.5","match_key":"l","participant_id":"19"},{"rt":null,"stimulus":"<p style=\"font-size: 48px;\">+</p>","key_press":null,"block":0,"trial_type":"html-keyboard-response","trial_index":31,"time_elapsed":48824,"internal_node_id":"0.0-10.0-1.5","match_key":"l","participant_id":"19"},{"rt":1247.044999996433,"stimulus":"Images/cow_2.png","key_press":65,"stim_onset":1582059322207,"block":0,"match_type":"non-match","image_category":"cow","sound_category":"car","audio_type":"label","phase":"practice","trial_type":"image-keyboard-response","trial_index":32,"time_elapsed":50072,"internal_node_id":"0.0-10.0-2.5","match_key":"l","participant_id":"19","correct":true},{"rt":null,"stimulus":"Sounds/correct.wav","key_press":null,"block":0,"trial_type":"audio-keyboard-response","trial_index":33,"time_elapsed":52082,"internal_node_id":"0.0-10.0-3.5","match_key":"l","participant_id":"19"},{"rt":null,"stimulus":"Sounds/car_sound.wav","key_press":null,"block":0,"trial_type":"audio-keyboard-response","trial_index":34,"time_elapsed":53159,"internal_node_id":"0.0-10.0-0.6","match_key":"l","participant_id":"19"},{"rt":null,"stimulus":"<p style=\"font-size: 48px;\">+</p>","key_press":null,"block":0,"trial_type":"html-keyboard-response","trial_index":35,"time_elapsed":54157,"internal_node_id":"0.0-10.0-1.6","match_key":"l","participant_id":"19"},{"rt":618.3449999953154,"stimulus":"Images/car_2.png","key_press":76,"stim_onset":1582059327540,"block":0,"match_type":"match","image_category":"car","sound_category":"car","audio_type":"sound","phase":"practice","trial_type":"image-keyboard-response","trial_index":36,"time_elapsed":54777,"internal_node_id":"0.0-10.0-2.6","match_key":"l","participant_id":"19","correct":true},{"rt":null,"stimulus":"Sounds/correct.wav","key_press":null,"block":0,"trial_type":"audio-keyboard-response","trial_index":37,"time_elapsed":56783,"internal_node_id":"0.0-10.0-3.6","match_key":"l","participant_id":"19"},{"rt":null,"stimulus":"Sounds/motorcycle_label.wav","key_press":null,"block":0,"trial_type":"audio-keyboard-response","trial_index":38,"time_elapsed":57919,"internal_node_id":"0.0-10.0-0.7","match_key":"l","participant_id":"19"},{"rt":null,"stimulus":"<p style=\"font-size: 48px;\">+</p>","key_press":null,"block":0,"trial_type":"html-keyboard-response","trial_index":39,"time_elapsed":58924,"internal_node_id":"0.0-10.0-1.7","match_key":"l","participant_id":"19"},{"rt":650.9899999946356,"stimulus":"Images/motorcycle_cartoon.png","key_press":76,"stim_onset":1582059332307,"block":0,"match_type":"match","image_category":"motorcycle","sound_category":"motorcycle","audio_type":"label","phase":"practice","trial_type":"image-keyboard-response","trial_index":40,"time_elapsed":59576,"internal_node_id":"0.0-10.0-2.7","match_key":"l","participant_id":"19","correct":true},{"rt":null,"stimulus":"Sounds/correct.wav","key_press":null,"block":0,"trial_type":"audio-keyboard-response","trial_index":41,"time_elapsed":61579,"internal_node_id":"0.0-10.0-3.7","match_key":"l","participant_id":"19"},{"rt":null,"stimulus":"Sounds/dog_label.wav","key_press":null,"block":0,"trial_type":"audio-keyboard-response","trial_index":42,"time_elapsed":62239,"internal_node_id":"0.0-10.0-0.8","match_key":"l","participant_id":"19"},{"rt":null,"stimulus":"<p style=\"font-size: 48px;\">+</p>","key_press":null,"block":0,"trial_type":"html-keyboard-response","trial_index":43,"time_elapsed":63241,"internal_node_id":"0.0-10.0-1.8","match_key":"l","participant_id":"19"},{"rt":894.5150000072317,"stimulus":"Images/dog_orig.png","key_press":76,"stim_onset":1582059336624,"block":0,"match_type":"match","image_category":"dog","sound_category":"dog","audio_type":"label","phase":"practice","trial_type":"image-keyboard-response","trial_index":44,"time_elapsed":64136,"internal_node_id":"0.0-10.0-2.8","match_key":"l","participant_id":"19","correct":true},{"rt":null,"stimulus":"Sounds/correct.wav","key_press":null,"block":0,"trial_type":"audio-keyboard-response","trial_index":45,"time_elapsed":66146,"internal_node_id":"0.0-10.0-3.8","match_key":"l","participant_id":"19"},{"rt":null,"stimulus":"Sounds/car_label.wav","key_press":null,"block":0,"trial_type":"audio-keyboard-response","trial_index":46,"time_elapsed":67218,"internal_node_id":"0.0-10.0-0.9","match_key":"l","participant_id":"19"},{"rt":null,"stimulus":"<p style=\"font-size: 48px;\">+</p>","key_press":null,"block":0,"trial_type":"html-keyboard-response","trial_index":47,"time_elapsed":68224,"internal_node_id":"0.0-10.0-1.9","match_key":"l","participant_id":"19"},{"rt":950.6299999920884,"stimulus":"Images/gun_cartoon.png","key_press":65,"stim_onset":1582059341607,"block":0,"match_type":"non-match","image_category":"gun","sound_category":"car","audio_type":"label","phase":"practice","trial_type":"image-keyboard-response","trial_index":48,"time_elapsed":69176,"internal_node_id":"0.0-10.0-2.9","match_key":"l","participant_id":"19","correct":true},{"rt":null,"stimulus":"Sounds/correct.wav","key_press":null,"block":0,"trial_type":"audio-keyboard-response","trial_index":49,"time_elapsed":71180,"internal_node_id":"0.0-10.0-3.9","match_key":"l","participant_id":"19"},{"rt":15020.229999994626,"stimulus":"<p>The rest of the experiment is divided into five blocks with 100 trials in each block. It will take about 45 minutes to complete.</p><p>The experimenter will be in the outer room and you can communicate with them through the monitor if you have any questions or wish to stop the experiment.</p>","key_press":32,"trial_type":"html-keyboard-response","trial_index":50,"time_elapsed":86200,"internal_node_id":"0.0-11.0","match_key":"l","participant_id":"19"},{"rt":89760.06000000052,"stimulus":"<p>Remember, please try not to move or blink your eyes during the presentation of the images. </p><p>At the end of the experiment, we will show you your scores on the task so you can see how you did.</p><p>The experiment will start on the next screen.</p>","key_press":32,"trial_type":"html-keyboard-response","trial_index":51,"time_elapsed":175962,"internal_node_id":"0.0-12.0","match_key":"l","participant_id":"19"},{"rt":null,"stimulus":"Sounds/car_sound.wav","key_press":null,"block":1,"trial_type":"audio-keyboard-response","trial_index":52,"time_elapsed":179049,"internal_node_id":"0.0-13.0-0.0","match_key":"l","participant_id":"19"},{"rt":null,"stimulus":"<p style=\"font-size: 48px;\">+</p>","key_press":null,"block":1,"trial_type":"html-keyboard-response","trial_index":53,"time_elapsed":180042,"internal_node_id":"0.0-13.0-1.0","match_key":"l","participant_id":"19"},{"rt":525.2349999936996,"stimulus":"Images/cat_1.png","key_press":65,"stim_onset":1582059453425,"block":1,"match_type":"non-match","image_category":"cat","sound_category":"car","audio_type":"sound","phase":"test","trial_type":"image-keyboard-response","trial_index":54,"time_elapsed":180568,"internal_node_id":"0.0-13.0-2.0","match_key":"l","participant_id":"19","correct":true},{"rt":null,"stimulus":"Sounds/correct.wav","key_press":null,"block":1,"trial_type":"audio-keyboard-response","trial_index":55,"time_elapsed":182578,"internal_node_id":"0.0-13.0-3.0","match_key":"l","participant_id":"19"},{"rt":null,"stimulus":"Sounds/train_label.wav","key_press":null,"block":1,"trial_type":"audio-keyboard-response","trial_index":56,"time_elapsed":183870,"internal_node_id":"0.0-13.0-0.1","match_key":"l","participant_id":"19"},{"rt":null,"stimulus":"<p style=\"font-size: 48px;\">+</p>","key_press":null,"block":1,"trial_type":"html-keyboard-response","trial_index":57,"time_elapsed":184875,"internal_node_id":"0.0-13.0-1.1","match_key":"l","participant_id":"19"},{"rt":699.6749999962049,"stimulus":"Images/gun_3.png","key_press":65,"stim_onset":1582059458258,"block":1,"match_type":"non-match","image_category":"gun","sound_category":"train","audio_type":"label","phase":"test","trial_type":"image-keyboard-response","trial_index":58,"time_elapsed":185576,"internal_node_id":"0.0-13.0-2.1","match_key":"l","participant_id":"19","correct":true},{"rt":null,"stimulus":"Sounds/correct.wav","key_press":null,"block":1,"trial_type":"audio-keyboard-response","trial_index":59,"time_elapsed":187580,"internal_node_id":"0.0-13.0-3.1","match_key":"l","participant_id":"19"},{"rt":null,"stimulus":"Sounds/cat_sound.wav","key_press":null,"block":1,"trial_type":"audio-keyboard-response","trial_index":60,"time_elapsed":188409,"internal_node_id":"0.0-13.0-0.2","match_key":"l","participant_id":"19"},{"rt":null,"stimulus":"<p style=\"font-size: 48px;\">+</p>","key_press":null,"block":1,"trial_type":"html-keyboard-response","trial_index":61,"time_elapsed":189409,"internal_node_id":"0.0-13.0-1.2","match_key":"l","participant_id":"19"},{"rt":550.745000000461,"stimulus":"Images/train_2.png","key_press":65,"stim_onset":1582059462792,"block":1,"match_type":"non-match","image_category":"train","sound_category":"cat","audio_type":"sound","phase":"test","trial_type":"image-keyboard-response","trial_index":62,"time_elapsed":189960,"internal_node_id":"0.0-13.0-2.2","match_key":"l","participant_id":"19","correct":true},{"rt":null,"stimulus":"Sounds/correct.wav","key_press":null,"block":1,"trial_type":"audio-keyboard-response","trial_index":63,"time_elapsed":191965,"internal_node_id":"0.0-13.0-3.2","match_key":"l","participant_id":"19"},{"rt":null,"stimulus":"Sounds/gun_label.wav","key_press":null,"block":1,"trial_type":"audio-keyboard-response","trial_index":64,"time_elapsed":192549,"internal_node_id":"0.0-13.0-0.3","match_key":"l","participant_id":"19"},{"rt":null,"stimulus":"<p style=\"font-size: 48px;\">+</p>","key_press":null,"block":1,"trial_type":"html-keyboard-response","trial_index":65,"time_elapsed":193542,"internal_node_id":"0.0-13.0-1.3","match_key":"l","participant_id":"19"},{"rt":784.9900000001071,"stimulus":"Images/train_1.png","key_press":65,"stim_onset":1582059466925,"block":1,"match_type":"non-match","image_category":"train","sound_category":"gun","audio_type":"label","phase":"test","trial_type":"image-keyboard-response","trial_index":66,"time_elapsed":194328,"internal_node_id":"0.0-13.0-2.3","match_key":"l","participant_id":"19","correct":true},{"rt":null,"stimulus":"Sounds/correct.wav","key_press":null,"block":1,"trial_type":"audio-keyboard-response","trial_index":67,"time_elapsed":196346,"internal_node_id":"0.0-13.0-3.3","match_key":"l","participant_id":"19"},{"rt":null,"stimulus":"Sounds/rooster_label.wav","key_press":null,"block":1,"trial_type":"audio-keyboard-response","trial_index":68,"time_elapsed":197049,"internal_node_id":"0.0-13.0-0.4","match_key":"l","participant_id":"19"},{"rt":null,"stimulus":"<p style=\"font-size: 48px;\">+</p>","key_press":null,"block":1,"trial_type":"html-keyboard-response","trial_index":69,"time_elapsed":198059,"internal_node_id":"0.0-13.0-1.4","match_key":"l","participant_id":"19"},{"rt":492.3549999948591,"stimulus":"Images/rooster_2.png","key_press":76,"stim_onset":1582059471442,"block":1,"match_type":"match","image_category":"rooster","sound_category":"rooster","audio_type":"label","phase":"test","trial_type":"image-keyboard-response","trial_index":70,"time_elapsed":198552,"internal_node_id":"0.0-13.0-2.4","match_key":"l","participant_id":"19","correct":true},{"rt":null,"stimulus":"Sounds/correct.wav","key_press":null,"block":1,"trial_type":"audio-keyboard-response","trial_index":71,"time_elapsed":200564,"internal_node_id":"0.0-13.0-3.4","match_key":"l","participant_id":"19"},{"rt":null,"stimulus":"Sounds/gun_label.wav","key_press":null,"block":1,"trial_type":"audio-keyboard-response","trial_index":72,"time_elapsed":201109,"internal_node_id":"0.0-13.0-0.5","match_key":"l","participant_id":"19"},{"rt":null,"stimulus":"<p style=\"font-size: 48px;\">+</p>","key_press":null,"block":1,"trial_type":"html-keyboard-response","trial_index":73,"time_elapsed":202109,"internal_node_id":"0.0-13.0-1.5","match_key":"l","participant_id":"19"},{"rt":570.9250000072643,"stimulus":"Images/cat_2.png","key_press":76,"stim_onset":1582059475492,"block":1,"match_type":"non-match","image_category":"cat","sound_category":"gun","audio_type":"label","phase":"test","trial_type":"image-keyboard-response","trial_index":74,"time_elapsed":202680,"internal_node_id":"0.0-13.0-2.5","match_key":"l","participant_id":"19","correct":false},{"rt":null,"stimulus":"Sounds/incorrect.wav","key_press":null,"block":1,"trial_type":"audio-keyboard-response","trial_index":75,"time_elapsed":204683,"internal_node_id":"0.0-13.0-3.5","match_key":"l","participant_id":"19"},{"rt":null,"stimulus":"Sounds/cat_label.wav","key_press":null,"block":1,"trial_type":"audio-keyboard-response","trial_index":76,"time_elapsed":205529,"internal_node_id":"0.0-13.0-0.6","match_key":"l","participant_id":"19"},{"rt":null,"stimulus":"<p style=\"font-size: 48px;\">+</p>","key_press":null,"block":1,"trial_type":"html-keyboard-response","trial_index":77,"time_elapsed":206526,"internal_node_id":"0.0-13.0-1.6","match_key":"l","participant_id":"19"},{"rt":761.5799999912269,"stimulus":"Images/cat_1.png","key_press":76,"stim_onset":1582059479909,"block":1,"match_type":"match","image_category":"cat","sound_category":"cat","audio_type":"label","phase":"test","trial_type":"image-keyboard-response","trial_index":78,"time_elapsed":207288,"internal_node_id":"0.0-13.0-2.6","match_key":"l","participant_id":"19","correct":true},{"rt":null,"stimulus":"Sounds/correct.wav","key_press":null,"block":1,"trial_type":"audio-keyboard-response","trial_index":79,"time_elapsed":209299,"internal_node_id":"0.0-13.0-3.6","match_key":"l","participant_id":"19"},{"rt":null,"stimulus":"Sounds/dog_sound.wav","key_press":null,"block":1,"trial_type":"audio-keyboard-response","trial_index":80,"time_elapsed":210009,"internal_node_id":"0.0-13.0-0.7","match_key":"l","participant_id":"19"},{"rt":null,"stimulus":"<p style=\"font-size: 48px;\">+</p>","key_press":null,"block":1,"trial_type":"html-keyboard-response","trial_index":81,"time_elapsed":211009,"internal_node_id":"0.0-13.0-1.7","match_key":"l","participant_id":"19"},{"rt":2550.4999999975553,"stimulus":"Images/whistle_3.png","key_press":65,"stim_onset":1582059484392,"block":1,"match_type":"non-match","image_category":"whistle","sound_category":"dog","audio_type":"sound","phase":"test","trial_type":"image-keyboard-response","trial_index":82,"time_elapsed":213560,"internal_node_id":"0.0-13.0-2.7","match_key":"l","participant_id":"19","correct":true},{"rt":null,"stimulus":"Sounds/correct.wav","key_press":null,"block":1,"trial_type":"audio-keyboard-response","trial_index":83,"time_elapsed":215568,"internal_node_id":"0.0-13.0-3.7","match_key":"l","participant_id":"19"},{"rt":null,"stimulus":"Sounds/dog_label.wav","key_press":null,"block":1,"trial_type":"audio-keyboard-response","trial_index":84,"time_elapsed":216229,"internal_node_id":"0.0-13.0-0.8","match_key":"l","participant_id":"19"},{"rt":null,"stimulus":"<p style=\"font-size: 48px;\">+</p>","key_press":null,"block":1,"trial_type":"html-keyboard-response","trial_index":85,"time_elapsed":217226,"internal_node_id":"0.0-13.0-1.8","match_key":"l","participant_id":"19"},{"rt":973.3600000035949,"stimulus":"Images/frog_orig.png","key_press":65,"stim_onset":1582059490609,"block":1,"match_type":"non-match","image_category":"frog","sound_category":"dog","audio_type":"label","phase":"test","trial_type":"image-keyboard-response","trial_index":86,"time_elapsed":218200,"internal_node_id":"0.0-13.0-2.8","match_key":"l","participant_id":"19","correct":true},{"rt":null,"stimulus":"Sounds/correct.wav","key_press":null,"block":1,"trial_type":"audio-keyboard-response","trial_index":87,"time_elapsed":220214,"internal_node_id":"0.0-13.0-3.8","match_key":"l","participant_id":"19"},{"rt":null,"stimulus":"Sounds/motorcycle_sound.wav","key_press":null,"block":1,"trial_type":"audio-keyboard-response","trial_index":88,"time_elapsed":221329,"internal_node_id":"0.0-13.0-0.9","match_key":"l","participant_id":"19"},{"rt":null,"stimulus":"<p style=\"font-size: 48px;\">+</p>","key_press":null,"block":1,"trial_type":"html-keyboard-response","trial_index":89,"time_elapsed":222326,"internal_node_id":"0.0-13.0-1.9","match_key":"l","participant_id":"19"},{"rt":1217.4300000042422,"stimulus":"Images/cat_3.png","key_press":65,"stim_onset":1582059495709,"block":1,"match_type":"non-match","image_category":"cat","sound_category":"motorcycle","audio_type":"sound","phase":"test","trial_type":"image-keyboard-response","trial_index":90,"time_elapsed":223544,"internal_node_id":"0.0-13.0-2.9","match_key":"l","participant_id":"19","correct":true},{"rt":null,"stimulus":"Sounds/correct.wav","key_press":null,"block":1,"trial_type":"audio-keyboard-response","trial_index":91,"time_elapsed":225548,"internal_node_id":"0.0-13.0-3.9","match_key":"l","participant_id":"19"},{"rt":null,"stimulus":"Sounds/car_label.wav","key_press":null,"block":1,"trial_type":"audio-keyboard-response","trial_index":92,"time_elapsed":226629,"internal_node_id":"0.0-13.0-0.10","match_key":"l","participant_id":"19"},{"rt":null,"stimulus":"<p style=\"font-size: 48px;\">+</p>","key_press":null,"block":1,"trial_type":"html-keyboard-response","trial_index":93,"time_elapsed":227626,"internal_node_id":"0.0-13.0-1.10","match_key":"l","participant_id":"19"},{"rt":1117.5050000019837,"stimulus":"Images/car_cartoon.png","key_press":76,"stim_onset":1582059501009,"block":1,"match_type":"match","image_category":"car","sound_category":"car","audio_type":"label","phase":"test","trial_type":"image-keyboard-response","trial_index":94,"time_elapsed":228744,"internal_node_id":"0.0-13.0-2.10","match_key":"l","participant_id":"19","correct":true},{"rt":null,"stimulus":"Sounds/correct.wav","key_press":null,"block":1,"trial_type":"audio-keyboard-response","trial_index":95,"time_elapsed":230751,"internal_node_id":"0.0-13.0-3.10","match_key":"l","participant_id":"19"},{"rt":null,"stimulus":"Sounds/cat_sound.wav","key_press":null,"block":1,"trial_type":"audio-keyboard-response","trial_index":96,"time_elapsed":231589,"internal_node_id":"0.0-13.0-0.11","match_key":"l","participant_id":"19"},{"rt":null,"stimulus":"<p style=\"font-size: 48px;\">+</p>","key_press":null,"block":1,"trial_type":"html-keyboard-response","trial_index":97,"time_elapsed":232593,"internal_node_id":"0.0-13.0-1.11","match_key":"l","participant_id":"19"},{"rt":550.6400000012945,"stimulus":"Images/cat_orig.png","key_press":76,"stim_onset":1582059505976,"block":1,"match_type":"match","image_category":"cat","sound_category":"cat","audio_type":"sound","phase":"test","trial_type":"image-keyboard-response","trial_index":98,"time_elapsed":233144,"internal_node_id":"0.0-13.0-2.11","match_key":"l","participant_id":"19","correct":true},{"rt":null,"stimulus":"Sounds/correct.wav","key_press":null,"block":1,"trial_type":"audio-keyboard-response","trial_index":99,"time_elapsed":235148,"internal_node_id":"0.0-13.0-3.11","match_key":"l","participant_id":"19"},{"rt":null,"stimulus":"Sounds/car_label.wav","key_press":null,"block":1,"trial_type":"audio-keyboard-response","trial_index":100,"time_elapsed":236209,"internal_node_id":"0.0-13.0-0.12","match_key":"l","participant_id":"19"},{"rt":null,"stimulus":"<p style=\"font-size: 48px;\">+</p>","key_press":null,"block":1,"trial_type":"html-keyboard-response","trial_index":101,"time_elapsed":237209,"internal_node_id":"0.0-13.0-1.12","match_key":"l","participant_id":"19"},{"rt":797.8299999958836,"stimulus":"Images/car_3.png","key_press":76,"stim_onset":1582059510592,"block":1,"match_type":"match","image_category":"car","sound_category":"car","audio_type":"label","phase":"test","trial_type":"image-keyboard-response","trial_index":102,"time_elapsed":238008,"internal_node_id":"0.0-13.0-2.12","match_key":"l","participant_id":"19","correct":true},{"rt":null,"stimulus":"Sounds/correct.wav","key_press":null,"block":1,"trial_type":"audio-keyboard-response","trial_index":103,"time_elapsed":240016,"internal_node_id":"0.0-13.0-3.12","match_key":"l","participant_id":"19"},{"rt":null,"stimulus":"Sounds/motorcycle_label.wav","key_press":null,"block":1,"trial_type":"audio-keyboard-response","trial_index":104,"time_elapsed":241149,"internal_node_id":"0.0-13.0-0.13","match_key":"l","participant_id":"19"},{"rt":null,"stimulus":"<p style=\"font-size: 48px;\">+</p>","key_press":null,"block":1,"trial_type":"html-keyboard-response","trial_index":105,"time_elapsed":242143,"internal_node_id":"0.0-13.0-1.13","match_key":"l","participant_id":"19"},{"rt":536.854999998468,"stimulus":"Images/frog_2.png","key_press":65,"stim_onset":1582059515526,"block":1,"match_type":"non-match","image_category":"frog","sound_category":"motorcycle","audio_type":"label","phase":"test","trial_type":"image-keyboard-response","trial_index":106,"time_elapsed":242681,"internal_node_id":"0.0-13.0-2.13","match_key":"l","participant_id":"19","correct":true},{"rt":null,"stimulus":"Sounds/correct.wav","key_press":null,"block":1,"trial_type":"audio-keyboard-response","trial_index":107,"time_elapsed":244697,"internal_node_id":"0.0-13.0-3.13","match_key":"l","participant_id":"19"},{"rt":null,"stimulus":"Sounds/train_sound.wav","key_press":null,"block":1,"trial_type":"audio-keyboard-response","trial_index":108,"time_elapsed":245989,"internal_node_id":"0.0-13.0-0.14","match_key":"l","participant_id":"19"},{"rt":null,"stimulus":"<p style=\"font-size: 48px;\">+</p>","key_press":null,"block":1,"trial_type":"html-keyboard-response","trial_index":109,"time_elapsed":246993,"internal_node_id":"0.0-13.0-1.14","match_key":"l","participant_id":"19"},{"rt":1030.6300000083866,"stimulus":"Images/train_2.png","key_press":76,"stim_onset":1582059520376,"block":1,"match_type":"match","image_category":"train","sound_category":"train","audio_type":"sound","phase":"test","trial_type":"image-keyboard-response","trial_index":110,"time_elapsed":248024,"internal_node_id":"0.0-13.0-2.14","match_key":"l","participant_id":"19","correct":true},{"rt":null,"stimulus":"Sounds/correct.wav","key_press":null,"block":1,"trial_type":"audio-keyboard-response","trial_index":111,"time_elapsed":250031,"internal_node_id":"0.0-13.0-3.14","match_key":"l","participant_id":"19"},{"rt":null,"stimulus":"Sounds/cat_label.wav","key_press":null,"block":1,"trial_type":"audio-keyboard-response","trial_index":112,"time_elapsed":250869,"internal_node_id":"0.0-13.0-0.15","match_key":"l","participant_id":"19"},{"rt":null,"stimulus":"<p style=\"font-size: 48px;\">+</p>","key_press":null,"block":1,"trial_type":"html-keyboard-response","trial_index":113,"time_elapsed":251859,"internal_node_id":"0.0-13.0-1.15","match_key":"l","participant_id":"19"},{"rt":1043.8100000028498,"stimulus":"Images/dog_2.png","key_press":65,"stim_onset":1582059525243,"block":1,"match_type":"non-match","image_category":"dog","sound_category":"cat","audio_type":"label","phase":"test","trial_type":"image-keyboard-response","trial_index":114,"time_elapsed":252904,"internal_node_id":"0.0-13.0-2.15","match_key":"l","participant_id":"19","correct":true},{"rt":null,"stimulus":"Sounds/correct.wav","key_press":null,"block":1,"trial_type":"audio-keyboard-response","trial_index":115,"time_elapsed":254916,"internal_node_id":"0.0-13.0-3.15","match_key":"l","participant_id":"19"},{"rt":null,"stimulus":"Sounds/car_sound.wav","key_press":null,"block":1,"trial_type":"audio-keyboard-response","trial_index":116,"time_elapsed":255989,"internal_node_id":"0.0-13.0-0.16","match_key":"l","participant_id":"19"},{"rt":null,"stimulus":"<p style=\"font-size: 48px;\">+</p>","key_press":null,"block":1,"trial_type":"html-keyboard-response","trial_index":117,"time_elapsed":256993,"internal_node_id":"0.0-13.0-1.16","match_key":"l","participant_id":"19"},{"rt":1414.2900000006193,"stimulus":"Images/motorcycle_cartoon.png","key_press":65,"stim_onset":1582059530376,"block":1,"match_type":"non-match","image_category":"motorcycle","sound_category":"car","audio_type":"sound","phase":"test","trial_type":"image-keyboard-response","trial_index":118,"time_elapsed":258408,"internal_node_id":"0.0-13.0-2.16","match_key":"l","participant_id":"19","correct":true},{"rt":null,"stimulus":"Sounds/correct.wav","key_press":null,"block":1,"trial_type":"audio-keyboard-response","trial_index":119,"time_elapsed":260417,"internal_node_id":"0.0-13.0-3.16","match_key":"l","participant_id":"19"},{"rt":null,"stimulus":"Sounds/whistle_sound.wav","key_press":null,"block":1,"trial_type":"audio-keyboard-response","trial_index":120,"time_elapsed":261109,"internal_node_id":"0.0-13.0-0.17","match_key":"l","participant_id":"19"},{"rt":null,"stimulus":"<p style=\"font-size: 48px;\">+</p>","key_press":null,"block":1,"trial_type":"html-keyboard-response","trial_index":121,"time_elapsed":262110,"internal_node_id":"0.0-13.0-1.17","match_key":"l","participant_id":"19"},{"rt":825.8799999894109,"stimulus":"Images/whistle_1.png","key_press":76,"stim_onset":1582059535493,"block":1,"match_type":"match","image_category":"whistle","sound_category":"whistle","audio_type":"sound","phase":"test","trial_type":"image-keyboard-response","trial_index":122,"time_elapsed":262936,"internal_node_id":"0.0-13.0-2.17","match_key":"l","participant_id":"19","correct":true},{"rt":null,"stimulus":"Sounds/correct.wav","key_press":null,"block":1,"trial_type":"audio-keyboard-response","trial_index":123,"time_elapsed":264947,"internal_node_id":"0.0-13.0-3.17","match_key":"l","participant_id":"19"},{"rt":null,"stimulus":"Sounds/frog_sound.wav","key_press":null,"block":1,"trial_type":"audio-keyboard-response","trial_index":124,"time_elapsed":265849,"internal_node_id":"0.0-13.0-0.18","match_key":"l","participant_id":"19"},{"rt":null,"stimulus":"<p style=\"font-size: 48px;\">+</p>","key_press":null,"block":1,"trial_type":"html-keyboard-response","trial_index":125,"time_elapsed":266843,"internal_node_id":"0.0-13.0-1.18","match_key":"l","participant_id":"19"},{"rt":572.2999999998137,"stimulus":"Images/frog_cartoon.png","key_press":76,"stim_onset":1582059540226,"block":1,"match_type":"match","image_category":"frog","sound_category":"frog","audio_type":"sound","phase":"test","trial_type":"image-keyboard-response","trial_index":126,"time_elapsed":267416,"internal_node_id":"0.0-13.0-2.18","match_key":"l","participant_id":"19","correct":true},{"rt":null,"stimulus":"Sounds/correct.wav","key_press":null,"block":1,"trial_type":"audio-keyboard-response","trial_index":127,"time_elapsed":269430,"internal_node_id":"0.0-13.0-3.18","match_key":"l","participant_id":"19"},{"rt":null,"stimulus":"Sounds/frog_sound.wav","key_press":null,"block":1,"trial_type":"audio-keyboard-response","trial_index":128,"time_elapsed":270329,"internal_node_id":"0.0-13.0-0.19","match_key":"l","participant_id":"19"},{"rt":null,"stimulus":"<p style=\"font-size: 48px;\">+</p>","key_press":null,"block":1,"trial_type":"html-keyboard-response","trial_index":129,"time_elapsed":271326,"internal_node_id":"0.0-13.0-1.19","match_key":"l","participant_id":"19"},{"rt":456.92500000586733,"stimulus":"Images/rooster_1.png","key_press":65,"stim_onset":1582059544709,"block":1,"match_type":"non-match","image_category":"rooster","sound_category":"frog","audio_type":"sound","phase":"test","trial_type":"image-keyboard-response","trial_index":130,"time_elapsed":271784,"internal_node_id":"0.0-13.0-2.19","match_key":"l","participant_id":"19","correct":true},{"rt":null,"stimulus":"Sounds/correct.wav","key_press":null,"block":1,"trial_type":"audio-keyboard-response","trial_index":131,"time_elapsed":273796,"internal_node_id":"0.0-13.0-3.19","match_key":"l","participant_id":"19"},{"rt":null,"stimulus":"Sounds/frog_label.wav","key_press":null,"block":1,"trial_type":"audio-keyboard-response","trial_index":132,"time_elapsed":274689,"internal_node_id":"0.0-13.0-0.20","match_key":"l","participant_id":"19"},{"rt":null,"stimulus":"<p style=\"font-size: 48px;\">+</p>","key_press":null,"block":1,"trial_type":"html-keyboard-response","trial_index":133,"time_elapsed":275693,"internal_node_id":"0.0-13.0-1.20","match_key":"l","participant_id":"19"},{"rt":634.5900000014808,"stimulus":"Images/frog_1.png","key_press":76,"stim_onset":1582059549076,"block":1,"match_type":"match","image_category":"frog","sound_category":"frog","audio_type":"label","phase":"test","trial_type":"image-keyboard-response","trial_index":134,"time_elapsed":276328,"internal_node_id":"0.0-13.0-2.20","match_key":"l","participant_id":"19","correct":true},{"rt":null,"stimulus":"Sounds/correct.wav","key_press":null,"block":1,"trial_type":"audio-keyboard-response","trial_index":135,"time_elapsed":278331,"internal_node_id":"0.0-13.0-3.20","match_key":"l","participant_id":"19"},{"rt":null,"stimulus":"Sounds/gun_sound.wav","key_press":null,"block":1,"trial_type":"audio-keyboard-response","trial_index":136,"time_elapsed":278909,"internal_node_id":"0.0-13.0-0.21","match_key":"l","participant_id":"19"},{"rt":null,"stimulus":"<p style=\"font-size: 48px;\">+</p>","key_press":null,"block":1,"trial_type":"html-keyboard-response","trial_index":137,"time_elapsed":279927,"internal_node_id":"0.0-13.0-1.21","match_key":"l","participant_id":"19"},{"rt":800.6299999979092,"stimulus":"Images/rooster_3.png","key_press":65,"stim_onset":1582059553310,"block":1,"match_type":"non-match","image_category":"rooster","sound_category":"gun","audio_type":"sound","phase":"test","trial_type":"image-keyboard-response","trial_index":138,"time_elapsed":280728,"internal_node_id":"0.0-13.0-2.21","match_key":"l","participant_id":"19","correct":true},{"rt":null,"stimulus":"Sounds/correct.wav","key_press":null,"block":1,"trial_type":"audio-keyboard-response","trial_index":139,"time_elapsed":282732,"internal_node_id":"0.0-13.0-3.21","match_key":"l","participant_id":"19"},{"rt":null,"stimulus":"Sounds/train_sound.wav","key_press":null,"block":1,"trial_type":"audio-keyboard-response","trial_index":140,"time_elapsed":284029,"internal_node_id":"0.0-13.0-0.22","match_key":"l","participant_id":"19"},{"rt":null,"stimulus":"<p style=\"font-size: 48px;\">+</p>","key_press":null,"block":1,"trial_type":"html-keyboard-response","trial_index":141,"time_elapsed":285026,"internal_node_id":"0.0-13.0-1.22","match_key":"l","participant_id":"19"},{"rt":852.8749999968568,"stimulus":"Images/motorcycle_orig.png","key_press":65,"stim_onset":1582059558410,"block":1,"match_type":"non-match","image_category":"motorcycle","sound_category":"train","audio_type":"sound","phase":"test","trial_type":"image-keyboard-response","trial_index":142,"time_elapsed":285880,"internal_node_id":"0.0-13.0-2.22","match_key":"l","participant_id":"19","correct":true},{"rt":null,"stimulus":"Sounds/correct.wav","key_press":null,"block":1,"trial_type":"audio-keyboard-response","trial_index":143,"time_elapsed":287897,"internal_node_id":"0.0-13.0-3.22","match_key":"l","participant_id":"19"},{"rt":null,"stimulus":"Sounds/gun_label.wav","key_press":null,"block":1,"trial_type":"audio-keyboard-response","trial_index":144,"time_elapsed":288469,"internal_node_id":"0.0-13.0-0.23","match_key":"l","participant_id":"19"},{"rt":null,"stimulus":"<p style=\"font-size: 48px;\">+</p>","key_press":null,"block":1,"trial_type":"html-keyboard-response","trial_index":145,"time_elapsed":289460,"internal_node_id":"0.0-13.0-1.23","match_key":"l","participant_id":"19"},{"rt":1107.625000004191,"stimulus":"Images/dog_1.png","key_press":65,"stim_onset":1582059562843,"block":1,"match_type":"non-match","image_category":"dog","sound_category":"gun","audio_type":"label","phase":"test","trial_type":"image-keyboard-response","trial_index":146,"time_elapsed":290568,"internal_node_id":"0.0-13.0-2.23","match_key":"l","participant_id":"19","correct":true},{"rt":null,"stimulus":"Sounds/correct.wav","key_press":null,"block":1,"trial_type":"audio-keyboard-response","trial_index":147,"time_elapsed":292580,"internal_node_id":"0.0-13.0-3.23","match_key":"l","participant_id":"19"},{"rt":null,"stimulus":"Sounds/frog_label.wav","key_press":null,"block":1,"trial_type":"audio-keyboard-response","trial_index":148,"time_elapsed":293469,"internal_node_id":"0.0-13.0-0.24","match_key":"l","participant_id":"19"},{"rt":null,"stimulus":"<p style=\"font-size: 48px;\">+</p>","key_press":null,"block":1,"trial_type":"html-keyboard-response","trial_index":149,"time_elapsed":294460,"internal_node_id":"0.0-13.0-1.24","match_key":"l","participant_id":"19"},{"rt":763.3399999904213,"stimulus":"Images/frog_3.png","key_press":76,"stim_onset":1582059567843,"block":1,"match_type":"match","image_category":"frog","sound_category":"frog","audio_type":"label","phase":"test","trial_type":"image-keyboard-response","trial_index":150,"time_elapsed":295224,"internal_node_id":"0.0-13.0-2.24","match_key":"l","participant_id":"19","correct":true},{"rt":null,"stimulus":"Sounds/correct.wav","key_press":null,"block":1,"trial_type":"audio-keyboard-response","trial_index":151,"time_elapsed":297231,"internal_node_id":"0.0-13.0-3.24","match_key":"l","participant_id":"19"},{"rt":null,"stimulus":"Sounds/car_sound.wav","key_press":null,"block":1,"trial_type":"audio-keyboard-response","trial_index":152,"time_elapsed":298309,"internal_node_id":"0.0-13.0-0.25","match_key":"l","participant_id":"19"},{"rt":null,"stimulus":"<p style=\"font-size: 48px;\">+</p>","key_press":null,"block":1,"trial_type":"html-keyboard-response","trial_index":153,"time_elapsed":299326,"internal_node_id":"0.0-13.0-1.25","match_key":"l","participant_id":"19"},{"rt":728.9000000018859,"stimulus":"Images/car_2.png","key_press":76,"stim_onset":1582059572710,"block":1,"match_type":"match","image_category":"car","sound_category":"car","audio_type":"sound","phase":"test","trial_type":"image-keyboard-response","trial_index":154,"time_elapsed":300056,"internal_node_id":"0.0-13.0-2.25","match_key":"l","participant_id":"19","correct":true},{"rt":null,"stimulus":"Sounds/correct.wav","key_press":null,"block":1,"trial_type":"audio-keyboard-response","trial_index":155,"time_elapsed":302065,"internal_node_id":"0.0-13.0-3.25","match_key":"l","participant_id":"19"},{"rt":null,"stimulus":"Sounds/train_sound.wav","key_press":null,"block":1,"trial_type":"audio-keyboard-response","trial_index":156,"time_elapsed":303349,"internal_node_id":"0.0-13.0-0.26","match_key":"l","participant_id":"19"},{"rt":null,"stimulus":"<p style=\"font-size: 48px;\">+</p>","key_press":null,"block":1,"trial_type":"html-keyboard-response","trial_index":157,"time_elapsed":304343,"internal_node_id":"0.0-13.0-1.26","match_key":"l","participant_id":"19"},{"rt":1840.089999997872,"stimulus":"Images/train_1.png","key_press":76,"stim_onset":1582059577726,"block":1,"match_type":"match","image_category":"train","sound_category":"train","audio_type":"sound","phase":"test","trial_type":"image-keyboard-response","trial_index":158,"time_elapsed":306184,"internal_node_id":"0.0-13.0-2.26","match_key":"l","participant_id":"19","correct":true},{"rt":null,"stimulus":"Sounds/correct.wav","key_press":null,"block":1,"trial_type":"audio-keyboard-response","trial_index":159,"time_elapsed":308199,"internal_node_id":"0.0-13.0-3.26","match_key":"l","participant_id":"19"},{"rt":null,"stimulus":"Sounds/cow_label.wav","key_press":null,"block":1,"trial_type":"audio-keyboard-response","trial_index":160,"time_elapsed":309209,"internal_node_id":"0.0-13.0-0.27","match_key":"l","participant_id":"19"},{"rt":null,"stimulus":"<p style=\"font-size: 48px;\">+</p>","key_press":null,"block":1,"trial_type":"html-keyboard-response","trial_index":161,"time_elapsed":310227,"internal_node_id":"0.0-13.0-1.27","match_key":"l","participant_id":"19"},{"rt":772.7200000081211,"stimulus":"Images/cow_orig.png","key_press":76,"stim_onset":1582059583610,"block":1,"match_type":"match","image_category":"cow","sound_category":"cow","audio_type":"label","phase":"test","trial_type":"image-keyboard-response","trial_index":162,"time_elapsed":311001,"internal_node_id":"0.0-13.0-2.27","match_key":"l","participant_id":"19","correct":true},{"rt":null,"stimulus":"Sounds/correct.wav","key_press":null,"block":1,"trial_type":"audio-keyboard-response","trial_index":163,"time_elapsed":313014,"internal_node_id":"0.0-13.0-3.27","match_key":"l","participant_id":"19"},{"rt":null,"stimulus":"Sounds/cat_sound.wav","key_press":null,"block":1,"trial_type":"audio-keyboard-response","trial_index":164,"time_elapsed":313849,"internal_node_id":"0.0-13.0-0.28","match_key":"l","participant_id":"19"},{"rt":null,"stimulus":"<p style=\"font-size: 48px;\">+</p>","key_press":null,"block":1,"trial_type":"html-keyboard-response","trial_index":165,"time_elapsed":314844,"internal_node_id":"0.0-13.0-1.28","match_key":"l","participant_id":"19"},{"rt":763.9750000089407,"stimulus":"Images/car_cartoon.png","key_press":65,"stim_onset":1582059588227,"block":1,"match_type":"non-match","image_category":"car","sound_category":"cat","audio_type":"sound","phase":"test","trial_type":"image-keyboard-response","trial_index":166,"time_elapsed":315608,"internal_node_id":"0.0-13.0-2.28","match_key":"l","participant_id":"19","correct":true},{"rt":null,"stimulus":"Sounds/correct.wav","key_press":null,"block":1,"trial_type":"audio-keyboard-response","trial_index":167,"time_elapsed":317620,"internal_node_id":"0.0-13.0-3.28","match_key":"l","participant_id":"19"},{"rt":null,"stimulus":"Sounds/rooster_label.wav","key_press":null,"block":1,"trial_type":"audio-keyboard-response","trial_index":168,"time_elapsed":318309,"internal_node_id":"0.0-13.0-0.29","match_key":"l","participant_id":"19"},{"rt":null,"stimulus":"<p style=\"font-size: 48px;\">+</p>","key_press":null,"block":1,"trial_type":"html-keyboard-response","trial_index":169,"time_elapsed":319327,"internal_node_id":"0.0-13.0-1.29","match_key":"l","participant_id":"19"},{"rt":1896.485000004759,"stimulus":"Images/rooster_3.png","key_press":76,"stim_onset":1582059592710,"block":1,"match_type":"match","image_category":"rooster","sound_category":"rooster","audio_type":"label","phase":"test","trial_type":"image-keyboard-response","trial_index":170,"time_elapsed":321224,"internal_node_id":"0.0-13.0-2.29","match_key":"l","participant_id":"19","correct":true},{"rt":null,"stimulus":"Sounds/correct.wav","key_press":null,"block":1,"trial_type":"audio-keyboard-response","trial_index":171,"time_elapsed":323234,"internal_node_id":"0.0-13.0-3.29","match_key":"l","participant_id":"19"},{"rt":null,"stimulus":"Sounds/rooster_sound.wav","key_press":null,"block":1,"trial_type":"audio-keyboard-response","trial_index":172,"time_elapsed":323929,"internal_node_id":"0.0-13.0-0.30","match_key":"l","participant_id":"19"},{"rt":null,"stimulus":"<p style=\"font-size: 48px;\">+</p>","key_press":null,"block":1,"trial_type":"html-keyboard-response","trial_index":173,"time_elapsed":324927,"internal_node_id":"0.0-13.0-1.30","match_key":"l","participant_id":"19"},{"rt":504.34499999391846,"stimulus":"Images/car_1.png","key_press":65,"stim_onset":1582059598310,"block":1,"match_type":"non-match","image_category":"car","sound_category":"rooster","audio_type":"sound","phase":"test","trial_type":"image-keyboard-response","trial_index":174,"time_elapsed":325432,"internal_node_id":"0.0-13.0-2.30","match_key":"l","participant_id":"19","correct":true},{"rt":null,"stimulus":"Sounds/correct.wav","key_press":null,"block":1,"trial_type":"audio-keyboard-response","trial_index":175,"time_elapsed":327448,"internal_node_id":"0.0-13.0-3.30","match_key":"l","participant_id":"19"},{"rt":null,"stimulus":"Sounds/cow_label.wav","key_press":null,"block":1,"trial_type":"audio-keyboard-response","trial_index":176,"time_elapsed":328449,"internal_node_id":"0.0-13.0-0.31","match_key":"l","participant_id":"19"},{"rt":null,"stimulus":"<p style=\"font-size: 48px;\">+</p>","key_press":null,"block":1,"trial_type":"html-keyboard-response","trial_index":177,"time_elapsed":329444,"internal_node_id":"0.0-13.0-1.31","match_key":"l","participant_id":"19"},{"rt":627.5800000003073,"stimulus":"Images/motorcycle_1.png","key_press":65,"stim_onset":1582059602827,"block":1,"match_type":"non-match","image_category":"motorcycle","sound_category":"cow","audio_type":"label","phase":"test","trial_type":"image-keyboard-response","trial_index":178,"time_elapsed":330072,"internal_node_id":"0.0-13.0-2.31","match_key":"l","participant_id":"19","correct":true},{"rt":null,"stimulus":"Sounds/correct.wav","key_press":null,"block":1,"trial_type":"audio-keyboard-response","trial_index":179,"time_elapsed":332084,"internal_node_id":"0.0-13.0-3.31","match_key":"l","participant_id":"19"},{"rt":null,"stimulus":"Sounds/whistle_label.wav","key_press":null,"block":1,"trial_type":"audio-keyboard-response","trial_index":180,"time_elapsed":332789,"internal_node_id":"0.0-13.0-0.32","match_key":"l","participant_id":"19"},{"rt":null,"stimulus":"<p style=\"font-size: 48px;\">+</p>","key_press":null,"block":1,"trial_type":"html-keyboard-response","trial_index":181,"time_elapsed":333794,"internal_node_id":"0.0-13.0-1.32","match_key":"l","participant_id":"19"},{"rt":612.1899999998277,"stimulus":"Images/whistle_orig.png","key_press":76,"stim_onset":1582059607177,"block":1,"match_type":"match","image_category":"whistle","sound_category":"whistle","audio_type":"label","phase":"test","trial_type":"image-keyboard-response","trial_index":182,"time_elapsed":334409,"internal_node_id":"0.0-13.0-2.32","match_key":"l","participant_id":"19","correct":true},{"rt":null,"stimulus":"Sounds/correct.wav","key_press":null,"block":1,"trial_type":"audio-keyboard-response","trial_index":183,"time_elapsed":336415,"internal_node_id":"0.0-13.0-3.32","match_key":"l","participant_id":"19"},{"rt":null,"stimulus":"Sounds/cow_sound.wav","key_press":null,"block":1,"trial_type":"audio-keyboard-response","trial_index":184,"time_elapsed":337429,"internal_node_id":"0.0-13.0-0.33","match_key":"l","participant_id":"19"},{"rt":null,"stimulus":"<p style=\"font-size: 48px;\">+</p>","key_press":null,"block":1,"trial_type":"html-keyboard-response","trial_index":185,"time_elapsed":338427,"internal_node_id":"0.0-13.0-1.33","match_key":"l","participant_id":"19"},{"rt":1036.2650000024587,"stimulus":"Images/cow_2.png","key_press":76,"stim_onset":1582059611810,"block":1,"match_type":"match","image_category":"cow","sound_category":"cow","audio_type":"sound","phase":"test","trial_type":"image-keyboard-response","trial_index":186,"time_elapsed":339464,"internal_node_id":"0.0-13.0-2.33","match_key":"l","participant_id":"19","correct":true},{"rt":null,"stimulus":"Sounds/correct.wav","key_press":null,"block":1,"trial_type":"audio-keyboard-response","trial_index":187,"time_elapsed":341481,"internal_node_id":"0.0-13.0-3.33","match_key":"l","participant_id":"19"},{"rt":null,"stimulus":"Sounds/whistle_label.wav","key_press":null,"block":1,"trial_type":"audio-keyboard-response","trial_index":188,"time_elapsed":342149,"internal_node_id":"0.0-13.0-0.34","match_key":"l","participant_id":"19"},{"rt":null,"stimulus":"<p style=\"font-size: 48px;\">+</p>","key_press":null,"block":1,"trial_type":"html-keyboard-response","trial_index":189,"time_elapsed":343144,"internal_node_id":"0.0-13.0-1.34","match_key":"l","participant_id":"19"},{"rt":767.4600000027567,"stimulus":"Images/whistle_2.png","key_press":76,"stim_onset":1582059616527,"block":1,"match_type":"match","image_category":"whistle","sound_category":"whistle","audio_type":"label","phase":"test","trial_type":"image-keyboard-response","trial_index":190,"time_elapsed":343912,"internal_node_id":"0.0-13.0-2.34","match_key":"l","participant_id":"19","correct":true},{"rt":null,"stimulus":"Sounds/correct.wav","key_press":null,"block":1,"trial_type":"audio-keyboard-response","trial_index":191,"time_elapsed":345916,"internal_node_id":"0.0-13.0-3.34","match_key":"l","participant_id":"19"},{"rt":null,"stimulus":"Sounds/cow_sound.wav","key_press":null,"block":1,"trial_type":"audio-keyboard-response","trial_index":192,"time_elapsed":346909,"internal_node_id":"0.0-13.0-0.35","match_key":"l","participant_id":"19"},{"rt":null,"stimulus":"<p style=\"font-size: 48px;\">+</p>","key_press":null,"block":1,"trial_type":"html-keyboard-response","trial_index":193,"time_elapsed":347927,"internal_node_id":"0.0-13.0-1.35","match_key":"l","participant_id":"19"},{"rt":512.3600000079023,"stimulus":"Images/cow_1.png","key_press":76,"stim_onset":1582059621310,"block":1,"match_type":"match","image_category":"cow","sound_category":"cow","audio_type":"sound","phase":"test","trial_type":"image-keyboard-response","trial_index":194,"time_elapsed":348441,"internal_node_id":"0.0-13.0-2.35","match_key":"l","participant_id":"19","correct":true},{"rt":null,"stimulus":"Sounds/correct.wav","key_press":null,"block":1,"trial_type":"audio-keyboard-response","trial_index":195,"time_elapsed":350449,"internal_node_id":"0.0-13.0-3.35","match_key":"l","participant_id":"19"},{"rt":null,"stimulus":"Sounds/gun_label.wav","key_press":null,"block":1,"trial_type":"audio-keyboard-response","trial_index":196,"time_elapsed":351029,"internal_node_id":"0.0-13.0-0.36","match_key":"l","participant_id":"19"},{"rt":null,"stimulus":"<p style=\"font-size: 48px;\">+</p>","key_press":null,"block":1,"trial_type":"html-keyboard-response","trial_index":197,"time_elapsed":352027,"internal_node_id":"0.0-13.0-1.36","match_key":"l","participant_id":"19"},{"rt":684.0099999972153,"stimulus":"Images/gun_1.png","key_press":76,"stim_onset":1582059625410,"block":1,"match_type":"match","image_category":"gun","sound_category":"gun","audio_type":"label","phase":"test","trial_type":"image-keyboard-response","trial_index":198,"time_elapsed":352712,"internal_node_id":"0.0-13.0-2.36","match_key":"l","participant_id":"19","correct":true},{"rt":null,"stimulus":"Sounds/correct.wav","key_press":null,"block":1,"trial_type":"audio-keyboard-response","trial_index":199,"time_elapsed":354718,"internal_node_id":"0.0-13.0-3.36","match_key":"l","participant_id":"19"},{"rt":null,"stimulus":"Sounds/rooster_sound.wav","key_press":null,"block":1,"trial_type":"audio-keyboard-response","trial_index":200,"time_elapsed":355409,"internal_node_id":"0.0-13.0-0.37","match_key":"l","participant_id":"19"},{"rt":null,"stimulus":"<p style=\"font-size: 48px;\">+</p>","key_press":null,"block":1,"trial_type":"html-keyboard-response","trial_index":201,"time_elapsed":356427,"internal_node_id":"0.0-13.0-1.37","match_key":"l","participant_id":"19"},{"rt":555.8449999953154,"stimulus":"Images/gun_orig.png","key_press":65,"stim_onset":1582059629811,"block":1,"match_type":"non-match","image_category":"gun","sound_category":"rooster","audio_type":"sound","phase":"test","trial_type":"image-keyboard-response","trial_index":202,"time_elapsed":356984,"internal_node_id":"0.0-13.0-2.37","match_key":"l","participant_id":"19","correct":true},{"rt":null,"stimulus":"Sounds/correct.wav","key_press":null,"block":1,"trial_type":"audio-keyboard-response","trial_index":203,"time_elapsed":358998,"internal_node_id":"0.0-13.0-3.37","match_key":"l","participant_id":"19"},{"rt":null,"stimulus":"Sounds/whistle_label.wav","key_press":null,"block":1,"trial_type":"audio-keyboard-response","trial_index":204,"time_elapsed":359689,"internal_node_id":"0.0-13.0-0.38","match_key":"l","participant_id":"19"},{"rt":null,"stimulus":"<p style=\"font-size: 48px;\">+</p>","key_press":null,"block":1,"trial_type":"html-keyboard-response","trial_index":205,"time_elapsed":360677,"internal_node_id":"0.0-13.0-1.38","match_key":"l","participant_id":"19"},{"rt":418.03000000072643,"stimulus":"Images/motorcycle_3.png","key_press":65,"stim_onset":1582059634061,"block":1,"match_type":"non-match","image_category":"motorcycle","sound_category":"whistle","audio_type":"label","phase":"test","trial_type":"image-keyboard-response","trial_index":206,"time_elapsed":361097,"internal_node_id":"0.0-13.0-2.38","match_key":"l","participant_id":"19","correct":true},{"rt":null,"stimulus":"Sounds/correct.wav","key_press":null,"block":1,"trial_type":"audio-keyboard-response","trial_index":207,"time_elapsed":363099,"internal_node_id":"0.0-13.0-3.38","match_key":"l","participant_id":"19"},{"rt":null,"stimulus":"Sounds/motorcycle_label.wav","key_press":null,"block":1,"trial_type":"audio-keyboard-response","trial_index":208,"time_elapsed":364229,"internal_node_id":"0.0-13.0-0.39","match_key":"l","participant_id":"19"},{"rt":null,"stimulus":"<p style=\"font-size: 48px;\">+</p>","key_press":null,"block":1,"trial_type":"html-keyboard-response","trial_index":209,"time_elapsed":365227,"internal_node_id":"0.0-13.0-1.39","match_key":"l","participant_id":"19"},{"rt":588.0949999991572,"stimulus":"Images/whistle_cartoon.png","key_press":65,"stim_onset":1582059638611,"block":1,"match_type":"non-match","image_category":"whistle","sound_category":"motorcycle","audio_type":"label","phase":"test","trial_type":"image-keyboard-response","trial_index":210,"time_elapsed":365816,"internal_node_id":"0.0-13.0-2.39","match_key":"l","participant_id":"19","correct":true},{"rt":null,"stimulus":"Sounds/correct.wav","key_press":null,"block":1,"trial_type":"audio-keyboard-response","trial_index":211,"time_elapsed":367832,"internal_node_id":"0.0-13.0-3.39","match_key":"l","participant_id":"19"},{"rt":null,"stimulus":"Sounds/dog_sound.wav","key_press":null,"block":1,"trial_type":"audio-keyboard-response","trial_index":212,"time_elapsed":368549,"internal_node_id":"0.0-13.0-0.40","match_key":"l","participant_id":"19"},{"rt":null,"stimulus":"<p style=\"font-size: 48px;\">+</p>","key_press":null,"block":1,"trial_type":"html-keyboard-response","trial_index":213,"time_elapsed":369544,"internal_node_id":"0.0-13.0-1.40","match_key":"l","participant_id":"19"},{"rt":510.9800000063842,"stimulus":"Images/dog_1.png","key_press":76,"stim_onset":1582059642927,"block":1,"match_type":"match","image_category":"dog","sound_category":"dog","audio_type":"sound","phase":"test","trial_type":"image-keyboard-response","trial_index":214,"time_elapsed":370056,"internal_node_id":"0.0-13.0-2.40","match_key":"l","participant_id":"19","correct":true},{"rt":null,"stimulus":"Sounds/correct.wav","key_press":null,"block":1,"trial_type":"audio-keyboard-response","trial_index":215,"time_elapsed":372064,"internal_node_id":"0.0-13.0-3.40","match_key":"l","participant_id":"19"},{"rt":null,"stimulus":"Sounds/rooster_sound.wav","key_press":null,"block":1,"trial_type":"audio-keyboard-response","trial_index":216,"time_elapsed":372729,"internal_node_id":"0.0-13.0-0.41","match_key":"l","participant_id":"19"},{"rt":null,"stimulus":"<p style=\"font-size: 48px;\">+</p>","key_press":null,"block":1,"trial_type":"html-keyboard-response","trial_index":217,"time_elapsed":373728,"internal_node_id":"0.0-13.0-1.41","match_key":"l","participant_id":"19"},{"rt":728.0500000051688,"stimulus":"Images/train_3.png","key_press":65,"stim_onset":1582059647111,"block":1,"match_type":"non-match","image_category":"train","sound_category":"rooster","audio_type":"sound","phase":"test","trial_type":"image-keyboard-response","trial_index":218,"time_elapsed":374457,"internal_node_id":"0.0-13.0-2.41","match_key":"l","participant_id":"19","correct":true},{"rt":null,"stimulus":"Sounds/correct.wav","key_press":null,"block":1,"trial_type":"audio-keyboard-response","trial_index":219,"time_elapsed":376466,"internal_node_id":"0.0-13.0-3.41","match_key":"l","participant_id":"19"},{"rt":null,"stimulus":"Sounds/train_label.wav","key_press":null,"block":1,"trial_type":"audio-keyboard-response","trial_index":220,"time_elapsed":377749,"internal_node_id":"0.0-13.0-0.42","match_key":"l","participant_id":"19"},{"rt":null,"stimulus":"<p style=\"font-size: 48px;\">+</p>","key_press":null,"block":1,"trial_type":"html-keyboard-response","trial_index":221,"time_elapsed":378744,"internal_node_id":"0.0-13.0-1.42","match_key":"l","participant_id":"19"},{"rt":494.395000001532,"stimulus":"Images/train_orig.png","key_press":76,"stim_onset":1582059652128,"block":1,"match_type":"match","image_category":"train","sound_category":"train","audio_type":"label","phase":"test","trial_type":"image-keyboard-response","trial_index":222,"time_elapsed":379241,"internal_node_id":"0.0-13.0-2.42","match_key":"l","participant_id":"19","correct":true},{"rt":null,"stimulus":"Sounds/correct.wav","key_press":null,"block":1,"trial_type":"audio-keyboard-response","trial_index":223,"time_elapsed":381249,"internal_node_id":"0.0-13.0-3.42","match_key":"l","participant_id":"19"},{"rt":null,"stimulus":"Sounds/cat_label.wav","key_press":null,"block":1,"trial_type":"audio-keyboard-response","trial_index":224,"time_elapsed":382089,"internal_node_id":"0.0-13.0-0.43","match_key":"l","participant_id":"19"},{"rt":null,"stimulus":"<p style=\"font-size: 48px;\">+</p>","key_press":null,"block":1,"trial_type":"html-keyboard-response","trial_index":225,"time_elapsed":383078,"internal_node_id":"0.0-13.0-1.43","match_key":"l","participant_id":"19"},{"rt":929.710000011255,"stimulus":"Images/cat_cartoon.png","key_press":76,"stim_onset":1582059656461,"block":1,"match_type":"match","image_category":"cat","sound_category":"cat","audio_type":"label","phase":"test","trial_type":"image-keyboard-response","trial_index":226,"time_elapsed":384009,"internal_node_id":"0.0-13.0-2.43","match_key":"l","participant_id":"19","correct":true},{"rt":null,"stimulus":"Sounds/correct.wav","key_press":null,"block":1,"trial_type":"audio-keyboard-response","trial_index":227,"time_elapsed":386016,"internal_node_id":"0.0-13.0-3.43","match_key":"l","participant_id":"19"},{"rt":null,"stimulus":"Sounds/cow_label.wav","key_press":null,"block":1,"trial_type":"audio-keyboard-response","trial_index":228,"time_elapsed":387029,"internal_node_id":"0.0-13.0-0.44","match_key":"l","participant_id":"19"},{"rt":null,"stimulus":"<p style=\"font-size: 48px;\">+</p>","key_press":null,"block":1,"trial_type":"html-keyboard-response","trial_index":229,"time_elapsed":388028,"internal_node_id":"0.0-13.0-1.44","match_key":"l","participant_id":"19"},{"rt":715.7250000018394,"stimulus":"Images/rooster_cartoon.png","key_press":65,"stim_onset":1582059661411,"block":1,"match_type":"non-match","image_category":"rooster","sound_category":"cow","audio_type":"label","phase":"test","trial_type":"image-keyboard-response","trial_index":230,"time_elapsed":388745,"internal_node_id":"0.0-13.0-2.44","match_key":"l","participant_id":"19","correct":true},{"rt":null,"stimulus":"Sounds/correct.wav","key_press":null,"block":1,"trial_type":"audio-keyboard-response","trial_index":231,"time_elapsed":390750,"internal_node_id":"0.0-13.0-3.44","match_key":"l","participant_id":"19"},{"rt":null,"stimulus":"Sounds/rooster_label.wav","key_press":null,"block":1,"trial_type":"audio-keyboard-response","trial_index":232,"time_elapsed":391449,"internal_node_id":"0.0-13.0-0.45","match_key":"l","participant_id":"19"},{"rt":null,"stimulus":"<p style=\"font-size: 48px;\">+</p>","key_press":null,"block":1,"trial_type":"html-keyboard-response","trial_index":233,"time_elapsed":392445,"internal_node_id":"0.0-13.0-1.45","match_key":"l","participant_id":"19"},{"rt":714.9100000096951,"stimulus":"Images/whistle_2.png","key_press":65,"stim_onset":1582059665828,"block":1,"match_type":"non-match","image_category":"whistle","sound_category":"rooster","audio_type":"label","phase":"test","trial_type":"image-keyboard-response","trial_index":234,"time_elapsed":393160,"internal_node_id":"0.0-13.0-2.45","match_key":"l","participant_id":"19","correct":true},{"rt":null,"stimulus":"Sounds/correct.wav","key_press":null,"block":1,"trial_type":"audio-keyboard-response","trial_index":235,"time_elapsed":395168,"internal_node_id":"0.0-13.0-3.45","match_key":"l","participant_id":"19"},{"rt":null,"stimulus":"Sounds/dog_sound.wav","key_press":null,"block":1,"trial_type":"audio-keyboard-response","trial_index":236,"time_elapsed":395869,"internal_node_id":"0.0-13.0-0.46","match_key":"l","participant_id":"19"},{"rt":null,"stimulus":"<p style=\"font-size: 48px;\">+</p>","key_press":null,"block":1,"trial_type":"html-keyboard-response","trial_index":237,"time_elapsed":396861,"internal_node_id":"0.0-13.0-1.46","match_key":"l","participant_id":"19"},{"rt":554.0350000082981,"stimulus":"Images/car_2.png","key_press":65,"stim_onset":1582059670244,"block":1,"match_type":"non-match","image_category":"car","sound_category":"dog","audio_type":"sound","phase":"test","trial_type":"image-keyboard-response","trial_index":238,"time_elapsed":397416,"internal_node_id":"0.0-13.0-2.46","match_key":"l","participant_id":"19","correct":true},{"rt":null,"stimulus":"Sounds/correct.wav","key_press":null,"block":1,"trial_type":"audio-keyboard-response","trial_index":239,"time_elapsed":399433,"internal_node_id":"0.0-13.0-3.46","match_key":"l","participant_id":"19"},{"rt":null,"stimulus":"Sounds/cow_label.wav","key_press":null,"block":1,"trial_type":"audio-keyboard-response","trial_index":240,"time_elapsed":400429,"internal_node_id":"0.0-13.0-0.47","match_key":"l","participant_id":"19"},{"rt":null,"stimulus":"<p style=\"font-size: 48px;\">+</p>","key_press":null,"block":1,"trial_type":"html-keyboard-response","trial_index":241,"time_elapsed":401428,"internal_node_id":"0.0-13.0-1.47","match_key":"l","participant_id":"19"},{"rt":675.8700000063982,"stimulus":"Images/dog_orig.png","key_press":65,"stim_onset":1582059674811,"block":1,"match_type":"non-match","image_category":"dog","sound_category":"cow","audio_type":"label","phase":"test","trial_type":"image-keyboard-response","trial_index":242,"time_elapsed":402105,"internal_node_id":"0.0-13.0-2.47","match_key":"l","participant_id":"19","correct":true},{"rt":null,"stimulus":"Sounds/correct.wav","key_press":null,"block":1,"trial_type":"audio-keyboard-response","trial_index":243,"time_elapsed":404109,"internal_node_id":"0.0-13.0-3.47","match_key":"l","participant_id":"19"},{"rt":null,"stimulus":"Sounds/frog_label.wav","key_press":null,"block":1,"trial_type":"audio-keyboard-response","trial_index":244,"time_elapsed":404989,"internal_node_id":"0.0-13.0-0.48","match_key":"l","participant_id":"19"},{"rt":null,"stimulus":"<p style=\"font-size: 48px;\">+</p>","key_press":null,"block":1,"trial_type":"html-keyboard-response","trial_index":245,"time_elapsed":405978,"internal_node_id":"0.0-13.0-1.48","match_key":"l","participant_id":"19"},{"rt":541.4900000032503,"stimulus":"Images/car_3.png","key_press":65,"stim_onset":1582059679361,"block":1,"match_type":"non-match","image_category":"car","sound_category":"frog","audio_type":"label","phase":"test","trial_type":"image-keyboard-response","trial_index":246,"time_elapsed":406521,"internal_node_id":"0.0-13.0-2.48","match_key":"l","participant_id":"19","correct":true},{"rt":null,"stimulus":"Sounds/correct.wav","key_press":null,"block":1,"trial_type":"audio-keyboard-response","trial_index":247,"time_elapsed":408532,"internal_node_id":"0.0-13.0-3.48","match_key":"l","participant_id":"19"},{"rt":null,"stimulus":"Sounds/frog_sound.wav","key_press":null,"block":1,"trial_type":"audio-keyboard-response","trial_index":248,"time_elapsed":409449,"internal_node_id":"0.0-13.0-0.49","match_key":"l","participant_id":"19"},{"rt":null,"stimulus":"<p style=\"font-size: 48px;\">+</p>","key_press":null,"block":1,"trial_type":"html-keyboard-response","trial_index":249,"time_elapsed":410445,"internal_node_id":"0.0-13.0-1.49","match_key":"l","participant_id":"19"},{"rt":570.6649999920046,"stimulus":"Images/train_orig.png","key_press":65,"stim_onset":1582059683828,"block":1,"match_type":"non-match","image_category":"train","sound_category":"frog","audio_type":"sound","phase":"test","trial_type":"image-keyboard-response","trial_index":250,"time_elapsed":411016,"internal_node_id":"0.0-13.0-2.49","match_key":"l","participant_id":"19","correct":true},{"rt":null,"stimulus":"Sounds/correct.wav","key_press":null,"block":1,"trial_type":"audio-keyboard-response","trial_index":251,"time_elapsed":413032,"internal_node_id":"0.0-13.0-3.49","match_key":"l","participant_id":"19"},{"rt":null,"stimulus":"Sounds/dog_sound.wav","key_press":null,"block":1,"trial_type":"audio-keyboard-response","trial_index":252,"time_elapsed":413749,"internal_node_id":"0.0-13.0-0.50","match_key":"l","participant_id":"19"},{"rt":null,"stimulus":"<p style=\"font-size: 48px;\">+</p>","key_press":null,"block":1,"trial_type":"html-keyboard-response","trial_index":253,"time_elapsed":414745,"internal_node_id":"0.0-13.0-1.50","match_key":"l","participant_id":"19"},{"rt":1342.929999998887,"stimulus":"Images/gun_1.png","key_press":65,"stim_onset":1582059688128,"block":1,"match_type":"non-match","image_category":"gun","sound_category":"dog","audio_type":"sound","phase":"test","trial_type":"image-keyboard-response","trial_index":254,"time_elapsed":416089,"internal_node_id":"0.0-13.0-2.50","match_key":"l","participant_id":"19","correct":true},{"rt":null,"stimulus":"Sounds/correct.wav","key_press":null,"block":1,"trial_type":"audio-keyboard-response","trial_index":255,"time_elapsed":418101,"internal_node_id":"0.0-13.0-3.50","match_key":"l","participant_id":"19"},{"rt":null,"stimulus":"Sounds/rooster_sound.wav","key_press":null,"block":1,"trial_type":"audio-keyboard-response","trial_index":256,"time_elapsed":418789,"internal_node_id":"0.0-13.0-0.51","match_key":"l","participant_id":"19"},{"rt":null,"stimulus":"<p style=\"font-size: 48px;\">+</p>","key_press":null,"block":1,"trial_type":"html-keyboard-response","trial_index":257,"time_elapsed":419778,"internal_node_id":"0.0-13.0-1.51","match_key":"l","participant_id":"19"},{"rt":581.1650000105146,"stimulus":"Images/cow_orig.png","key_press":65,"stim_onset":1582059693161,"block":1,"match_type":"non-match","image_category":"cow","sound_category":"rooster","audio_type":"sound","phase":"test","trial_type":"image-keyboard-response","trial_index":258,"time_elapsed":420360,"internal_node_id":"0.0-13.0-2.51","match_key":"l","participant_id":"19","correct":true},{"rt":null,"stimulus":"Sounds/correct.wav","key_press":null,"block":1,"trial_type":"audio-keyboard-response","trial_index":259,"time_elapsed":422371,"internal_node_id":"0.0-13.0-3.51","match_key":"l","participant_id":"19"},{"rt":null,"stimulus":"Sounds/cat_label.wav","key_press":null,"block":1,"trial_type":"audio-keyboard-response","trial_index":260,"time_elapsed":423209,"internal_node_id":"0.0-13.0-0.52","match_key":"l","participant_id":"19"},{"rt":null,"stimulus":"<p style=\"font-size: 48px;\">+</p>","key_press":null,"block":1,"trial_type":"html-keyboard-response","trial_index":261,"time_elapsed":424211,"internal_node_id":"0.0-13.0-1.52","match_key":"l","participant_id":"19"},{"rt":595.9350000048289,"stimulus":"Images/rooster_2.png","key_press":65,"stim_onset":1582059697595,"block":1,"match_type":"non-match","image_category":"rooster","sound_category":"cat","audio_type":"label","phase":"test","trial_type":"image-keyboard-response","trial_index":262,"time_elapsed":424808,"internal_node_id":"0.0-13.0-2.52","match_key":"l","participant_id":"19","correct":true},{"rt":null,"stimulus":"Sounds/correct.wav","key_press":null,"block":1,"trial_type":"audio-keyboard-response","trial_index":263,"time_elapsed":426816,"internal_node_id":"0.0-13.0-3.52","match_key":"l","participant_id":"19"},{"rt":null,"stimulus":"Sounds/frog_label.wav","key_press":null,"block":1,"trial_type":"audio-keyboard-response","trial_index":264,"time_elapsed":427709,"internal_node_id":"0.0-13.0-0.53","match_key":"l","participant_id":"19"},{"rt":null,"stimulus":"<p style=\"font-size: 48px;\">+</p>","key_press":null,"block":1,"trial_type":"html-keyboard-response","trial_index":265,"time_elapsed":428712,"internal_node_id":"0.0-13.0-1.53","match_key":"l","participant_id":"19"},{"rt":639.9949999904493,"stimulus":"Images/dog_3.png","key_press":65,"stim_onset":1582059702095,"block":1,"match_type":"non-match","image_category":"dog","sound_category":"frog","audio_type":"label","phase":"test","trial_type":"image-keyboard-response","trial_index":266,"time_elapsed":429353,"internal_node_id":"0.0-13.0-2.53","match_key":"l","participant_id":"19","correct":true},{"rt":null,"stimulus":"Sounds/correct.wav","key_press":null,"block":1,"trial_type":"audio-keyboard-response","trial_index":267,"time_elapsed":431365,"internal_node_id":"0.0-13.0-3.53","match_key":"l","participant_id":"19"},{"rt":null,"stimulus":"Sounds/rooster_sound.wav","key_press":null,"block":1,"trial_type":"audio-keyboard-response","trial_index":268,"time_elapsed":432029,"internal_node_id":"0.0-13.0-0.54","match_key":"l","participant_id":"19"},{"rt":null,"stimulus":"<p style=\"font-size: 48px;\">+</p>","key_press":null,"block":1,"trial_type":"html-keyboard-response","trial_index":269,"time_elapsed":433029,"internal_node_id":"0.0-13.0-1.54","match_key":"l","participant_id":"19"},{"rt":915.2000000030966,"stimulus":"Images/rooster_1.png","key_press":76,"stim_onset":1582059706412,"block":1,"match_type":"match","image_category":"rooster","sound_category":"rooster","audio_type":"sound","phase":"test","trial_type":"image-keyboard-response","trial_index":270,"time_elapsed":433945,"internal_node_id":"0.0-13.0-2.54","match_key":"l","participant_id":"19","correct":true},{"rt":null,"stimulus":"Sounds/correct.wav","key_press":null,"block":1,"trial_type":"audio-keyboard-response","trial_index":271,"time_elapsed":435952,"internal_node_id":"0.0-13.0-3.54","match_key":"l","participant_id":"19"},{"rt":null,"stimulus":"Sounds/dog_label.wav","key_press":null,"block":1,"trial_type":"audio-keyboard-response","trial_index":272,"time_elapsed":436610,"internal_node_id":"0.0-13.0-0.55","match_key":"l","participant_id":"19"},{"rt":null,"stimulus":"<p style=\"font-size: 48px;\">+</p>","key_press":null,"block":1,"trial_type":"html-keyboard-response","trial_index":273,"time_elapsed":437612,"internal_node_id":"0.0-13.0-1.55","match_key":"l","participant_id":"19"},{"rt":1019.9199999915436,"stimulus":"Images/motorcycle_2.png","key_press":65,"stim_onset":1582059710995,"block":1,"match_type":"non-match","image_category":"motorcycle","sound_category":"dog","audio_type":"label","phase":"test","trial_type":"image-keyboard-response","trial_index":274,"time_elapsed":438634,"internal_node_id":"0.0-13.0-2.55","match_key":"l","participant_id":"19","correct":true},{"rt":null,"stimulus":"Sounds/correct.wav","key_press":null,"block":1,"trial_type":"audio-keyboard-response","trial_index":275,"time_elapsed":440650,"internal_node_id":"0.0-13.0-3.55","match_key":"l","participant_id":"19"},{"rt":null,"stimulus":"Sounds/cow_sound.wav","key_press":null,"block":1,"trial_type":"audio-keyboard-response","trial_index":276,"time_elapsed":441670,"internal_node_id":"0.0-13.0-0.56","match_key":"l","participant_id":"19"},{"rt":null,"stimulus":"<p style=\"font-size: 48px;\">+</p>","key_press":null,"block":1,"trial_type":"html-keyboard-response","trial_index":277,"time_elapsed":442662,"internal_node_id":"0.0-13.0-1.56","match_key":"l","participant_id":"19"},{"rt":1617.7599999937229,"stimulus":"Images/frog_1.png","key_press":65,"stim_onset":1582059716045,"block":1,"match_type":"non-match","image_category":"frog","sound_category":"cow","audio_type":"sound","phase":"test","trial_type":"image-keyboard-response","trial_index":278,"time_elapsed":444281,"internal_node_id":"0.0-13.0-2.56","match_key":"l","participant_id":"19","correct":true},{"rt":null,"stimulus":"Sounds/correct.wav","key_press":null,"block":1,"trial_type":"audio-keyboard-response","trial_index":279,"time_elapsed":446286,"internal_node_id":"0.0-13.0-3.56","match_key":"l","participant_id":"19"},{"rt":null,"stimulus":"Sounds/motorcycle_sound.wav","key_press":null,"block":1,"trial_type":"audio-keyboard-response","trial_index":280,"time_elapsed":447410,"internal_node_id":"0.0-13.0-0.57","match_key":"l","participant_id":"19"},{"rt":null,"stimulus":"<p style=\"font-size: 48px;\">+</p>","key_press":null,"block":1,"trial_type":"html-keyboard-response","trial_index":281,"time_elapsed":448412,"internal_node_id":"0.0-13.0-1.57","match_key":"l","participant_id":"19"},{"rt":1323.5600000043632,"stimulus":"Images/motorcycle_2.png","key_press":76,"stim_onset":1582059721796,"block":1,"match_type":"match","image_category":"motorcycle","sound_category":"motorcycle","audio_type":"sound","phase":"test","trial_type":"image-keyboard-response","trial_index":282,"time_elapsed":449737,"internal_node_id":"0.0-13.0-2.57","match_key":"l","participant_id":"19","correct":true},{"rt":null,"stimulus":"Sounds/correct.wav","key_press":null,"block":1,"trial_type":"audio-keyboard-response","trial_index":283,"time_elapsed":451751,"internal_node_id":"0.0-13.0-3.57","match_key":"l","participant_id":"19"},{"rt":null,"stimulus":"Sounds/cow_label.wav","key_press":null,"block":1,"trial_type":"audio-keyboard-response","trial_index":284,"time_elapsed":452770,"internal_node_id":"0.0-13.0-0.58","match_key":"l","participant_id":"19"},{"rt":null,"stimulus":"<p style=\"font-size: 48px;\">+</p>","key_press":null,"block":1,"trial_type":"html-keyboard-response","trial_index":285,"time_elapsed":453762,"internal_node_id":"0.0-13.0-1.58","match_key":"l","participant_id":"19"},{"rt":549.7900000045775,"stimulus":"Images/cow_cartoon.png","key_press":76,"stim_onset":1582059727146,"block":1,"match_type":"match","image_category":"cow","sound_category":"cow","audio_type":"label","phase":"test","trial_type":"image-keyboard-response","trial_index":286,"time_elapsed":454313,"internal_node_id":"0.0-13.0-2.58","match_key":"l","participant_id":"19","correct":true},{"rt":null,"stimulus":"Sounds/correct.wav","key_press":null,"block":1,"trial_type":"audio-keyboard-response","trial_index":287,"time_elapsed":456323,"internal_node_id":"0.0-13.0-3.58","match_key":"l","participant_id":"19"},{"rt":null,"stimulus":"Sounds/motorcycle_label.wav","key_press":null,"block":1,"trial_type":"audio-keyboard-response","trial_index":288,"time_elapsed":457470,"internal_node_id":"0.0-13.0-0.59","match_key":"l","participant_id":"19"},{"rt":null,"stimulus":"<p style=\"font-size: 48px;\">+</p>","key_press":null,"block":1,"trial_type":"html-keyboard-response","trial_index":289,"time_elapsed":458462,"internal_node_id":"0.0-13.0-1.59","match_key":"l","participant_id":"19"},{"rt":393.72500000172295,"stimulus":"Images/motorcycle_1.png","key_press":76,"stim_onset":1582059731845,"block":1,"match_type":"match","image_category":"motorcycle","sound_category":"motorcycle","audio_type":"label","phase":"test","trial_type":"image-keyboard-response","trial_index":290,"time_elapsed":458857,"internal_node_id":"0.0-13.0-2.59","match_key":"l","participant_id":"19","correct":true},{"rt":null,"stimulus":"Sounds/correct.wav","key_press":null,"block":1,"trial_type":"audio-keyboard-response","trial_index":291,"time_elapsed":460867,"internal_node_id":"0.0-13.0-3.59","match_key":"l","participant_id":"19"},{"rt":null,"stimulus":"Sounds/car_sound.wav","key_press":null,"block":1,"trial_type":"audio-keyboard-response","trial_index":292,"time_elapsed":461950,"internal_node_id":"0.0-13.0-0.60","match_key":"l","participant_id":"19"},{"rt":null,"stimulus":"<p style=\"font-size: 48px;\">+</p>","key_press":null,"block":1,"trial_type":"html-keyboard-response","trial_index":293,"time_elapsed":462946,"internal_node_id":"0.0-13.0-1.60","match_key":"l","participant_id":"19"},{"rt":550.3400000015972,"stimulus":"Images/whistle_1.png","key_press":65,"stim_onset":1582059736329,"block":1,"match_type":"non-match","image_category":"whistle","sound_category":"car","audio_type":"sound","phase":"test","trial_type":"image-keyboard-response","trial_index":294,"time_elapsed":463497,"internal_node_id":"0.0-13.0-2.60","match_key":"l","participant_id":"19","correct":true},{"rt":null,"stimulus":"Sounds/correct.wav","key_press":null,"block":1,"trial_type":"audio-keyboard-response","trial_index":295,"time_elapsed":465504,"internal_node_id":"0.0-13.0-3.60","match_key":"l","participant_id":"19"},{"rt":null,"stimulus":"Sounds/motorcycle_sound.wav","key_press":null,"block":1,"trial_type":"audio-keyboard-response","trial_index":296,"time_elapsed":466610,"internal_node_id":"0.0-13.0-0.61","match_key":"l","participant_id":"19"},{"rt":null,"stimulus":"<p style=\"font-size: 48px;\">+</p>","key_press":null,"block":1,"trial_type":"html-keyboard-response","trial_index":297,"time_elapsed":467613,"internal_node_id":"0.0-13.0-1.61","match_key":"l","participant_id":"19"},{"rt":1307.6799999980722,"stimulus":"Images/train_cartoon.png","key_press":65,"stim_onset":1582059740996,"block":1,"match_type":"non-match","image_category":"train","sound_category":"motorcycle","audio_type":"sound","phase":"test","trial_type":"image-keyboard-response","trial_index":298,"time_elapsed":468921,"internal_node_id":"0.0-13.0-2.61","match_key":"l","participant_id":"19","correct":true},{"rt":null,"stimulus":"Sounds/correct.wav","key_press":null,"block":1,"trial_type":"audio-keyboard-response","trial_index":299,"time_elapsed":470936,"internal_node_id":"0.0-13.0-3.61","match_key":"l","participant_id":"19"},{"rt":null,"stimulus":"Sounds/whistle_sound.wav","key_press":null,"block":1,"trial_type":"audio-keyboard-response","trial_index":300,"time_elapsed":471630,"internal_node_id":"0.0-13.0-0.62","match_key":"l","participant_id":"19"},{"rt":null,"stimulus":"<p style=\"font-size: 48px;\">+</p>","key_press":null,"block":1,"trial_type":"html-keyboard-response","trial_index":301,"time_elapsed":472629,"internal_node_id":"0.0-13.0-1.62","match_key":"l","participant_id":"19"},{"rt":482.8750000015134,"stimulus":"Images/cow_2.png","key_press":65,"stim_onset":1582059746013,"block":1,"match_type":"non-match","image_category":"cow","sound_category":"whistle","audio_type":"sound","phase":"test","trial_type":"image-keyboard-response","trial_index":302,"time_elapsed":473113,"internal_node_id":"0.0-13.0-2.62","match_key":"l","participant_id":"19","correct":true},{"rt":null,"stimulus":"Sounds/correct.wav","key_press":null,"block":1,"trial_type":"audio-keyboard-response","trial_index":303,"time_elapsed":475117,"internal_node_id":"0.0-13.0-3.62","match_key":"l","participant_id":"19"},{"rt":null,"stimulus":"Sounds/motorcycle_label.wav","key_press":null,"block":1,"trial_type":"audio-keyboard-response","trial_index":304,"time_elapsed":476250,"internal_node_id":"0.0-13.0-0.63","match_key":"l","participant_id":"19"},{"rt":null,"stimulus":"<p style=\"font-size: 48px;\">+</p>","key_press":null,"block":1,"trial_type":"html-keyboard-response","trial_index":305,"time_elapsed":477246,"internal_node_id":"0.0-13.0-1.63","match_key":"l","participant_id":"19"},{"rt":522.354999993695,"stimulus":"Images/cow_3.png","key_press":65,"stim_onset":1582059750629,"block":1,"match_type":"non-match","image_category":"cow","sound_category":"motorcycle","audio_type":"label","phase":"test","trial_type":"image-keyboard-response","trial_index":306,"time_elapsed":477769,"internal_node_id":"0.0-13.0-2.63","match_key":"l","participant_id":"19","correct":true},{"rt":null,"stimulus":"Sounds/correct.wav","key_press":null,"block":1,"trial_type":"audio-keyboard-response","trial_index":307,"time_elapsed":479785,"internal_node_id":"0.0-13.0-3.63","match_key":"l","participant_id":"19"},{"rt":null,"stimulus":"Sounds/car_sound.wav","key_press":null,"block":1,"trial_type":"audio-keyboard-response","trial_index":308,"time_elapsed":480850,"internal_node_id":"0.0-13.0-0.64","match_key":"l","participant_id":"19"},{"rt":null,"stimulus":"<p style=\"font-size: 48px;\">+</p>","key_press":null,"block":1,"trial_type":"html-keyboard-response","trial_index":309,"time_elapsed":481846,"internal_node_id":"0.0-13.0-1.64","match_key":"l","participant_id":"19"},{"rt":514.3300000054296,"stimulus":"Images/car_orig.png","key_press":76,"stim_onset":1582059755229,"block":1,"match_type":"match","image_category":"car","sound_category":"car","audio_type":"sound","phase":"test","trial_type":"image-keyboard-response","trial_index":310,"time_elapsed":482361,"internal_node_id":"0.0-13.0-2.64","match_key":"l","participant_id":"19","correct":true},{"rt":null,"stimulus":"Sounds/correct.wav","key_press":null,"block":1,"trial_type":"audio-keyboard-response","trial_index":311,"time_elapsed":484370,"internal_node_id":"0.0-13.0-3.64","match_key":"l","participant_id":"19"},{"rt":null,"stimulus":"Sounds/car_label.wav","key_press":null,"block":1,"trial_type":"audio-keyboard-response","trial_index":312,"time_elapsed":485450,"internal_node_id":"0.0-13.0-0.65","match_key":"l","participant_id":"19"},{"rt":null,"stimulus":"<p style=\"font-size: 48px;\">+</p>","key_press":null,"block":1,"trial_type":"html-keyboard-response","trial_index":313,"time_elapsed":486446,"internal_node_id":"0.0-13.0-1.65","match_key":"l","participant_id":"19"},{"rt":458.00499999313615,"stimulus":"Images/frog_3.png","key_press":65,"stim_onset":1582059759829,"block":1,"match_type":"non-match","image_category":"frog","sound_category":"car","audio_type":"label","phase":"test","trial_type":"image-keyboard-response","trial_index":314,"time_elapsed":486905,"internal_node_id":"0.0-13.0-2.65","match_key":"l","participant_id":"19","correct":true},{"rt":null,"stimulus":"Sounds/correct.wav","key_press":null,"block":1,"trial_type":"audio-keyboard-response","trial_index":315,"time_elapsed":488916,"internal_node_id":"0.0-13.0-3.65","match_key":"l","participant_id":"19"},{"rt":null,"stimulus":"Sounds/train_label.wav","key_press":null,"block":1,"trial_type":"audio-keyboard-response","trial_index":316,"time_elapsed":490190,"internal_node_id":"0.0-13.0-0.66","match_key":"l","participant_id":"19"},{"rt":null,"stimulus":"<p style=\"font-size: 48px;\">+</p>","key_press":null,"block":1,"trial_type":"html-keyboard-response","trial_index":317,"time_elapsed":491179,"internal_node_id":"0.0-13.0-1.66","match_key":"l","participant_id":"19"},{"rt":524.0999999950873,"stimulus":"Images/cow_cartoon.png","key_press":65,"stim_onset":1582059764563,"block":1,"match_type":"non-match","image_category":"cow","sound_category":"train","audio_type":"label","phase":"test","trial_type":"image-keyboard-response","trial_index":318,"time_elapsed":491705,"internal_node_id":"0.0-13.0-2.66","match_key":"l","participant_id":"19","correct":true},{"rt":null,"stimulus":"Sounds/correct.wav","key_press":null,"block":1,"trial_type":"audio-keyboard-response","trial_index":319,"time_elapsed":493716,"internal_node_id":"0.0-13.0-3.66","match_key":"l","participant_id":"19"},{"rt":null,"stimulus":"Sounds/whistle_sound.wav","key_press":null,"block":1,"trial_type":"audio-keyboard-response","trial_index":320,"time_elapsed":494410,"internal_node_id":"0.0-13.0-0.67","match_key":"l","participant_id":"19"},{"rt":null,"stimulus":"<p style=\"font-size: 48px;\">+</p>","key_press":null,"block":1,"trial_type":"html-keyboard-response","trial_index":321,"time_elapsed":495413,"internal_node_id":"0.0-13.0-1.67","match_key":"l","participant_id":"19"},{"rt":483.30999999598134,"stimulus":"Images/whistle_cartoon.png","key_press":76,"stim_onset":1582059768796,"block":1,"match_type":"match","image_category":"whistle","sound_category":"whistle","audio_type":"sound","phase":"test","trial_type":"image-keyboard-response","trial_index":322,"time_elapsed":495897,"internal_node_id":"0.0-13.0-2.67","match_key":"l","participant_id":"19","correct":true},{"rt":null,"stimulus":"Sounds/correct.wav","key_press":null,"block":1,"trial_type":"audio-keyboard-response","trial_index":323,"time_elapsed":497901,"internal_node_id":"0.0-13.0-3.67","match_key":"l","participant_id":"19"},{"rt":null,"stimulus":"Sounds/frog_label.wav","key_press":null,"block":1,"trial_type":"audio-keyboard-response","trial_index":324,"time_elapsed":498790,"internal_node_id":"0.0-13.0-0.68","match_key":"l","participant_id":"19"},{"rt":null,"stimulus":"<p style=\"font-size: 48px;\">+</p>","key_press":null,"block":1,"trial_type":"html-keyboard-response","trial_index":325,"time_elapsed":499779,"internal_node_id":"0.0-13.0-1.68","match_key":"l","participant_id":"19"},{"rt":756.7800000106217,"stimulus":"Images/frog_2.png","key_press":76,"stim_onset":1582059773163,"block":1,"match_type":"match","image_category":"frog","sound_category":"frog","audio_type":"label","phase":"test","trial_type":"image-keyboard-response","trial_index":326,"time_elapsed":500537,"internal_node_id":"0.0-13.0-2.68","match_key":"l","participant_id":"19","correct":true},{"rt":null,"stimulus":"Sounds/correct.wav","key_press":null,"block":1,"trial_type":"audio-keyboard-response","trial_index":327,"time_elapsed":502550,"internal_node_id":"0.0-13.0-3.68","match_key":"l","participant_id":"19"},{"rt":null,"stimulus":"Sounds/motorcycle_label.wav","key_press":null,"block":1,"trial_type":"audio-keyboard-response","trial_index":328,"time_elapsed":503690,"internal_node_id":"0.0-13.0-0.69","match_key":"l","participant_id":"19"},{"rt":null,"stimulus":"<p style=\"font-size: 48px;\">+</p>","key_press":null,"block":1,"trial_type":"html-keyboard-response","trial_index":329,"time_elapsed":504680,"internal_node_id":"0.0-13.0-1.69","match_key":"l","participant_id":"19"},{"rt":416.73500000615604,"stimulus":"Images/motorcycle_3.png","key_press":76,"stim_onset":1582059778063,"block":1,"match_type":"match","image_category":"motorcycle","sound_category":"motorcycle","audio_type":"label","phase":"test","trial_type":"image-keyboard-response","trial_index":330,"time_elapsed":505097,"internal_node_id":"0.0-13.0-2.69","match_key":"l","participant_id":"19","correct":true},{"rt":null,"stimulus":"Sounds/correct.wav","key_press":null,"block":1,"trial_type":"audio-keyboard-response","trial_index":331,"time_elapsed":507101,"internal_node_id":"0.0-13.0-3.69","match_key":"l","participant_id":"19"},{"rt":null,"stimulus":"Sounds/cow_sound.wav","key_press":null,"block":1,"trial_type":"audio-keyboard-response","trial_index":332,"time_elapsed":508110,"internal_node_id":"0.0-13.0-0.70","match_key":"l","participant_id":"19"},{"rt":null,"stimulus":"<p style=\"font-size: 48px;\">+</p>","key_press":null,"block":1,"trial_type":"html-keyboard-response","trial_index":333,"time_elapsed":509113,"internal_node_id":"0.0-13.0-1.70","match_key":"l","participant_id":"19"},{"rt":1327.1899999963352,"stimulus":"Images/cow_3.png","key_press":76,"stim_onset":1582059782496,"block":1,"match_type":"match","image_category":"cow","sound_category":"cow","audio_type":"sound","phase":"test","trial_type":"image-keyboard-response","trial_index":334,"time_elapsed":510441,"internal_node_id":"0.0-13.0-2.70","match_key":"l","participant_id":"19","correct":true},{"rt":null,"stimulus":"Sounds/correct.wav","key_press":null,"block":1,"trial_type":"audio-keyboard-response","trial_index":335,"time_elapsed":512449,"internal_node_id":"0.0-13.0-3.70","match_key":"l","participant_id":"19"},{"rt":null,"stimulus":"Sounds/gun_sound.wav","key_press":null,"block":1,"trial_type":"audio-keyboard-response","trial_index":336,"time_elapsed":513030,"internal_node_id":"0.0-13.0-0.71","match_key":"l","participant_id":"19"},{"rt":null,"stimulus":"<p style=\"font-size: 48px;\">+</p>","key_press":null,"block":1,"trial_type":"html-keyboard-response","trial_index":337,"time_elapsed":514030,"internal_node_id":"0.0-13.0-1.71","match_key":"l","participant_id":"19"},{"rt":970.4249999922467,"stimulus":"Images/gun_2.png","key_press":76,"stim_onset":1582059787413,"block":1,"match_type":"match","image_category":"gun","sound_category":"gun","audio_type":"sound","phase":"test","trial_type":"image-keyboard-response","trial_index":338,"time_elapsed":515001,"internal_node_id":"0.0-13.0-2.71","match_key":"l","participant_id":"19","correct":true},{"rt":null,"stimulus":"Sounds/correct.wav","key_press":null,"block":1,"trial_type":"audio-keyboard-response","trial_index":339,"time_elapsed":517017,"internal_node_id":"0.0-13.0-3.71","match_key":"l","participant_id":"19"},{"rt":null,"stimulus":"Sounds/dog_label.wav","key_press":null,"block":1,"trial_type":"audio-keyboard-response","trial_index":340,"time_elapsed":517670,"internal_node_id":"0.0-13.0-0.72","match_key":"l","participant_id":"19"},{"rt":null,"stimulus":"<p style=\"font-size: 48px;\">+</p>","key_press":null,"block":1,"trial_type":"html-keyboard-response","trial_index":341,"time_elapsed":518663,"internal_node_id":"0.0-13.0-1.72","match_key":"l","participant_id":"19"},{"rt":528.9349999948172,"stimulus":"Images/dog_cartoon.png","key_press":76,"stim_onset":1582059792046,"block":1,"match_type":"match","image_category":"dog","sound_category":"dog","audio_type":"label","phase":"test","trial_type":"image-keyboard-response","trial_index":342,"time_elapsed":519193,"internal_node_id":"0.0-13.0-2.72","match_key":"l","participant_id":"19","correct":true},{"rt":null,"stimulus":"Sounds/correct.wav","key_press":null,"block":1,"trial_type":"audio-keyboard-response","trial_index":343,"time_elapsed":521202,"internal_node_id":"0.0-13.0-3.72","match_key":"l","participant_id":"19"},{"rt":null,"stimulus":"Sounds/dog_sound.wav","key_press":null,"block":1,"trial_type":"audio-keyboard-response","trial_index":344,"time_elapsed":521910,"internal_node_id":"0.0-13.0-0.73","match_key":"l","participant_id":"19"},{"rt":null,"stimulus":"<p style=\"font-size: 48px;\">+</p>","key_press":null,"block":1,"trial_type":"html-keyboard-response","trial_index":345,"time_elapsed":522914,"internal_node_id":"0.0-13.0-1.73","match_key":"l","participant_id":"19"},{"rt":582.3349999991478,"stimulus":"Images/dog_orig.png","key_press":76,"stim_onset":1582059796296,"block":1,"match_type":"match","image_category":"dog","sound_category":"dog","audio_type":"sound","phase":"test","trial_type":"image-keyboard-response","trial_index":346,"time_elapsed":523497,"internal_node_id":"0.0-13.0-2.73","match_key":"l","participant_id":"19","correct":true},{"rt":null,"stimulus":"Sounds/correct.wav","key_press":null,"block":1,"trial_type":"audio-keyboard-response","trial_index":347,"time_elapsed":525503,"internal_node_id":"0.0-13.0-3.73","match_key":"l","participant_id":"19"},{"rt":null,"stimulus":"Sounds/cat_sound.wav","key_press":null,"block":1,"trial_type":"audio-keyboard-response","trial_index":348,"time_elapsed":526350,"internal_node_id":"0.0-13.0-0.74","match_key":"l","participant_id":"19"},{"rt":null,"stimulus":"<p style=\"font-size: 48px;\">+</p>","key_press":null,"block":1,"trial_type":"html-keyboard-response","trial_index":349,"time_elapsed":527347,"internal_node_id":"0.0-13.0-1.74","match_key":"l","participant_id":"19"},{"rt":613.5599999979604,"stimulus":"Images/cat_2.png","key_press":76,"stim_onset":1582059800730,"block":1,"match_type":"match","image_category":"cat","sound_category":"cat","audio_type":"sound","phase":"test","trial_type":"image-keyboard-response","trial_index":350,"time_elapsed":527961,"internal_node_id":"0.0-13.0-2.74","match_key":"l","participant_id":"19","correct":true},{"rt":null,"stimulus":"Sounds/correct.wav","key_press":null,"block":1,"trial_type":"audio-keyboard-response","trial_index":351,"time_elapsed":529970,"internal_node_id":"0.0-13.0-3.74","match_key":"l","participant_id":"19"},{"rt":null,"stimulus":"Sounds/car_sound.wav","key_press":null,"block":1,"trial_type":"audio-keyboard-response","trial_index":352,"time_elapsed":531050,"internal_node_id":"0.0-13.0-0.75","match_key":"l","participant_id":"19"},{"rt":null,"stimulus":"<p style=\"font-size: 48px;\">+</p>","key_press":null,"block":1,"trial_type":"html-keyboard-response","trial_index":353,"time_elapsed":532047,"internal_node_id":"0.0-13.0-1.75","match_key":"l","participant_id":"19"},{"rt":841.6900000011083,"stimulus":"Images/dog_cartoon.png","key_press":65,"stim_onset":1582059805430,"block":1,"match_type":"non-match","image_category":"dog","sound_category":"car","audio_type":"sound","phase":"test","trial_type":"image-keyboard-response","trial_index":354,"time_elapsed":532889,"internal_node_id":"0.0-13.0-2.75","match_key":"l","participant_id":"19","correct":true},{"rt":null,"stimulus":"Sounds/correct.wav","key_press":null,"block":1,"trial_type":"audio-keyboard-response","trial_index":355,"time_elapsed":534899,"internal_node_id":"0.0-13.0-3.75","match_key":"l","participant_id":"19"},{"rt":null,"stimulus":"Sounds/cat_sound.wav","key_press":null,"block":1,"trial_type":"audio-keyboard-response","trial_index":356,"time_elapsed":535710,"internal_node_id":"0.0-13.0-0.76","match_key":"l","participant_id":"19"},{"rt":null,"stimulus":"<p style=\"font-size: 48px;\">+</p>","key_press":null,"block":1,"trial_type":"html-keyboard-response","trial_index":357,"time_elapsed":536713,"internal_node_id":"0.0-13.0-1.76","match_key":"l","participant_id":"19"},{"rt":783.0949999915902,"stimulus":"Images/cow_1.png","key_press":65,"stim_onset":1582059810096,"block":1,"match_type":"non-match","image_category":"cow","sound_category":"cat","audio_type":"sound","phase":"test","trial_type":"image-keyboard-response","trial_index":358,"time_elapsed":537498,"internal_node_id":"0.0-13.0-2.76","match_key":"l","participant_id":"19","correct":true},{"rt":null,"stimulus":"Sounds/correct.wav","key_press":null,"block":1,"trial_type":"audio-keyboard-response","trial_index":359,"time_elapsed":539502,"internal_node_id":"0.0-13.0-3.76","match_key":"l","participant_id":"19"},{"rt":null,"stimulus":"Sounds/car_label.wav","key_press":null,"block":1,"trial_type":"audio-keyboard-response","trial_index":360,"time_elapsed":540590,"internal_node_id":"0.0-13.0-0.77","match_key":"l","participant_id":"19"},{"rt":null,"stimulus":"<p style=\"font-size: 48px;\">+</p>","key_press":null,"block":1,"trial_type":"html-keyboard-response","trial_index":361,"time_elapsed":541580,"internal_node_id":"0.0-13.0-1.77","match_key":"l","participant_id":"19"},{"rt":460.14999999897555,"stimulus":"Images/car_1.png","key_press":76,"stim_onset":1582059814963,"block":1,"match_type":"match","image_category":"car","sound_category":"car","audio_type":"label","phase":"test","trial_type":"image-keyboard-response","trial_index":362,"time_elapsed":542041,"internal_node_id":"0.0-13.0-2.77","match_key":"l","participant_id":"19","correct":true},{"rt":null,"stimulus":"Sounds/correct.wav","key_press":null,"block":1,"trial_type":"audio-keyboard-response","trial_index":363,"time_elapsed":544051,"internal_node_id":"0.0-13.0-3.77","match_key":"l","participant_id":"19"},{"rt":null,"stimulus":"Sounds/car_sound.wav","key_press":null,"block":1,"trial_type":"audio-keyboard-response","trial_index":364,"time_elapsed":545110,"internal_node_id":"0.0-13.0-0.78","match_key":"l","participant_id":"19"},{"rt":null,"stimulus":"<p style=\"font-size: 48px;\">+</p>","key_press":null,"block":1,"trial_type":"html-keyboard-response","trial_index":365,"time_elapsed":546114,"internal_node_id":"0.0-13.0-1.78","match_key":"l","participant_id":"19"},{"rt":950.8050000004005,"stimulus":"Images/rooster_orig.png","key_press":65,"stim_onset":1582059819497,"block":1,"match_type":"non-match","image_category":"rooster","sound_category":"car","audio_type":"sound","phase":"test","trial_type":"image-keyboard-response","trial_index":366,"time_elapsed":547065,"internal_node_id":"0.0-13.0-2.78","match_key":"l","participant_id":"19","correct":true},{"rt":null,"stimulus":"Sounds/correct.wav","key_press":null,"block":1,"trial_type":"audio-keyboard-response","trial_index":36