"rt","responses","trial_type","trial_index","time_elapsed","internal_node_id","match_key","participant_id","stimulus","key_press","block","stim_onset","match_type","image_category","sound_category","audio_type","phase","correct"
"3885.0299999903655","{""Q0"":""19""}","survey-text","0","3918","0.0-0.0","l","19","","","","","","","","","",""
"7457.225000005565","","html-keyboard-response","1","11386","0.0-1.0","l","19","<p>Use KEYBOARD 1 (match RIGHT)</p><p>Press MATCH to continue.</p>","76","","","","","","","",""
"3452.1700000041164","","html-keyboard-response","2","14840","0.0-2.0","l","19","<p>Welcome to the experiment.</p>","74","","","","","","","",""
"732.3299999989104","","html-keyboard-response","3","15577","0.0-3.0","l","19","<p>Thank you for agreeing to participate in this study.</p><p>If during any part of the procedure you must stop for any reason, please inform the researcher that you do not wish to continue.</p>","74","","","","","","","",""
"574.5749999914551","","html-keyboard-response","4","16152","0.0-4.0","l","19","<p>In this experiment, you will hear various words or sounds and see pictures of various animals and objects.</p><p>Most of the images will be of common everyday objects, such as cars, cats, cows, firearms, frogs, chickens, whistles, trains, motorcycles, and dogs.</p><p>Some of the images will be real-life stills, while others will be cartoons.</p>","74","","","","","","","",""
"526.6049999918323","","html-keyboard-response","5","16680","0.0-5.0","l","19","<p>Sometimes, the word/sound will match the picture, for example you'll hear a meowing sound and see a cat.</p><p>Other times, the picture will not match the sound or word.</p><p>Your task is to decide as quickly as possible if the word/sound matches the picture or not. </p>","74","","","","","","","",""
"478.92499998852145","","html-keyboard-response","6","17160","0.0-6.0","l","19","<p>For example, if you hear the word ""cat"" or hear a meowing sound, and then see a picture of a cat, you should press the MATCH key.</p><p> If the sound and image do not match, press the NOT-MATCH key to indicate that there is not a match.</p>","74","","","","","","","",""
"462.92999999423046","","html-keyboard-response","7","17624","0.0-7.0","l","19","<p>If you make a mistake, you will hear a buzzing sound instead of a more pleasant sound.</p><p> Try to respond as quickly as possible, while making as few errors as possible. If you are making mistakes, you are probably rushing.</p>","74","","","","","","","",""
"446.9449999887729","","html-keyboard-response","8","18072","0.0-8.0","l","19","<p>Please try to not move or blink your eyes during the presentation of the images. You can move and blink between images.</p><p>During the experiment there will be some breaks during which you can rest your eyes.</p>","74","","","","","","","",""
"734.7849999932805","","html-keyboard-response","9","18808","0.0-9.0","l","19","<p>We will begin with 10 practice trials. Please let the experimenter know if you have any questions.</p>","74","","","","","","","",""
"null","","audio-keyboard-response","10","19399","0.0-10.0-0.0","l","19","Sounds/gun_sound.wav","null","0","","","","","","",""
"null","","html-keyboard-response","11","20390","0.0-10.0-1.0","l","19","<p style=""font-size: 48px;"">+</p>","null","0","","","","","","",""
"3552.450000002864","","image-keyboard-response","12","23945","0.0-10.0-2.0","l","19","Images/dog_cartoon.png","65","0","1582059293774","non-match","dog","gun","sound","practice","true"
"null","","audio-keyboard-response","13","25951","0.0-10.0-3.0","l","19","Sounds/correct.wav","null","0","","","","","","",""
"null","","audio-keyboard-response","14","26839","0.0-10.0-0.1","l","19","Sounds/frog_label.wav","null","0","","","","","","",""
"null","","html-keyboard-response","15","27841","0.0-10.0-1.1","l","19","<p style=""font-size: 48px;"">+</p>","null","0","","","","","","",""
"742.5999999977648","","image-keyboard-response","16","28584","0.0-10.0-2.1","l","19","Images/frog_2.png","76","0","1582059301224","match","frog","frog","label","practice","true"
"null","","audio-keyboard-response","17","30598","0.0-10.0-3.1","l","19","Sounds/correct.wav","null","0","","","","","","",""
"null","","audio-keyboard-response","18","31439","0.0-10.0-0.2","l","19","Sounds/cat_label.wav","null","0","","","","","","",""
"null","","html-keyboard-response","19","32441","0.0-10.0-1.2","l","19","<p style=""font-size: 48px;"">+</p>","null","0","","","","","","",""
"942.7050000085728","","image-keyboard-response","20","33384","0.0-10.0-2.2","l","19","Images/car_orig.png","65","0","1582059305824","non-match","car","cat","label","practice","true"
"null","","audio-keyboard-response","21","35394","0.0-10.0-3.2","l","19","Sounds/correct.wav","null","0","","","","","","",""
"null","","audio-keyboard-response","22","36679","0.0-10.0-0.3","l","19","Sounds/train_label.wav","null","0","","","","","","",""
"null","","html-keyboard-response","23","37674","0.0-10.0-1.3","l","19","<p style=""font-size: 48px;"">+</p>","null","0","","","","","","",""
"1165.4649999982212","","image-keyboard-response","24","38840","0.0-10.0-2.3","l","19","Images/whistle_1.png","65","0","1582059311057","non-match","whistle","train","label","practice","true"
"null","","audio-keyboard-response","25","40850","0.0-10.0-3.3","l","19","Sounds/correct.wav","null","0","","","","","","",""
"null","","audio-keyboard-response","26","41879","0.0-10.0-0.4","l","19","Sounds/cow_sound.wav","null","0","","","","","","",""
"null","","html-keyboard-response","27","42874","0.0-10.0-1.4","l","19","<p style=""font-size: 48px;"">+</p>","null","0","","","","","","",""
"1853.2699999923352","","image-keyboard-response","28","44729","0.0-10.0-2.4","l","19","Images/cow_3.png","76","0","1582059316257","match","cow","cow","sound","practice","true"
"null","","audio-keyboard-response","29","46731","0.0-10.0-3.4","l","19","Sounds/correct.wav","null","0","","","","","","",""
"null","","audio-keyboard-response","30","47819","0.0-10.0-0.5","l","19","Sounds/car_label.wav","null","0","","","","","","",""
"null","","html-keyboard-response","31","48824","0.0-10.0-1.5","l","19","<p style=""font-size: 48px;"">+</p>","null","0","","","","","","",""
"1247.044999996433","","image-keyboard-response","32","50072","0.0-10.0-2.5","l","19","Images/cow_2.png","65","0","1582059322207","non-match","cow","car","label","practice","true"
"null","","audio-keyboard-response","33","52082","0.0-10.0-3.5","l","19","Sounds/correct.wav","null","0","","","","","","",""
"null","","audio-keyboard-response","34","53159","0.0-10.0-0.6","l","19","Sounds/car_sound.wav","null","0","","","","","","",""
"null","","html-keyboard-response","35","54157","0.0-10.0-1.6","l","19","<p style=""font-size: 48px;"">+</p>","null","0","","","","","","",""
"618.3449999953154","","image-keyboard-response","36","54777","0.0-10.0-2.6","l","19","Images/car_2.png","76","0","1582059327540","match","car","car","sound","practice","true"
"null","","audio-keyboard-response","37","56783","0.0-10.0-3.6","l","19","Sounds/correct.wav","null","0","","","","","","",""
"null","","audio-keyboard-response","38","57919","0.0-10.0-0.7","l","19","Sounds/motorcycle_label.wav","null","0","","","","","","",""
"null","","html-keyboard-response","39","58924","0.0-10.0-1.7","l","19","<p style=""font-size: 48px;"">+</p>","null","0","","","","","","",""
"650.9899999946356","","image-keyboard-response","40","59576","0.0-10.0-2.7","l","19","Images/motorcycle_cartoon.png","76","0","1582059332307","match","motorcycle","motorcycle","label","practice","true"
"null","","audio-keyboard-response","41","61579","0.0-10.0-3.7","l","19","Sounds/correct.wav","null","0","","","","","","",""
"null","","audio-keyboard-response","42","62239","0.0-10.0-0.8","l","19","Sounds/dog_label.wav","null","0","","","","","","",""
"null","","html-keyboard-response","43","63241","0.0-10.0-1.8","l","19","<p style=""font-size: 48px;"">+</p>","null","0","","","","","","",""
"894.5150000072317","","image-keyboard-response","44","64136","0.0-10.0-2.8","l","19","Images/dog_orig.png","76","0","1582059336624","match","dog","dog","label","practice","true"
"null","","audio-keyboard-response","45","66146","0.0-10.0-3.8","l","19","Sounds/correct.wav","null","0","","","","","","",""
"null","","audio-keyboard-response","46","67218","0.0-10.0-0.9","l","19","Sounds/car_label.wav","null","0","","","","","","",""
"null","","html-keyboard-response","47","68224","0.0-10.0-1.9","l","19","<p style=""font-size: 48px;"">+</p>","null","0","","","","","","",""
"950.6299999920884","","image-keyboard-response","48","69176","0.0-10.0-2.9","l","19","Images/gun_cartoon.png","65","0","1582059341607","non-match","gun","car","label","practice","true"
"null","","audio-keyboard-response","49","71180","0.0-10.0-3.9","l","19","Sounds/correct.wav","null","0","","","","","","",""
"15020.229999994626","","html-keyboard-response","50","86200","0.0-11.0","l","19","<p>The rest of the experiment is divided into five blocks with 100 trials in each block. It will take about 45 minutes to complete.</p><p>The experimenter will be in the outer room and you can communicate with them through the monitor if you have any questions or wish to stop the experiment.</p>","32","","","","","","","",""
"89760.06000000052","","html-keyboard-response","51","175962","0.0-12.0","l","19","<p>Remember, please try not to move or blink your eyes during the presentation of the images. </p><p>At the end of the experiment, we will show you your scores on the task so you can see how you did.</p><p>The experiment will start on the next screen.</p>","32","","","","","","","",""
"null","","audio-keyboard-response","52","179049","0.0-13.0-0.0","l","19","Sounds/car_sound.wav","null","1","","","","","","",""
"null","","html-keyboard-response","53","180042","0.0-13.0-1.0","l","19","<p style=""font-size: 48px;"">+</p>","null","1","","","","","","",""
"525.2349999936996","","image-keyboard-response","54","180568","0.0-13.0-2.0","l","19","Images/cat_1.png","65","1","1582059453425","non-match","cat","car","sound","test","true"
"null","","audio-keyboard-response","55","182578","0.0-13.0-3.0","l","19","Sounds/correct.wav","null","1","","","","","","",""
"null","","audio-keyboard-response","56","183870","0.0-13.0-0.1","l","19","Sounds/train_label.wav","null","1","","","","","","",""
"null","","html-keyboard-response","57","184875","0.0-13.0-1.1","l","19","<p style=""font-size: 48px;"">+</p>","null","1","","","","","","",""
"699.6749999962049","","image-keyboard-response","58","185576","0.0-13.0-2.1","l","19","Images/gun_3.png","65","1","1582059458258","non-match","gun","train","label","test","true"
"null","","audio-keyboard-response","59","187580","0.0-13.0-3.1","l","19","Sounds/correct.wav","null","1","","","","","","",""
"null","","audio-keyboard-response","60","188409","0.0-13.0-0.2","l","19","Sounds/cat_sound.wav","null","1","","","","","","",""
"null","","html-keyboard-response","61","189409","0.0-13.0-1.2","l","19","<p style=""font-size: 48px;"">+</p>","null","1","","","","","","",""
"550.745000000461","","image-keyboard-response","62","189960","0.0-13.0-2.2","l","19","Images/train_2.png","65","1","1582059462792","non-match","train","cat","sound","test","true"
"null","","audio-keyboard-response","63","191965","0.0-13.0-3.2","l","19","Sounds/correct.wav","null","1","","","","","","",""
"null","","audio-keyboard-response","64","192549","0.0-13.0-0.3","l","19","Sounds/gun_label.wav","null","1","","","","","","",""
"null","","html-keyboard-response","65","193542","0.0-13.0-1.3","l","19","<p style=""font-size: 48px;"">+</p>","null","1","","","","","","",""
"784.9900000001071","","image-keyboard-response","66","194328","0.0-13.0-2.3","l","19","Images/train_1.png","65","1","1582059466925","non-match","train","gun","label","test","true"
"null","","audio-keyboard-response","67","196346","0.0-13.0-3.3","l","19","Sounds/correct.wav","null","1","","","","","","",""
"null","","audio-keyboard-response","68","197049","0.0-13.0-0.4","l","19","Sounds/rooster_label.wav","null","1","","","","","","",""
"null","","html-keyboard-response","69","198059","0.0-13.0-1.4","l","19","<p style=""font-size: 48px;"">+</p>","null","1","","","","","","",""
"492.3549999948591","","image-keyboard-response","70","198552","0.0-13.0-2.4","l","19","Images/rooster_2.png","76","1","1582059471442","match","rooster","rooster","label","test","true"
"null","","audio-keyboard-response","71","200564","0.0-13.0-3.4","l","19","Sounds/correct.wav","null","1","","","","","","",""
"null","","audio-keyboard-response","72","201109","0.0-13.0-0.5","l","19","Sounds/gun_label.wav","null","1","","","","","","",""
"null","","html-keyboard-response","73","202109","0.0-13.0-1.5","l","19","<p style=""font-size: 48px;"">+</p>","null","1","","","","","","",""
"570.9250000072643","","image-keyboard-response","74","202680","0.0-13.0-2.5","l","19","Images/cat_2.png","76","1","1582059475492","non-match","cat","gun","label","test","false"
"null","","audio-keyboard-response","75","204683","0.0-13.0-3.5","l","19","Sounds/incorrect.wav","null","1","","","","","","",""
"null","","audio-keyboard-response","76","205529","0.0-13.0-0.6","l","19","Sounds/cat_label.wav","null","1","","","","","","",""
"null","","html-keyboard-response","77","206526","0.0-13.0-1.6","l","19","<p style=""font-size: 48px;"">+</p>","null","1","","","","","","",""
"761.5799999912269","","image-keyboard-response","78","207288","0.0-13.0-2.6","l","19","Images/cat_1.png","76","1","1582059479909","match","cat","cat","label","test","true"
"null","","audio-keyboard-response","79","209299","0.0-13.0-3.6","l","19","Sounds/correct.wav","null","1","","","","","","",""
"null","","audio-keyboard-response","80","210009","0.0-13.0-0.7","l","19","Sounds/dog_sound.wav","null","1","","","","","","",""
"null","","html-keyboard-response","81","211009","0.0-13.0-1.7","l","19","<p style=""font-size: 48px;"">+</p>","null","1","","","","","","",""
"2550.4999999975553","","image-keyboard-response","82","213560","0.0-13.0-2.7","l","19","Images/whistle_3.png","65","1","1582059484392","non-match","whistle","dog","sound","test","true"
"null","","audio-keyboard-response","83","215568","0.0-13.0-3.7","l","19","Sounds/correct.wav","null","1","","","","","","",""
"null","","audio-keyboard-response","84","216229","0.0-13.0-0.8","l","19","Sounds/dog_label.wav","null","1","","","","","","",""
"null","","html-keyboard-response","85","217226","0.0-13.0-1.8","l","19","<p style=""font-size: 48px;"">+</p>","null","1","","","","","","",""
"973.3600000035949","","image-keyboard-response","86","218200","0.0-13.0-2.8","l","19","Images/frog_orig.png","65","1","1582059490609","non-match","frog","dog","label","test","true"
"null","","audio-keyboard-response","87","220214","0.0-13.0-3.8","l","19","Sounds/correct.wav","null","1","","","","","","",""
"null","","audio-keyboard-response","88","221329","0.0-13.0-0.9","l","19","Sounds/motorcycle_sound.wav","null","1","","","","","","",""
"null","","html-keyboard-response","89","222326","0.0-13.0-1.9","l","19","<p style=""font-size: 48px;"">+</p>","null","1","","","","","","",""
"1217.4300000042422","","image-keyboard-response","90","223544","0.0-13.0-2.9","l","19","Images/cat_3.png","65","1","1582059495709","non-match","cat","motorcycle","sound","test","true"
"null","","audio-keyboard-response","91","225548","0.0-13.0-3.9","l","19","Sounds/correct.wav","null","1","","","","","","",""
"null","","audio-keyboard-response","92","226629","0.0-13.0-0.10","l","19","Sounds/car_label.wav","null","1","","","","","","",""
"null","","html-keyboard-response","93","227626","0.0-13.0-1.10","l","19","<p style=""font-size: 48px;"">+</p>","null","1","","","","","","",""
"1117.5050000019837","","image-keyboard-response","94","228744","0.0-13.0-2.10","l","19","Images/car_cartoon.png","76","1","1582059501009","match","car","car","label","test","true"
"null","","audio-keyboard-response","95","230751","0.0-13.0-3.10","l","19","Sounds/correct.wav","null","1","","","","","","",""
"null","","audio-keyboard-response","96","231589","0.0-13.0-0.11","l","19","Sounds/cat_sound.wav","null","1","","","","","","",""
"null","","html-keyboard-response","97","232593","0.0-13.0-1.11","l","19","<p style=""font-size: 48px;"">+</p>","null","1","","","","","","",""
"550.6400000012945","","image-keyboard-response","98","233144","0.0-13.0-2.11","l","19","Images/cat_orig.png","76","1","1582059505976","match","cat","cat","sound","test","true"
"null","","audio-keyboard-response","99","235148","0.0-13.0-3.11","l","19","Sounds/correct.wav","null","1","","","","","","",""
"null","","audio-keyboard-response","100","236209","0.0-13.0-0.12","l","19","Sounds/car_label.wav","null","1","","","","","","",""
"null","","html-keyboard-response","101","237209","0.0-13.0-1.12","l","19","<p style=""font-size: 48px;"">+</p>","null","1","","","","","","",""
"797.8299999958836","","image-keyboard-response","102","238008","0.0-13.0-2.12","l","19","Images/car_3.png","76","1","1582059510592","match","car","car","label","test","true"
"null","","audio-keyboard-response","103","240016","0.0-13.0-3.12","l","19","Sounds/correct.wav","null","1","","","","","","",""
"null","","audio-keyboard-response","104","241149","0.0-13.0-0.13","l","19","Sounds/motorcycle_label.wav","null","1","","","","","","",""
"null","","html-keyboard-response","105","242143","0.0-13.0-1.13","l","19","<p style=""font-size: 48px;"">+</p>","null","1","","","","","","",""
"536.854999998468","","image-keyboard-response","106","242681","0.0-13.0-2.13","l","19","Images/frog_2.png","65","1","1582059515526","non-match","frog","motorcycle","label","test","true"
"null","","audio-keyboard-response","107","244697","0.0-13.0-3.13","l","19","Sounds/correct.wav","null","1","","","","","","",""
"null","","audio-keyboard-response","108","245989","0.0-13.0-0.14","l","19","Sounds/train_sound.wav","null","1","","","","","","",""
"null","","html-keyboard-response","109","246993","0.0-13.0-1.14","l","19","<p style=""font-size: 48px;"">+</p>","null","1","","","","","","",""
"1030.6300000083866","","image-keyboard-response","110","248024","0.0-13.0-2.14","l","19","Images/train_2.png","76","1","1582059520376","match","train","train","sound","test","true"
"null","","audio-keyboard-response","111","250031","0.0-13.0-3.14","l","19","Sounds/correct.wav","null","1","","","","","","",""
"null","","audio-keyboard-response","112","250869","0.0-13.0-0.15","l","19","Sounds/cat_label.wav","null","1","","","","","","",""
"null","","html-keyboard-response","113","251859","0.0-13.0-1.15","l","19","<p style=""font-size: 48px;"">+</p>","null","1","","","","","","",""
"1043.8100000028498","","image-keyboard-response","114","252904","0.0-13.0-2.15","l","19","Images/dog_2.png","65","1","1582059525243","non-match","dog","cat","label","test","true"
"null","","audio-keyboard-response","115","254916","0.0-13.0-3.15","l","19","Sounds/correct.wav","null","1","","","","","","",""
"null","","audio-keyboard-response","116","255989","0.0-13.0-0.16","l","19","Sounds/car_sound.wav","null","1","","","","","","",""
"null","","html-keyboard-response","117","256993","0.0-13.0-1.16","l","19","<p style=""font-size: 48px;"">+</p>","null","1","","","","","","",""
"1414.2900000006193","","image-keyboard-response","118","258408","0.0-13.0-2.16","l","19","Images/motorcycle_cartoon.png","65","1","1582059530376","non-match","motorcycle","car","sound","test","true"
"null","","audio-keyboard-response","119","260417","0.0-13.0-3.16","l","19","Sounds/correct.wav","null","1","","","","","","",""
"null","","audio-keyboard-response","120","261109","0.0-13.0-0.17","l","19","Sounds/whistle_sound.wav","null","1","","","","","","",""
"null","","html-keyboard-response","121","262110","0.0-13.0-1.17","l","19","<p style=""font-size: 48px;"">+</p>","null","1","","","","","","",""
"825.8799999894109","","image-keyboard-response","122","262936","0.0-13.0-2.17","l","19","Images/whistle_1.png","76","1","1582059535493","match","whistle","whistle","sound","test","true"
"null","","audio-keyboard-response","123","264947","0.0-13.0-3.17","l","19","Sounds/correct.wav","null","1","","","","","","",""
"null","","audio-keyboard-response","124","265849","0.0-13.0-0.18","l","19","Sounds/frog_sound.wav","null","1","","","","","","",""
"null","","html-keyboard-response","125","266843","0.0-13.0-1.18","l","19","<p style=""font-size: 48px;"">+</p>","null","1","","","","","","",""
"572.2999999998137","","image-keyboard-response","126","267416","0.0-13.0-2.18","l","19","Images/frog_cartoon.png","76","1","1582059540226","match","frog","frog","sound","test","true"
"null","","audio-keyboard-response","127","269430","0.0-13.0-3.18","l","19","Sounds/correct.wav","null","1","","","","","","",""
"null","","audio-keyboard-response","128","270329","0.0-13.0-0.19","l","19","Sounds/frog_sound.wav","null","1","","","","","","",""
"null","","html-keyboard-response","129","271326","0.0-13.0-1.19","l","19","<p style=""font-size: 48px;"">+</p>","null","1","","","","","","",""
"456.92500000586733","","image-keyboard-response","130","271784","0.0-13.0-2.19","l","19","Images/rooster_1.png","65","1","1582059544709","non-match","rooster","frog","sound","test","true"
"null","","audio-keyboard-response","131","273796","0.0-13.0-3.19","l","19","Sounds/correct.wav","null","1","","","","","","",""
"null","","audio-keyboard-response","132","274689","0.0-13.0-0.20","l","19","Sounds/frog_label.wav","null","1","","","","","","",""
"null","","html-keyboard-response","133","275693","0.0-13.0-1.20","l","19","<p style=""font-size: 48px;"">+</p>","null","1","","","","","","",""
"634.5900000014808","","image-keyboard-response","134","276328","0.0-13.0-2.20","l","19","Images/frog_1.png","76","1","1582059549076","match","frog","frog","label","test","true"
"null","","audio-keyboard-response","135","278331","0.0-13.0-3.20","l","19","Sounds/correct.wav","null","1","","","","","","",""
"null","","audio-keyboard-response","136","278909","0.0-13.0-0.21","l","19","Sounds/gun_sound.wav","null","1","","","","","","",""
"null","","html-keyboard-response","137","279927","0.0-13.0-1.21","l","19","<p style=""font-size: 48px;"">+</p>","null","1","","","","","","",""
"800.6299999979092","","image-keyboard-response","138","280728","0.0-13.0-2.21","l","19","Images/rooster_3.png","65","1","1582059553310","non-match","rooster","gun","sound","test","true"
"null","","audio-keyboard-response","139","282732","0.0-13.0-3.21","l","19","Sounds/correct.wav","null","1","","","","","","",""
"null","","audio-keyboard-response","140","284029","0.0-13.0-0.22","l","19","Sounds/train_sound.wav","null","1","","","","","","",""
"null","","html-keyboard-response","141","285026","0.0-13.0-1.22","l","19","<p style=""font-size: 48px;"">+</p>","null","1","","","","","","",""
"852.8749999968568","","image-keyboard-response","142","285880","0.0-13.0-2.22","l","19","Images/motorcycle_orig.png","65","1","1582059558410","non-match","motorcycle","train","sound","test","true"
"null","","audio-keyboard-response","143","287897","0.0-13.0-3.22","l","19","Sounds/correct.wav","null","1","","","","","","",""
"null","","audio-keyboard-response","144","288469","0.0-13.0-0.23","l","19","Sounds/gun_label.wav","null","1","","","","","","",""
"null","","html-keyboard-response","145","289460","0.0-13.0-1.23","l","19","<p style=""font-size: 48px;"">+</p>","null","1","","","","","","",""
"1107.625000004191","","image-keyboard-response","146","290568","0.0-13.0-2.23","l","19","Images/dog_1.png","65","1","1582059562843","non-match","dog","gun","label","test","true"
"null","","audio-keyboard-response","147","292580","0.0-13.0-3.23","l","19","Sounds/correct.wav","null","1","","","","","","",""
"null","","audio-keyboard-response","148","293469","0.0-13.0-0.24","l","19","Sounds/frog_label.wav","null","1","","","","","","",""
"null","","html-keyboard-response","149","294460","0.0-13.0-1.24","l","19","<p style=""font-size: 48px;"">+</p>","null","1","","","","","","",""
"763.3399999904213","","image-keyboard-response","150","295224","0.0-13.0-2.24","l","19","Images/frog_3.png","76","1","1582059567843","match","frog","frog","label","test","true"
"null","","audio-keyboard-response","151","297231","0.0-13.0-3.24","l","19","Sounds/correct.wav","null","1","","","","","","",""
"null","","audio-keyboard-response","152","298309","0.0-13.0-0.25","l","19","Sounds/car_sound.wav","null","1","","","","","","",""
"null","","html-keyboard-response","153","299326","0.0-13.0-1.25","l","19","<p style=""font-size: 48px;"">+</p>","null","1","","","","","","",""
"728.9000000018859","","image-keyboard-response","154","300056","0.0-13.0-2.25","l","19","Images/car_2.png","76","1","1582059572710","match","car","car","sound","test","true"
"null","","audio-keyboard-response","155","302065","0.0-13.0-3.25","l","19","Sounds/correct.wav","null","1","","","","","","",""
"null","","audio-keyboard-response","156","303349","0.0-13.0-0.26","l","19","Sounds/train_sound.wav","null","1","","","","","","",""
"null","","html-keyboard-response","157","304343","0.0-13.0-1.26","l","19","<p style=""font-size: 48px;"">+</p>","null","1","","","","","","",""
"1840.089999997872","","image-keyboard-response","158","306184","0.0-13.0-2.26","l","19","Images/train_1.png","76","1","1582059577726","match","train","train","sound","test","true"
"null","","audio-keyboard-response","159","308199","0.0-13.0-3.26","l","19","Sounds/correct.wav","null","1","","","","","","",""
"null","","audio-keyboard-response","160","309209","0.0-13.0-0.27","l","19","Sounds/cow_label.wav","null","1","","","","","","",""
"null","","html-keyboard-response","161","310227","0.0-13.0-1.27","l","19","<p style=""font-size: 48px;"">+</p>","null","1","","","","","","",""
"772.7200000081211","","image-keyboard-response","162","311001","0.0-13.0-2.27","l","19","Images/cow_orig.png","76","1","1582059583610","match","cow","cow","label","test","true"
"null","","audio-keyboard-response","163","313014","0.0-13.0-3.27","l","19","Sounds/correct.wav","null","1","","","","","","",""
"null","","audio-keyboard-response","164","313849","0.0-13.0-0.28","l","19","Sounds/cat_sound.wav","null","1","","","","","","",""
"null","","html-keyboard-response","165","314844","0.0-13.0-1.28","l","19","<p style=""font-size: 48px;"">+</p>","null","1","","","","","","",""
"763.9750000089407","","image-keyboard-response","166","315608","0.0-13.0-2.28","l","19","Images/car_cartoon.png","65","1","1582059588227","non-match","car","cat","sound","test","true"
"null","","audio-keyboard-response","167","317620","0.0-13.0-3.28","l","19","Sounds/correct.wav","null","1","","","","","","",""
"null","","audio-keyboard-response","168","318309","0.0-13.0-0.29","l","19","Sounds/rooster_label.wav","null","1","","","","","","",""
"null","","html-keyboard-response","169","319327","0.0-13.0-1.29","l","19","<p style=""font-size: 48px;"">+</p>","null","1","","","","","","",""
"1896.485000004759","","image-keyboard-response","170","321224","0.0-13.0-2.29","l","19","Images/rooster_3.png","76","1","1582059592710","match","rooster","rooster","label","test","true"
"null","","audio-keyboard-response","171","323234","0.0-13.0-3.29","l","19","Sounds/correct.wav","null","1","","","","","","",""
"null","","audio-keyboard-response","172","323929","0.0-13.0-0.30","l","19","Sounds/rooster_sound.wav","null","1","","","","","","",""
"null","","html-keyboard-response","173","324927","0.0-13.0-1.30","l","19","<p style=""font-size: 48px;"">+</p>","null","1","","","","","","",""
"504.34499999391846","","image-keyboard-response","174","325432","0.0-13.0-2.30","l","19","Images/car_1.png","65","1","1582059598310","non-match","car","rooster","sound","test","true"
"null","","audio-keyboard-response","175","327448","0.0-13.0-3.30","l","19","Sounds/correct.wav","null","1","","","","","","",""
"null","","audio-keyboard-response","176","328449","0.0-13.0-0.31","l","19","Sounds/cow_label.wav","null","1","","","","","","",""
"null","","html-keyboard-response","177","329444","0.0-13.0-1.31","l","19","<p style=""font-size: 48px;"">+</p>","null","1","","","","","","",""
"627.5800000003073","","image-keyboard-response","178","330072","0.0-13.0-2.31","l","19","Images/motorcycle_1.png","65","1","1582059602827","non-match","motorcycle","cow","label","test","true"
"null","","audio-keyboard-response","179","332084","0.0-13.0-3.31","l","19","Sounds/correct.wav","null","1","","","","","","",""
"null","","audio-keyboard-response","180","332789","0.0-13.0-0.32","l","19","Sounds/whistle_label.wav","null","1","","","","","","",""
"null","","html-keyboard-response","181","333794","0.0-13.0-1.32","l","19","<p style=""font-size: 48px;"">+</p>","null","1","","","","","","",""
"612.1899999998277","","image-keyboard-response","182","334409","0.0-13.0-2.32","l","19","Images/whistle_orig.png","76","1","1582059607177","match","whistle","whistle","label","test","true"
"null","","audio-keyboard-response","183","336415","0.0-13.0-3.32","l","19","Sounds/correct.wav","null","1","","","","","","",""
"null","","audio-keyboard-response","184","337429","0.0-13.0-0.33","l","19","Sounds/cow_sound.wav","null","1","","","","","","",""
"null","","html-keyboard-response","185","338427","0.0-13.0-1.33","l","19","<p style=""font-size: 48px;"">+</p>","null","1","","","","","","",""
"1036.2650000024587","","image-keyboard-response","186","339464","0.0-13.0-2.33","l","19","Images/cow_2.png","76","1","1582059611810","match","cow","cow","sound","test","true"
"null","","audio-keyboard-response","187","341481","0.0-13.0-3.33","l","19","Sounds/correct.wav","null","1","","","","","","",""
"null","","audio-keyboard-response","188","342149","0.0-13.0-0.34","l","19","Sounds/whistle_label.wav","null","1","","","","","","",""
"null","","html-keyboard-response","189","343144","0.0-13.0-1.34","l","19","<p style=""font-size: 48px;"">+</p>","null","1","","","","","","",""
"767.4600000027567","","image-keyboard-response","190","343912","0.0-13.0-2.34","l","19","Images/whistle_2.png","76","1","1582059616527","match","whistle","whistle","label","test","true"
"null","","audio-keyboard-response","191","345916","0.0-13.0-3.34","l","19","Sounds/correct.wav","null","1","","","","","","",""
"null","","audio-keyboard-response","192","346909","0.0-13.0-0.35","l","19","Sounds/cow_sound.wav","null","1","","","","","","",""
"null","","html-keyboard-response","193","347927","0.0-13.0-1.35","l","19","<p style=""font-size: 48px;"">+</p>","null","1","","","","","","",""
"512.3600000079023","","image-keyboard-response","194","348441","0.0-13.0-2.35","l","19","Images/cow_1.png","76","1","1582059621310","match","cow","cow","sound","test","true"
"null","","audio-keyboard-response","195","350449","0.0-13.0-3.35","l","19","Sounds/correct.wav","null","1","","","","","","",""
"null","","audio-keyboard-response","196","351029","0.0-13.0-0.36","l","19","Sounds/gun_label.wav","null","1","","","","","","",""
"null","","html-keyboard-response","197","352027","0.0-13.0-1.36","l","19","<p style=""font-size: 48px;"">+</p>","null","1","","","","","","",""
"684.0099999972153","","image-keyboard-response","198","352712","0.0-13.0-2.36","l","19","Images/gun_1.png","76","1","1582059625410","match","gun","gun","label","test","true"
"null","","audio-keyboard-response","199","354718","0.0-13.0-3.36","l","19","Sounds/correct.wav","null","1","","","","","","",""
"null","","audio-keyboard-response","200","355409","0.0-13.0-0.37","l","19","Sounds/rooster_sound.wav","null","1","","","","","","",""
"null","","html-keyboard-response","201","356427","0.0-13.0-1.37","l","19","<p style=""font-size: 48px;"">+</p>","null","1","","","","","","",""
"555.8449999953154","","image-keyboard-response","202","356984","0.0-13.0-2.37","l","19","Images/gun_orig.png","65","1","1582059629811","non-match","gun","rooster","sound","test","true"
"null","","audio-keyboard-response","203","358998","0.0-13.0-3.37","l","19","Sounds/correct.wav","null","1","","","","","","",""
"null","","audio-keyboard-response","204","359689","0.0-13.0-0.38","l","19","Sounds/whistle_label.wav","null","1","","","","","","",""
"null","","html-keyboard-response","205","360677","0.0-13.0-1.38","l","19","<p style=""font-size: 48px;"">+</p>","null","1","","","","","","",""
"418.03000000072643","","image-keyboard-response","206","361097","0.0-13.0-2.38","l","19","Images/motorcycle_3.png","65","1","1582059634061","non-match","motorcycle","whistle","label","test","true"
"null","","audio-keyboard-response","207","363099","0.0-13.0-3.38","l","19","Sounds/correct.wav","null","1","","","","","","",""
"null","","audio-keyboard-response","208","364229","0.0-13.0-0.39","l","19","Sounds/motorcycle_label.wav","null","1","","","","","","",""
"null","","html-keyboard-response","209","365227","0.0-13.0-1.39","l","19","<p style=""font-size: 48px;"">+</p>","null","1","","","","","","",""
"588.0949999991572","","image-keyboard-response","210","365816","0.0-13.0-2.39","l","19","Images/whistle_cartoon.png","65","1","1582059638611","non-match","whistle","motorcycle","label","test","true"
"null","","audio-keyboard-response","211","367832","0.0-13.0-3.39","l","19","Sounds/correct.wav","null","1","","","","","","",""
"null","","audio-keyboard-response","212","368549","0.0-13.0-0.40","l","19","Sounds/dog_sound.wav","null","1","","","","","","",""
"null","","html-keyboard-response","213","369544","0.0-13.0-1.40","l","19","<p style=""font-size: 48px;"">+</p>","null","1","","","","","","",""
"510.9800000063842","","image-keyboard-response","214","370056","0.0-13.0-2.40","l","19","Images/dog_1.png","76","1","1582059642927","match","dog","dog","sound","test","true"
"null","","audio-keyboard-response","215","372064","0.0-13.0-3.40","l","19","Sounds/correct.wav","null","1","","","","","","",""
"null","","audio-keyboard-response","216","372729","0.0-13.0-0.41","l","19","Sounds/rooster_sound.wav","null","1","","","","","","",""
"null","","html-keyboard-response","217","373728","0.0-13.0-1.41","l","19","<p style=""font-size: 48px;"">+</p>","null","1","","","","","","",""
"728.0500000051688","","image-keyboard-response","218","374457","0.0-13.0-2.41","l","19","Images/train_3.png","65","1","1582059647111","non-match","train","rooster","sound","test","true"
"null","","audio-keyboard-response","219","376466","0.0-13.0-3.41","l","19","Sounds/correct.wav","null","1","","","","","","",""
"null","","audio-keyboard-response","220","377749","0.0-13.0-0.42","l","19","Sounds/train_label.wav","null","1","","","","","","",""
"null","","html-keyboard-response","221","378744","0.0-13.0-1.42","l","19","<p style=""font-size: 48px;"">+</p>","null","1","","","","","","",""
"494.395000001532","","image-keyboard-response","222","379241","0.0-13.0-2.42","l","19","Images/train_orig.png","76","1","1582059652128","match","train","train","label","test","true"
"null","","audio-keyboard-response","223","381249","0.0-13.0-3.42","l","19","Sounds/correct.wav","null","1","","","","","","",""
"null","","audio-keyboard-response","224","382089","0.0-13.0-0.43","l","19","Sounds/cat_label.wav","null","1","","","","","","",""
"null","","html-keyboard-response","225","383078","0.0-13.0-1.43","l","19","<p style=""font-size: 48px;"">+</p>","null","1","","","","","","",""
"929.710000011255","","image-keyboard-response","226","384009","0.0-13.0-2.43","l","19","Images/cat_cartoon.png","76","1","1582059656461","match","cat","cat","label","test","true"
"null","","audio-keyboard-response","227","386016","0.0-13.0-3.43","l","19","Sounds/correct.wav","null","1","","","","","","",""
"null","","audio-keyboard-response","228","387029","0.0-13.0-0.44","l","19","Sounds/cow_label.wav","null","1","","","","","","",""
"null","","html-keyboard-response","229","388028","0.0-13.0-1.44","l","19","<p style=""font-size: 48px;"">+</p>","null","1","","","","","","",""
"715.7250000018394","","image-keyboard-response","230","388745","0.0-13.0-2.44","l","19","Images/rooster_cartoon.png","65","1","1582059661411","non-match","rooster","cow","label","test","true"
"null","","audio-keyboard-response","231","390750","0.0-13.0-3.44","l","19","Sounds/correct.wav","null","1","","","","","","",""
"null","","audio-keyboard-response","232","391449","0.0-13.0-0.45","l","19","Sounds/rooster_label.wav","null","1","","","","","","",""
"null","","html-keyboard-response","233","392445","0.0-13.0-1.45","l","19","<p style=""font-size: 48px;"">+</p>","null","1","","","","","","",""
"714.9100000096951","","image-keyboard-response","234","393160","0.0-13.0-2.45","l","19","Images/whistle_2.png","65","1","1582059665828","non-match","whistle","rooster","label","test","true"
"null","","audio-keyboard-response","235","395168","0.0-13.0-3.45","l","19","Sounds/correct.wav","null","1","","","","","","",""
"null","","audio-keyboard-response","236","395869","0.0-13.0-0.46","l","19","Sounds/dog_sound.wav","null","1","","","","","","",""
"null","","html-keyboard-response","237","396861","0.0-13.0-1.46","l","19","<p style=""font-size: 48px;"">+</p>","null","1","","","","","","",""
"554.0350000082981","","image-keyboard-response","238","397416","0.0-13.0-2.46","l","19","Images/car_2.png","65","1","1582059670244","non-match","car","dog","sound","test","true"
"null","","audio-keyboard-response","239","399433","0.0-13.0-3.46","l","19","Sounds/correct.wav","null","1","","","","","","",""
"null","","audio-keyboard-response","240","400429","0.0-13.0-0.47","l","19","Sounds/cow_label.wav","null","1","","","","","","",""
"null","","html-keyboard-response","241","401428","0.0-13.0-1.47","l","19","<p style=""font-size: 48px;"">+</p>","null","1","","","","","","",""
"675.8700000063982","","image-keyboard-response","242","402105","0.0-13.0-2.47","l","19","Images/dog_orig.png","65","1","1582059674811","non-match","dog","cow","label","test","true"
"null","","audio-keyboard-response","243","404109","0.0-13.0-3.47","l","19","Sounds/correct.wav","null","1","","","","","","",""
"null","","audio-keyboard-response","244","404989","0.0-13.0-0.48","l","19","Sounds/frog_label.wav","null","1","","","","","","",""
"null","","html-keyboard-response","245","405978","0.0-13.0-1.48","l","19","<p style=""font-size: 48px;"">+</p>","null","1","","","","","","",""
"541.4900000032503","","image-keyboard-response","246","406521","0.0-13.0-2.48","l","19","Images/car_3.png","65","1","1582059679361","non-match","car","frog","label","test","true"
"null","","audio-keyboard-response","247","408532","0.0-13.0-3.48","l","19","Sounds/correct.wav","null","1","","","","","","",""
"null","","audio-keyboard-response","248","409449","0.0-13.0-0.49","l","19","Sounds/frog_sound.wav","null","1","","","","","","",""
"null","","html-keyboard-response","249","410445","0.0-13.0-1.49","l","19","<p style=""font-size: 48px;"">+</p>","null","1","","","","","","",""
"570.6649999920046","","image-keyboard-response","250","411016","0.0-13.0-2.49","l","19","Images/train_orig.png","65","1","1582059683828","non-match","train","frog","sound","test","true"
"null","","audio-keyboard-response","251","413032","0.0-13.0-3.49","l","19","Sounds/correct.wav","null","1","","","","","","",""
"null","","audio-keyboard-response","252","413749","0.0-13.0-0.50","l","19","Sounds/dog_sound.wav","null","1","","","","","","",""
"null","","html-keyboard-response","253","414745","0.0-13.0-1.50","l","19","<p style=""font-size: 48px;"">+</p>","null","1","","","","","","",""
"1342.929999998887","","image-keyboard-response","254","416089","0.0-13.0-2.50","l","19","Images/gun_1.png","65","1","1582059688128","non-match","gun","dog","sound","test","true"
"null","","audio-keyboard-response","255","418101","0.0-13.0-3.50","l","19","Sounds/correct.wav","null","1","","","","","","",""
"null","","audio-keyboard-response","256","418789","0.0-13.0-0.51","l","19","Sounds/rooster_sound.wav","null","1","","","","","","",""
"null","","html-keyboard-response","257","419778","0.0-13.0-1.51","l","19","<p style=""font-size: 48px;"">+</p>","null","1","","","","","","",""
"581.1650000105146","","image-keyboard-response","258","420360","0.0-13.0-2.51","l","19","Images/cow_orig.png","65","1","1582059693161","non-match","cow","rooster","sound","test","true"
"null","","audio-keyboard-response","259","422371","0.0-13.0-3.51","l","19","Sounds/correct.wav","null","1","","","","","","",""
"null","","audio-keyboard-response","260","423209","0.0-13.0-0.52","l","19","Sounds/cat_label.wav","null","1","","","","","","",""
"null","","html-keyboard-response","261","424211","0.0-13.0-1.52","l","19","<p style=""font-size: 48px;"">+</p>","null","1","","","","","","",""
"595.9350000048289","","image-keyboard-response","262","424808","0.0-13.0-2.52","l","19","Images/rooster_2.png","65","1","1582059697595","non-match","rooster","cat","label","test","true"
"null","","audio-keyboard-response","263","426816","0.0-13.0-3.52","l","19","Sounds/correct.wav","null","1","","","","","","",""
"null","","audio-keyboard-response","264","427709","0.0-13.0-0.53","l","19","Sounds/frog_label.wav","null","1","","","","","","",""
"null","","html-keyboard-response","265","428712","0.0-13.0-1.53","l","19","<p style=""font-size: 48px;"">+</p>","null","1","","","","","","",""
"639.9949999904493","","image-keyboard-response","266","429353","0.0-13.0-2.53","l","19","Images/dog_3.png","65","1","1582059702095","non-match","dog","frog","label","test","true"
"null","","audio-keyboard-response","267","431365","0.0-13.0-3.53","l","19","Sounds/correct.wav","null","1","","","","","","",""
"null","","audio-keyboard-response","268","432029","0.0-13.0-0.54","l","19","Sounds/rooster_sound.wav","null","1","","","","","","",""
"null","","html-keyboard-response","269","433029","0.0-13.0-1.54","l","19","<p style=""font-size: 48px;"">+</p>","null","1","","","","","","",""
"915.2000000030966","","image-keyboard-response","270","433945","0.0-13.0-2.54","l","19","Images/rooster_1.png","76","1","1582059706412","match","rooster","rooster","sound","test","true"
"null","","audio-keyboard-response","271","435952","0.0-13.0-3.54","l","19","Sounds/correct.wav","null","1","","","","","","",""
"null","","audio-keyboard-response","272","436610","0.0-13.0-0.55","l","19","Sounds/dog_label.wav","null","1","","","","","","",""
"null","","html-keyboard-response","273","437612","0.0-13.0-1.55","l","19","<p style=""font-size: 48px;"">+</p>","null","1","","","","","","",""
"1019.9199999915436","","image-keyboard-response","274","438634","0.0-13.0-2.55","l","19","Images/motorcycle_2.png","65","1","1582059710995","non-match","motorcycle","dog","label","test","true"
"null","","audio-keyboard-response","275","440650","0.0-13.0-3.55","l","19","Sounds/correct.wav","null","1","","","","","","",""
"null","","audio-keyboard-response","276","441670","0.0-13.0-0.56","l","19","Sounds/cow_sound.wav","null","1","","","","","","",""
"null","","html-keyboard-response","277","442662","0.0-13.0-1.56","l","19","<p style=""font-size: 48px;"">+</p>","null","1","","","","","","",""
"1617.7599999937229","","image-keyboard-response","278","444281","0.0-13.0-2.56","l","19","Images/frog_1.png","65","1","1582059716045","non-match","frog","cow","sound","test","true"
"null","","audio-keyboard-response","279","446286","0.0-13.0-3.56","l","19","Sounds/correct.wav","null","1","","","","","","",""
"null","","audio-keyboard-response","280","447410","0.0-13.0-0.57","l","19","Sounds/motorcycle_sound.wav","null","1","","","","","","",""
"null","","html-keyboard-response","281","448412","0.0-13.0-1.57","l","19","<p style=""font-size: 48px;"">+</p>","null","1","","","","","","",""
"1323.5600000043632","","image-keyboard-response","282","449737","0.0-13.0-2.57","l","19","Images/motorcycle_2.png","76","1","1582059721796","match","motorcycle","motorcycle","sound","test","true"
"null","","audio-keyboard-response","283","451751","0.0-13.0-3.57","l","19","Sounds/correct.wav","null","1","","","","","","",""
"null","","audio-keyboard-response","284","452770","0.0-13.0-0.58","l","19","Sounds/cow_label.wav","null","1","","","","","","",""
"null","","html-keyboard-response","285","453762","0.0-13.0-1.58","l","19","<p style=""font-size: 48px;"">+</p>","null","1","","","","","","",""
"549.7900000045775","","image-keyboard-response","286","454313","0.0-13.0-2.58","l","19","Images/cow_cartoon.png","76","1","1582059727146","match","cow","cow","label","test","true"
"null","","audio-keyboard-response","287","456323","0.0-13.0-3.58","l","19","Sounds/correct.wav","null","1","","","","","","",""
"null","","audio-keyboard-response","288","457470","0.0-13.0-0.59","l","19","Sounds/motorcycle_label.wav","null","1","","","","","","",""
"null","","html-keyboard-response","289","458462","0.0-13.0-1.59","l","19","<p style=""font-size: 48px;"">+</p>","null","1","","","","","","",""
"393.72500000172295","","image-keyboard-response","290","458857","0.0-13.0-2.59","l","19","Images/motorcycle_1.png","76","1","1582059731845","match","motorcycle","motorcycle","label","test","true"
"null","","audio-keyboard-response","291","460867","0.0-13.0-3.59","l","19","Sounds/correct.wav","null","1","","","","","","",""
"null","","audio-keyboard-response","292","461950","0.0-13.0-0.60","l","19","Sounds/car_sound.wav","null","1","","","","","","",""
"null","","html-keyboard-response","293","462946","0.0-13.0-1.60","l","19","<p style=""font-size: 48px;"">+</p>","null","1","","","","","","",""
"550.3400000015972","","image-keyboard-response","294","463497","0.0-13.0-2.60","l","19","Images/whistle_1.png","65","1","1582059736329","non-match","whistle","car","sound","test","true"
"null","","audio-keyboard-response","295","465504","0.0-13.0-3.60","l","19","Sounds/correct.wav","null","1","","","","","","",""
"null","","audio-keyboard-response","296","466610","0.0-13.0-0.61","l","19","Sounds/motorcycle_sound.wav","null","1","","","","","","",""
"null","","html-keyboard-response","297","467613","0.0-13.0-1.61","l","19","<p style=""font-size: 48px;"">+</p>","null","1","","","","","","",""
"1307.6799999980722","","image-keyboard-response","298","468921","0.0-13.0-2.61","l","19","Images/train_cartoon.png","65","1","1582059740996","non-match","train","motorcycle","sound","test","true"
"null","","audio-keyboard-response","299","470936","0.0-13.0-3.61","l","19","Sounds/correct.wav","null","1","","","","","","",""
"null","","audio-keyboard-response","300","471630","0.0-13.0-0.62","l","19","Sounds/whistle_sound.wav","null","1","","","","","","",""
"null","","html-keyboard-response","301","472629","0.0-13.0-1.62","l","19","<p style=""font-size: 48px;"">+</p>","null","1","","","","","","",""
"482.8750000015134","","image-keyboard-response","302","473113","0.0-13.0-2.62","l","19","Images/cow_2.png","65","1","1582059746013","non-match","cow","whistle","sound","test","true"
"null","","audio-keyboard-response","303","475117","0.0-13.0-3.62","l","19","Sounds/correct.wav","null","1","","","","","","",""
"null","","audio-keyboard-response","304","476250","0.0-13.0-0.63","l","19","Sounds/motorcycle_label.wav","null","1","","","","","","",""
"null","","html-keyboard-response","305","477246","0.0-13.0-1.63","l","19","<p style=""font-size: 48px;"">+</p>","null","1","","","","","","",""
"522.354999993695","","image-keyboard-response","306","477769","0.0-13.0-2.63","l","19","Images/cow_3.png","65","1","1582059750629","non-match","cow","motorcycle","label","test","true"
"null","","audio-keyboard-response","307","479785","0.0-13.0-3.63","l","19","Sounds/correct.wav","null","1","","","","","","",""
"null","","audio-keyboard-response","308","480850","0.0-13.0-0.64","l","19","Sounds/car_sound.wav","null","1","","","","","","",""
"null","","html-keyboard-response","309","481846","0.0-13.0-1.64","l","19","<p style=""font-size: 48px;"">+</p>","null","1","","","","","","",""
"514.3300000054296","","image-keyboard-response","310","482361","0.0-13.0-2.64","l","19","Images/car_orig.png","76","1","1582059755229","match","car","car","sound","test","true"
"null","","audio-keyboard-response","311","484370","0.0-13.0-3.64","l","19","Sounds/correct.wav","null","1","","","","","","",""
"null","","audio-keyboard-response","312","485450","0.0-13.0-0.65","l","19","Sounds/car_label.wav","null","1","","","","","","",""
"null","","html-keyboard-response","313","486446","0.0-13.0-1.65","l","19","<p style=""font-size: 48px;"">+</p>","null","1","","","","","","",""
"458.00499999313615","","image-keyboard-response","314","486905","0.0-13.0-2.65","l","19","Images/frog_3.png","65","1","1582059759829","non-match","frog","car","label","test","true"
"null","","audio-keyboard-response","315","488916","0.0-13.0-3.65","l","19","Sounds/correct.wav","null","1","","","","","","",""
"null","","audio-keyboard-response","316","490190","0.0-13.0-0.66","l","19","Sounds/train_label.wav","null","1","","","","","","",""
"null","","html-keyboard-response","317","491179","0.0-13.0-1.66","l","19","<p style=""font-size: 48px;"">+</p>","null","1","","","","","","",""
"524.0999999950873","","image-keyboard-response","318","491705","0.0-13.0-2.66","l","19","Images/cow_cartoon.png","65","1","1582059764563","non-match","cow","train","label","test","true"
"null","","audio-keyboard-response","319","493716","0.0-13.0-3.66","l","19","Sounds/correct.wav","null","1","","","","","","",""
"null","","audio-keyboard-response","320","494410","0.0-13.0-0.67","l","19","Sounds/whistle_sound.wav","null","1","","","","","","",""
"null","","html-keyboard-response","321","495413","0.0-13.0-1.67","l","19","<p style=""font-size: 48px;"">+</p>","null","1","","","","","","",""
"483.30999999598134","","image-keyboard-response","322","495897","0.0-13.0-2.67","l","19","Images/whistle_cartoon.png","76","1","1582059768796","match","whistle","whistle","sound","test","true"
"null","","audio-keyboard-response","323","497901","0.0-13.0-3.67","l","19","Sounds/correct.wav","null","1","","","","","","",""
"null","","audio-keyboard-response","324","498790","0.0-13.0-0.68","l","19","Sounds/frog_label.wav","null","1","","","","","","",""
"null","","html-keyboard-response","325","499779","0.0-13.0-1.68","l","19","<p style=""font-size: 48px;"">+</p>","null","1","","","","","","",""
"756.7800000106217","","image-keyboard-response","326","500537","0.0-13.0-2.68","l","19","Images/frog_2.png","76","1","1582059773163","match","frog","frog","label","test","true"
"null","","audio-keyboard-response","327","502550","0.0-13.0-3.68","l","19","Sounds/correct.wav","null","1","","","","","","",""
"null","","audio-keyboard-response","328","503690","0.0-13.0-0.69","l","19","Sounds/motorcycle_label.wav","null","1","","","","","","",""
"null","","html-keyboard-response","329","504680","0.0-13.0-1.69","l","19","<p style=""font-size: 48px;"">+</p>","null","1","","","","","","",""
"416.73500000615604","","image-keyboard-response","330","505097","0.0-13.0-2.69","l","19","Images/motorcycle_3.png","76","1","1582059778063","match","motorcycle","motorcycle","label","test","true"
"null","","audio-keyboard-response","331","507101","0.0-13.0-3.69","l","19","Sounds/correct.wav","null","1","","","","","","",""
"null","","audio-keyboard-response","332","508110","0.0-13.0-0.70","l","19","Sounds/cow_sound.wav","null","1","","","","","","",""
"null","","html-keyboard-response","333","509113","0.0-13.0-1.70","l","19","<p style=""font-size: 48px;"">+</p>","null","1","","","","","","",""
"1327.1899999963352","","image-keyboard-response","334","510441","0.0-13.0-2.70","l","19","Images/cow_3.png","76","1","1582059782496","match","cow","cow","sound","test","true"
"null","","audio-keyboard-response","335","512449","0.0-13.0-3.70","l","19","Sounds/correct.wav","null","1","","","","","","",""
"null","","audio-keyboard-response","336","513030","0.0-13.0-0.71","l","19","Sounds/gun_sound.wav","null","1","","","","","","",""
"null","","html-keyboard-response","337","514030","0.0-13.0-1.71","l","19","<p style=""font-size: 48px;"">+</p>","null","1","","","","","","",""
"970.4249999922467","","image-keyboard-response","338","515001","0.0-13.0-2.71","l","19","Images/gun_2.png","76","1","1582059787413","match","gun","gun","sound","test","true"
"null","","audio-keyboard-response","339","517017","0.0-13.0-3.71","l","19","Sounds/correct.wav","null","1","","","","","","",""
"null","","audio-keyboard-response","340","517670","0.0-13.0-0.72","l","19","Sounds/dog_label.wav","null","1","","","","","","",""
"null","","html-keyboard-response","341","518663","0.0-13.0-1.72","l","19","<p style=""font-size: 48px;"">+</p>","null","1","","","","","","",""
"528.9349999948172","","image-keyboard-response","342","519193","0.0-13.0-2.72","l","19","Images/dog_cartoon.png","76","1","1582059792046","match","dog","dog","label","test","true"
"null","","audio-keyboard-response","343","521202","0.0-13.0-3.72","l","19","Sounds/correct.wav","null","1","","","","","","",""
"null","","audio-keyboard-response","344","521910","0.0-13.0-0.73","l","19","Sounds/dog_sound.wav","null","1","","","","","","",""
"null","","html-keyboard-response","345","522914","0.0-13.0-1.73","l","19","<p style=""font-size: 48px;"">+</p>","null","1","","","","","","",""
"582.3349999991478","","image-keyboard-response","346","523497","0.0-13.0-2.73","l","19","Images/dog_orig.png","76","1","1582059796296","match","dog","dog","sound","test","true"
"null","","audio-keyboard-response","347","525503","0.0-13.0-3.73","l","19","Sounds/correct.wav","null","1","","","","","","",""
"null","","audio-keyboard-response","348","526350","0.0-13.0-0.74","l","19","Sounds/cat_sound.wav","null","1","","","","","","",""
"null","","html-keyboard-response","349","527347","0.0-13.0-1.74","l","19","<p style=""font-size: 48px;"">+</p>","null","1","","","","","","",""
"613.5599999979604","","image-keyboard-response","350","527961","0.0-13.0-2.74","l","19","Images/cat_2.png","76","1","1582059800730","match","cat","cat","sound","test","true"
"null","","audio-keyboard-response","351","529970","0.0-13.0-3.74","l","19","Sounds/correct.wav","null","1","","","","","","",""
"null","","audio-keyboard-response","352","531050","0.0-13.0-0.75","l","19","Sounds/car_sound.wav","null","1","","","","","","",""
"null","","html-keyboard-response","353","532047","0.0-13.0-1.75","l","19","<p style=""font-size: 48px;"">+</p>","null","1","","","","","","",""
"841.6900000011083","","image-keyboard-response","354","532889","0.0-13.0-2.75","l","19","Images/dog_cartoon.png","65","1","1582059805430","non-match","dog","car","sound","test","true"
"null","","audio-keyboard-response","355","534899","0.0-13.0-3.75","l","19","Sounds/correct.wav","null","1","","","","","","",""
"null","","audio-keyboard-response","356","535710","0.0-13.0-0.76","l","19","Sounds/cat_sound.wav","null","1","","","","","","",""
"null","","html-keyboard-response","357","536713","0.0-13.0-1.76","l","19","<p style=""font-size: 48px;"">+</p>","null","1","","","","","","",""
"783.0949999915902","","image-keyboard-response","358","537498","0.0-13.0-2.76","l","19","Images/cow_1.png","65","1","1582059810096","non-match","cow","cat","sound","test","true"
"null","","audio-keyboard-response","359","539502","0.0-13.0-3.76","l","19","Sounds/correct.wav","null","1","","","","","","",""
"null","","audio-keyboard-response","360","540590","0.0-13.0-0.77","l","19","Sounds/car_label.wav","null","1","","","","","","",""
"null","","html-keyboard-response","361","541580","0.0-13.0-1.77","l","19","<p style=""font-size: 48px;"">+</p>","null","1","","","","","","",""
"460.14999999897555","","image-keyboard-response","362","542041","0.0-13.0-2.77","l","19","Images/car_1.png","76","1","1582059814963","match","car","car","label","test","true"
"null","","audio-keyboard-response","363","544051","0.0-13.0-3.77","l","19","Sounds/correct.wav","null","1","","","","","","",""
"null","","audio-keyboard-response","364","545110","0.0-13.0-0.78","l","19","Sounds/car_sound.wav","null","1","","","","","","",""
"null","","html-keyboard-response","365","546114","0.0-13.0-1.78","l","19","<p style=""font-size: 48px;"">+</p>","null","1","","","","","","",""
"950.8050000004005","","image-keyboard-response","366","547065","0.0-13.0-2.78","l","19","Images/rooster_orig.png","65","1","1582059819497","non-match","rooster","car","sound","test","true"
"null","","audio-keyboard-response","367","549069","0.0-13.0-3.78","l","19","Sounds/correct.wav","null","1","","","","","","",""
"null","","audio-keyboard-response","368","550350","0.0-13.0-0.79","l","19","Sounds/train_label.wav","null","1","","","","","","",""
"null","","html-keyboard-response","369","551347","0.0-13.0-1.79","l","19","<p style=""font-size: 48px;"">+</p>","null","1","","","","","","",""
"580.6199999933597","","image-keyboard-response","370","551930","0.0-13.0-2.79","l","19","Images/cat_orig.png","65","1","1582059824730","non-match","cat","train","label","test","true"
"null","","audio-keyboard-response","371","553938","0.0-13.0-3.79","l","19","Sounds/correct.wav","null","1","","","","","","",""
"null","","audio-keyboard-response","372","555231","0.0-13.0-0.80","l","19","Sounds/train_sound.wav","null","1","","","","","","",""
"null","","html-keyboard-response","373","556231","0.0-13.0-1.80","l","19","<p style=""font-size: 48px;"">+</p>","null","1","","","","","","",""
"433.9149999868823","","image-keyboard-response","374","556666","0.0-13.0-2.80","l","19","Images/train_3.png","76","1","1582059829614","match","train","train","sound","test","true"
"null","","audio-keyboard-response","375","558669","0.0-13.0-3.80","l","19","Sounds/correct.wav","null","1","","","","","","",""
"null","","audio-keyboard-response","376","559570","0.0-13.0-0.81","l","19","Sounds/frog_label.wav","null","1","","","","","","",""
"null","","html-keyboard-response","377","560564","0.0-13.0-1.81","l","19","<p style=""font-size: 48px;"">+</p>","null","1","","","","","","",""
"500.6500000017695","","image-keyboard-response","378","561066","0.0-13.0-2.81","l","19","Images/frog_orig.png","76","1","1582059833947","match","frog","frog","label","test","true"
"null","","audio-keyboard-response","379","563070","0.0-13.0-3.81","l","19","Sounds/correct.wav","null","1","","","","","","",""
"null","","audio-keyboard-response","380","563650","0.0-13.0-0.82","l","19","Sounds/gun_label.wav","null","1","","","","","","",""
"null","","html-keyboard-response","381","564647","0.0-13.0-1.82","l","19","<p style=""font-size: 48px;"">+</p>","null","1","","","","","","",""
"481.42500000540167","","image-keyboard-response","382","565130","0.0-13.0-2.82","l","19","Images/gun_orig.png","76","1","1582059838030","match","gun","gun","label","test","true"
"null","","audio-keyboard-response","383","567138","0.0-13.0-3.82","l","19","Sounds/correct.wav","null","1","","","","","","",""
"null","","audio-keyboard-response","384","568270","0.0-13.0-0.83","l","19","Sounds/motorcycle_label.wav","null","1","","","","","","",""
"null","","html-keyboard-response","385","569264","0.0-13.0-1.83","l","19","<p style=""font-size: 48px;"">+</p>","null","1","","","","","","",""
"503.70999998995103","","image-keyboard-response","386","569770","0.0-13.0-2.83","l","19","Images/motorcycle_cartoon.png","76","1","1582059842647","match","motorcycle","motorcycle","label","test","true"
"null","","audio-keyboard-response","387","571785","0.0-13.0-3.83","l","19","Sounds/correct.wav","null","1","","","","","","",""
"null","","audio-keyboard-response","388","572491","0.0-13.0-0.84","l","19","Sounds/dog_sound.wav","null","1","","","","","","",""
"null","","html-keyboard-response","389","573481","0.0-13.0-1.84","l","19","<p style=""font-size: 48px;"">+</p>","null","1","","","","","","",""
"511.8650000076741","","image-keyboard-response","390","573994","0.0-13.0-2.84","l","19","Images/dog_3.png","76","1","1582059846864","match","dog","dog","sound","test","true"
"null","","audio-keyboard-response","391","576003","0.0-13.0-3.84","l","19","Sounds/correct.wav","null","1","","","","","","",""
"null","","audio-keyboard-response","392","577111","0.0-13.0-0.85","l","19","Sounds/motorcycle_label.wav","null","1","","","","","","",""
"null","","html-keyboard-response","393","578114","0.0-13.0-1.85","l","19","<p style=""font-size: 48px;"">+</p>","null","1","","","","","","",""
"484.8199999978533","","image-keyboard-response","394","578602","0.0-13.0-2.85","l","19","Images/motorcycle_orig.png","76","1","1582059851498","match","motorcycle","motorcycle","label","test","true"
"null","","audio-keyboard-response","395","580605","0.0-13.0-3.85","l","19","Sounds/correct.wav","null","1","","","","","","",""
"null","","audio-keyboard-response","396","581890","0.0-13.0-0.86","l","19","Sounds/train_sound.wav","null","1","","","","","","",""
"null","","html-keyboard-response","397","582881","0.0-13.0-1.86","l","19","<p style=""font-size: 48px;"">+</p>","null","1","","","","","","",""
"807.5250000110827","","image-keyboard-response","398","583690","0.0-13.0-2.86","l","19","Images/train_cartoon.png","76","1","1582059856264","match","train","train","sound","test","true"
"null","","audio-keyboard-response","399","585703","0.0-13.0-3.86","l","19","Sounds/correct.wav","null","1","","","","","","",""
"null","","audio-keyboard-response","400","586290","0.0-13.0-0.87","l","19","Sounds/gun_sound.wav","null","1","","","","","","",""
"null","","html-keyboard-response","401","587281","0.0-13.0-1.87","l","19","<p style=""font-size: 48px;"">+</p>","null","1","","","","","","",""
"471.4700000040466","","image-keyboard-response","402","587754","0.0-13.0-2.87","l","19","Images/gun_3.png","76","1","1582059860664","match","gun","gun","sound","test","true"
"null","","audio-keyboard-response","403","589769","0.0-13.0-3.87","l","19","Sounds/correct.wav","null","1","","","","","","",""
"null","","audio-keyboard-response","404","590470","0.0-13.0-0.88","l","19","Sounds/rooster_label.wav","null","1","","","","","","",""
"null","","html-keyboard-response","405","591464","0.0-13.0-1.88","l","19","<p style=""font-size: 48px;"">+</p>","null","1","","","","","","",""
"624.485000007553","","image-keyboard-response","406","592090","0.0-13.0-2.88","l","19","Images/rooster_cartoon.png","76","1","1582059864848","match","rooster","rooster","label","test","true"
"null","","audio-keyboard-response","407","594100","0.0-13.0-3.88","l","19","Sounds/correct.wav","null","1","","","","","","",""
"null","","audio-keyboard-response","408","594790","0.0-13.0-0.89","l","19","Sounds/whistle_label.wav","null","1","","","","","","",""
"null","","html-keyboard-response","409","595781","0.0-13.0-1.89","l","19","<p style=""font-size: 48px;"">+</p>","null","1","","","","","","",""
"547.3300000012387","","image-keyboard-response","410","596330","0.0-13.0-2.89","l","19","Images/cat_cartoon.png","65","1","1582059869164","non-match","cat","whistle","label","test","true"
"null","","audio-keyboard-response","411","598343","0.0-13.0-3.89","l","19","Sounds/correct.wav","null","1","","","","","","",""
"null","","audio-keyboard-response","412","599250","0.0-13.0-0.90","l","19","Sounds/frog_label.wav","null","1","","","","","","",""
"null","","html-keyboard-response","413","600248","0.0-13.0-1.90","l","19","<p style=""font-size: 48px;"">+</p>","null","1","","","","","","",""
"449.1450000059558","","image-keyboard-response","414","600698","0.0-13.0-2.90","l","19","Images/gun_cartoon.png","65","1","1582059873631","non-match","gun","frog","label","test","true"
"null","","audio-keyboard-response","415","602705","0.0-13.0-3.90","l","19","Sounds/correct.wav","null","1","","","","","","",""
"null","","audio-keyboard-response","416","603371","0.0-13.0-0.91","l","19","Sounds/dog_label.wav","null","1","","","","","","",""
"null","","html-keyboard-response","417","604365","0.0-13.0-1.91","l","19","<p style=""font-size: 48px;"">+</p>","null","1","","","","","","",""
"508.2599999877857","","image-keyboard-response","418","604874","0.0-13.0-2.91","l","19","Images/dog_2.png","76","1","1582059877748","match","dog","dog","label","test","true"
"null","","audio-keyboard-response","419","606885","0.0-13.0-3.91","l","19","Sounds/correct.wav","null","1","","","","","","",""
"null","","audio-keyboard-response","420","607471","0.0-13.0-0.92","l","19","Sounds/gun_sound.wav","null","1","","","","","","",""
"null","","html-keyboard-response","421","608465","0.0-13.0-1.92","l","19","<p style=""font-size: 48px;"">+</p>","null","1","","","","","","",""
"584.0249999891967","","image-keyboard-response","422","609050","0.0-13.0-2.92","l","19","Images/gun_cartoon.png","76","1","1582059881848","match","gun","gun","sound","test","true"
"null","","audio-keyboard-response","423","611055","0.0-13.0-3.92","l","19","Sounds/correct.wav","null","1","","","","","","",""
"null","","audio-keyboard-response","424","611750","0.0-13.0-0.93","l","19","Sounds/rooster_sound.wav","null","1","","","","","","",""
"null","","html-keyboard-response","425","612748","0.0-13.0-1.93","l","19","<p style=""font-size: 48px;"">+</p>","null","1","","","","","","",""
"476.6200000012759","","image-keyboard-response","426","613226","0.0-13.0-2.93","l","19","Images/rooster_orig.png","76","1","1582059886131","match","rooster","rooster","sound","test","true"
"null","","audio-keyboard-response","427","615235","0.0-13.0-3.93","l","19","Sounds/correct.wav","null","1","","","","","","",""
"null","","audio-keyboard-response","428","615931","0.0-13.0-0.94","l","19","Sounds/whistle_sound.wav","null","1","","","","","","",""
"null","","html-keyboard-response","429","616948","0.0-13.0-1.94","l","19","<p style=""font-size: 48px;"">+</p>","null","1","","","","","","",""
"868.9350000058766","","image-keyboard-response","430","617818","0.0-13.0-2.94","l","19","Images/whistle_3.png","76","1","1582059890332","match","whistle","whistle","sound","test","true"
"null","","audio-keyboard-response","431","619836","0.0-13.0-3.94","l","19","Sounds/correct.wav","null","1","","","","","","",""
"null","","audio-keyboard-response","432","620411","0.0-13.0-0.95","l","19","Sounds/gun_label.wav","null","1","","","","","","",""
"null","","html-keyboard-response","433","621399","0.0-13.0-1.95","l","19","<p style=""font-size: 48px;"">+</p>","null","1","","","","","","",""
"737.330000003567","","image-keyboard-response","434","622138","0.0-13.0-2.95","l","19","Images/frog_cartoon.png","65","1","1582059894782","non-match","frog","gun","label","test","true"
"null","","audio-keyboard-response","435","624154","0.0-13.0-3.95","l","19","Sounds/correct.wav","null","1","","","","","","",""
"null","","audio-keyboard-response","436","624991","0.0-13.0-0.96","l","19","Sounds/cat_sound.wav","null","1","","","","","","",""
"null","","html-keyboard-response","437","625982","0.0-13.0-1.96","l","19","<p style=""font-size: 48px;"">+</p>","null","1","","","","","","",""
"715.41000000434","","image-keyboard-response","438","626698","0.0-13.0-2.96","l","19","Images/cat_3.png","76","1","1582059899365","match","cat","cat","sound","test","true"
"null","","audio-keyboard-response","439","628705","0.0-13.0-3.96","l","19","Sounds/correct.wav","null","1","","","","","","",""
"null","","audio-keyboard-response","440","629731","0.0-13.0-0.97","l","19","Sounds/cow_sound.wav","null","1","","","","","","",""
"null","","html-keyboard-response","441","630749","0.0-13.0-1.97","l","19","<p style=""font-size: 48px;"">+</p>","null","1","","","","","","",""
"732.7800000057323","","image-keyboard-response","442","631482","0.0-13.0-2.97","l","19","Images/car_orig.png","76","1","1582059904132","non-match","car","cow","sound","test","false"
"null","","audio-keyboard-response","443","633488","0.0-13.0-3.97","l","19","Sounds/incorrect.wav","null","1","","","","","","",""
"null","","audio-keyboard-response","444","634171","0.0-13.0-0.98","l","19","Sounds/whistle_sound.wav","null","1","","","","","","",""
"null","","html-keyboard-response","445","635165","0.0-13.0-1.98","l","19","<p style=""font-size: 48px;"">+</p>","null","1","","","","","","",""
"1099.6799999993527","","image-keyboard-response","446","636266","0.0-13.0-2.98","l","19","Images/gun_2.png","65","1","1582059908549","non-match","gun","whistle","sound","test","true"
"null","","audio-keyboard-response","447","638271","0.0-13.0-3.98","l","19","Sounds/correct.wav","null","1","","","","","","",""
"null","","audio-keyboard-response","448","639551","0.0-13.0-0.99","l","19","Sounds/train_label.wav","null","1","","","","","","",""
"null","","html-keyboard-response","449","640549","0.0-13.0-1.99","l","19","<p style=""font-size: 48px;"">+</p>","null","1","","","","","","",""
"980.8950000006007","","image-keyboard-response","450","641530","0.0-13.0-2.99","l","19","Images/whistle_orig.png","65","1","1582059913932","non-match","whistle","train","label","test","true"
"null","","audio-keyboard-response","451","643538","0.0-13.0-3.99","l","19","Sounds/correct.wav","null","1","","","","","","",""
"35400.28500001063","","html-keyboard-response","452","678929","0.0-14.0","l","19","<p>Please take this opportunity to rest your eyes before proceeding.</p><p>When ready, press the enter key to continue to the next set of trials.</p>","13","","","","","","","",""
"null","","audio-keyboard-response","453","681884","0.0-15.0-0.0","l","19","Sounds/frog_sound.wav","null","2","","","","","","",""
"null","","html-keyboard-response","454","682873","0.0-15.0-1.0","l","19","<p style=""font-size: 48px;"">+</p>","null","2","","","","","","",""
"630.7850000011967","","image-keyboard-response","455","683504","0.0-15.0-2.0","l","19","Images/rooster_2.png","65","2","1582059956256","non-match","rooster","frog","sound","test","true"
"null","","audio-keyboard-response","456","685512","0.0-15.0-3.0","l","19","Sounds/correct.wav","null","2","","","","","","",""
"null","","audio-keyboard-response","457","686584","0.0-15.0-0.1","l","19","Sounds/car_sound.wav","null","2","","","","","","",""
"null","","html-keyboard-response","458","687590","0.0-15.0-1.1","l","19","<p style=""font-size: 48px;"">+</p>","null","2","","","","","","",""
"601.6950000048382","","image-keyboard-response","459","688192","0.0-15.0-2.1","l","19","Images/whistle_3.png","65","2","1582059960973","non-match","whistle","car","sound","test","true"
"null","","audio-keyboard-response","460","690195","0.0-15.0-3.1","l","19","Sounds/correct.wav","null","2","","","","","","",""
"null","","audio-keyboard-response","461","691024","0.0-15.0-0.2","l","19","Sounds/cat_label.wav","null","2","","","","","","",""
"null","","html-keyboard-response","462","692023","0.0-15.0-1.2","l","19","<p style=""font-size: 48px;"">+</p>","null","2","","","","","","",""
"488.6899999983143","","image-keyboard-response","463","692513","0.0-15.0-2.2","l","19","Images/cat_2.png","76","2","1582059965406","match","cat","cat","label","test","true"
"null","","audio-keyboard-response","464","694527","0.0-15.0-3.2","l","19","Sounds/correct.wav","null","2","","","","","","",""
"null","","audio-keyboard-response","465","695244","0.0-15.0-0.3","l","19","Sounds/dog_sound.wav","null","2","","","","","","",""
"null","","html-keyboard-response","466","696240","0.0-15.0-1.3","l","19","<p style=""font-size: 48px;"">+</p>","null","2","","","","","","",""
"735.9250000008615","","image-keyboard-response","467","696976","0.0-15.0-2.3","l","19","Images/rooster_orig.png","65","2","1582059969623","non-match","rooster","dog","sound","test","true"
"null","","audio-keyboard-response","468","698979","0.0-15.0-3.3","l","19","Sounds/correct.wav","null","2","","","","","","",""
"null","","audio-keyboard-response","469","700264","0.0-15.0-0.4","l","19","Sounds/train_label.wav","null","2","","","","","","",""
"null","","html-keyboard-response","470","701256","0.0-15.0-1.4","l","19","<p style=""font-size: 48px;"">+</p>","null","2","","","","","","",""
"471.2699999945471","","image-keyboard-response","471","701728","0.0-15.0-2.4","l","19","Images/train_3.png","76","2","1582059974639","match","train","train","label","test","true"
"null","","audio-keyboard-response","472","703744","0.0-15.0-3.4","l","19","Sounds/correct.wav","null","2","","","","","","",""
"null","","audio-keyboard-response","473","704324","0.0-15.0-0.5","l","19","Sounds/gun_label.wav","null","2","","","","","","",""
"null","","html-keyboard-response","474","705323","0.0-15.0-1.5","l","19","<p style=""font-size: 48px;"">+</p>","null","2","","","","","","",""
"531.7050000012387","","image-keyboard-response","475","705857","0.0-15.0-2.5","l","19","Images/gun_2.png","76","2","1582059978706","match","gun","gun","label","test","true"
"null","","audio-keyboard-response","476","707862","0.0-15.0-3.5","l","19","Sounds/correct.wav","null","2","","","","","","",""
"null","","audio-keyboard-response","477","708544","0.0-15.0-0.6","l","19","Sounds/dog_sound.wav","null","2","","","","","","",""
"null","","html-keyboard-response","478","709540","0.0-15.0-1.6","l","19","<p style=""font-size: 48px;"">+</p>","null","2","","","","","","",""
"843.58999998949","","image-keyboard-response","479","710384","0.0-15.0-2.6","l","19","Images/dog_1.png","76","2","1582059982923","match","dog","dog","sound","test","true"
"null","","audio-keyboard-response","480","712393","0.0-15.0-3.6","l","19","Sounds/correct.wav","null","2","","","","","","",""
"null","","audio-keyboard-response","481","713304","0.0-15.0-0.7","l","19","Sounds/frog_label.wav","null","2","","","","","","",""
"null","","html-keyboard-response","482","714306","0.0-15.0-1.7","l","19","<p style=""font-size: 48px;"">+</p>","null","2","","","","","","",""
"461.13499999046326","","image-keyboard-response","483","714768","0.0-15.0-2.7","l","19","Images/gun_2.png","65","2","1582059987690","non-match","gun","frog","label","test","true"
"null","","audio-keyboard-response","484","716776","0.0-15.0-3.7","l","19","Sounds/correct.wav","null","2","","","","","","",""
"null","","audio-keyboard-response","485","717464","0.0-15.0-0.8","l","19","Sounds/rooster_sound.wav","null","2","","","","","","",""
"null","","html-keyboard-response","486","718457","0.0-15.0-1.8","l","19","<p style=""font-size: 48px;"">+</p>","null","2","","","","","","",""
"470.94499999366235","","image-keyboard-response","487","718929","0.0-15.0-2.8","l","19","Images/rooster_3.png","76","2","1582059991840","match","rooster","rooster","sound","test","true"
"null","","audio-keyboard-response","488","720944","0.0-15.0-3.8","l","19","Sounds/correct.wav","null","2","","","","","","",""
"null","","audio-keyboard-response","489","722244","0.0-15.0-0.9","l","19","Sounds/train_sound.wav","null","2","","","","","","",""
"null","","html-keyboard-response","490","723240","0.0-15.0-1.9","l","19","<p style=""font-size: 48px;"">+</p>","null","2","","","","","","",""
"727.2599999996601","","image-keyboard-response","491","723968","0.0-15.0-2.9","l","19","Images/cow_3.png","65","2","1582059996623","non-match","cow","train","sound","test","true"
"null","","audio-keyboard-response","492","725979","0.0-15.0-3.9","l","19","Sounds/correct.wav","null","2","","","","","","",""
"null","","audio-keyboard-response","493","726564","0.0-15.0-0.10","l","19","Sounds/gun_label.wav","null","2","","","","","","",""
"null","","html-keyboard-response","494","727557","0.0-15.0-1.10","l","19","<p style=""font-size: 48px;"">+</p>","null","2","","","","","","",""
"554.680000001099","","image-keyboard-response","495","728112","0.0-15.0-2.10","l","19","Images/dog_2.png","65","2","1582060000940","non-match","dog","gun","label","test","true"
"null","","audio-keyboard-response","496","730129","0.0-15.0-3.10","l","19","Sounds/correct.wav","null","2","","","","","","",""
"null","","audio-keyboard-response","497","730964","0.0-15.0-0.11","l","19","Sounds/cat_label.wav","null","2","","","","","","",""
"null","","html-keyboard-response","498","731957","0.0-15.0-1.11","l","19","<p style=""font-size: 48px;"">+</p>","null","2","","","","","","",""
"458.81999999983236","","image-keyboard-response","499","732417","0.0-15.0-2.11","l","19","Images/cat_3.png","76","2","1582060005340","match","cat","cat","label","test","true"
"null","","audio-keyboard-response","500","734426","0.0-15.0-3.11","l","19","Sounds/correct.wav","null","2","","","","","","",""
"null","","audio-keyboard-response","501","735124","0.0-15.0-0.12","l","19","Sounds/whistle_label.wav","null","2","","","","","","",""
"null","","html-keyboard-response","502","736123","0.0-15.0-1.12","l","19","<p style=""font-size: 48px;"">+</p>","null","2","","","","","","",""
"836.0650000104215","","image-keyboard-response","503","736961","0.0-15.0-2.12","l","19","Images/train_cartoon.png","65","2","1582060009506","non-match","train","whistle","label","test","true"
"null","","audio-keyboard-response","504","738988","0.0-15.0-3.12","l","19","Sounds/correct.wav","null","2","","","","","","",""
"null","","audio-keyboard-response","505","740015","0.0-15.0-0.13","l","19","Sounds/cow_label.wav","null","2","","","","","","",""
"null","","html-keyboard-response","506","741017","0.0-15.0-1.13","l","19","<p style=""font-size: 48px;"">+</p>","null","2","","","","","","",""
"768.8600000110455","","image-keyboard-response","507","741787","0.0-15.0-2.13","l","19","Images/frog_1.png","65","2","1582060014400","non-match","frog","cow","label","test","true"
"null","","audio-keyboard-response","508","743791","0.0-15.0-3.13","l","19","Sounds/correct.wav","null","2","","","","","","",""
"null","","audio-keyboard-response","509","744815","0.0-15.0-0.14","l","19","Sounds/cow_sound.wav","null","2","","","","","","",""
"null","","html-keyboard-response","510","745817","0.0-15.0-1.14","l","19","<p style=""font-size: 48px;"">+</p>","null","2","","","","","","",""
"640.8200000005309","","image-keyboard-response","511","746459","0.0-15.0-2.14","l","19","Images/cow_2.png","76","2","1582060019200","match","cow","cow","sound","test","true"
"null","","audio-keyboard-response","512","748473","0.0-15.0-3.14","l","19","Sounds/correct.wav","null","2","","","","","","",""
"null","","audio-keyboard-response","513","749555","0.0-15.0-0.15","l","19","Sounds/car_sound.wav","null","2","","","","","","",""
"null","","html-keyboard-response","514","750551","0.0-15.0-1.15","l","19","<p style=""font-size: 48px;"">+</p>","null","2","","","","","","",""
"1267.1300000074552","","image-keyboard-response","515","751819","0.0-15.0-2.15","l","19","Images/dog_orig.png","65","2","1582060023934","non-match","dog","car","sound","test","true"
"null","","audio-keyboard-response","516","753824","0.0-15.0-3.15","l","19","Sounds/correct.wav","null","2","","","","","","",""
"null","","audio-keyboard-response","517","754535","0.0-15.0-0.16","l","19","Sounds/dog_sound.wav","null","2","","","","","","",""
"null","","html-keyboard-response","518","755534","0.0-15.0-1.16","l","19","<p style=""font-size: 48px;"">+</p>","null","2","","","","","","",""
"667.92500000156","","image-keyboard-response","519","756203","0.0-15.0-2.16","l","19","Images/cow_cartoon.png","65","2","1582060028917","non-match","cow","dog","sound","test","true"
"null","","audio-keyboard-response","520","758221","0.0-15.0-3.16","l","19","Sounds/correct.wav","null","2","","","","","","",""
"null","","audio-keyboard-response","521","759515","0.0-15.0-0.17","l","19","Sounds/train_sound.wav","null","2","","","","","","",""
"null","","html-keyboard-response","522","760517","0.0-15.0-1.17","l","19","<p style=""font-size: 48px;"">+</p>","null","2","","","","","","",""
"1108.6100000102306","","image-keyboard-response","523","761627","0.0-15.0-2.17","l","19","Images/train_2.png","76","2","1582060033901","match","train","train","sound","test","true"
"null","","audio-keyboard-response","524","763638","0.0-15.0-3.17","l","19","Sounds/correct.wav","null","2","","","","","","",""
"null","","audio-keyboard-response","525","764555","0.0-15.0-0.18","l","19","Sounds/frog_sound.wav","null","2","","","","","","",""
"null","","html-keyboard-response","526","765551","0.0-15.0-1.18","l","19","<p style=""font-size: 48px;"">+</p>","null","2","","","","","","",""
"651.224999994156","","image-keyboard-response","527","766203","0.0-15.0-2.18","l","19","Images/frog_cartoon.png","76","2","1582060038934","match","frog","frog","sound","test","true"
"null","","audio-keyboard-response","528","768221","0.0-15.0-3.18","l","19","Sounds/correct.wav","null","2","","","","","","",""
"null","","audio-keyboard-response","529","768795","0.0-15.0-0.19","l","19","Sounds/gun_sound.wav","null","2","","","","","","",""
"null","","html-keyboard-response","530","769784","0.0-15.0-1.19","l","19","<p style=""font-size: 48px;"">+</p>","null","2","","","","","","",""
"497.7250000083586","","image-keyboard-response","531","770283","0.0-15.0-2.19","l","19","Images/gun_cartoon.png","76","2","1582060043167","match","gun","gun","sound","test","true"
"null","","audio-keyboard-response","532","772290","0.0-15.0-3.19","l","19","Sounds/correct.wav","null","2","","","","","","",""
"null","","audio-keyboard-response","533","773435","0.0-15.0-0.20","l","19","Sounds/motorcycle_label.wav","null","2","","","","","","",""
"null","","html-keyboard-response","534","774434","0.0-15.0-1.20","l","19","<p style=""font-size: 48px;"">+</p>","null","2","","","","","","",""
"855.9949999907985","","image-keyboard-response","535","775291","0.0-15.0-2.20","l","19","Images/car_cartoon.png","65","2","1582060047817","non-match","car","motorcycle","label","test","true"
"null","","audio-keyboard-response","536","777305","0.0-15.0-3.20","l","19","Sounds/correct.wav","null","2","","","","","","",""
"null","","audio-keyboard-response","537","778415","0.0-15.0-0.21","l","19","Sounds/motorcycle_label.wav","null","2","","","","","","",""
"null","","html-keyboard-response","538","779418","0.0-15.0-1.21","l","19","<p style=""font-size: 48px;"">+</p>","null","2","","","","","","",""
"560.3199999895878","","image-keyboard-response","539","779979","0.0-15.0-2.21","l","19","Images/train_2.png","65","2","1582060052801","non-match","train","motorcycle","label","test","true"
"null","","audio-keyboard-response","540","781982","0.0-15.0-3.21","l","19","Sounds/correct.wav","null","2","","","","","","",""
"null","","audio-keyboard-response","541","782675","0.0-15.0-0.22","l","19","Sounds/rooster_sound.wav","null","2","","","","","","",""
"null","","html-keyboard-response","542","783668","0.0-15.0-1.22","l","19","<p style=""font-size: 48px;"">+</p>","null","2","","","","","","",""
"1014.324999996461","","image-keyboard-response","543","784683","0.0-15.0-2.22","l","19","Images/whistle_cartoon.png","76","2","1582060057051","non-match","whistle","rooster","sound","test","false"
"null","","audio-keyboard-response","544","786691","0.0-15.0-3.22","l","19","Sounds/incorrect.wav","null","2","","","","","","",""
"null","","audio-keyboard-response","545","787535","0.0-15.0-0.23","l","19","Sounds/cat_label.wav","null","2","","","","","","",""
"null","","html-keyboard-response","546","788534","0.0-15.0-1.23","l","19","<p style=""font-size: 48px;"">+</p>","null","2","","","","","","",""
"787.914999993518","","image-keyboard-response","547","789323","0.0-15.0-2.23","l","19","Images/rooster_1.png","65","2","1582060061917","non-match","rooster","cat","label","test","true"
"null","","audio-keyboard-response","548","791341","0.0-15.0-3.23","l","19","Sounds/correct.wav","null","2","","","","","","",""
"null","","audio-keyboard-response","549","792415","0.0-15.0-0.24","l","19","Sounds/car_sound.wav","null","2","","","","","","",""
"null","","html-keyboard-response","550","793418","0.0-15.0-1.24","l","19","<p style=""font-size: 48px;"">+</p>","null","2","","","","","","",""
"1296.134999996866","","image-keyboard-response","551","794715","0.0-15.0-2.24","l","19","Images/train_1.png","65","2","1582060066801","non-match","train","car","sound","test","true"
"null","","audio-keyboard-response","552","796723","0.0-15.0-3.24","l","19","Sounds/correct.wav","null","2","","","","","","",""
"null","","audio-keyboard-response","553","797535","0.0-15.0-0.25","l","19","Sounds/cat_label.wav","null","2","","","","","","",""
"null","","html-keyboard-response","554","798535","0.0-15.0-1.25","l","19","<p style=""font-size: 48px;"">+</p>","null","2","","","","","","",""
"867.4400000018068","","image-keyboard-response","555","799404","0.0-15.0-2.25","l","19","Images/cat_1.png","76","2","1582060071918","match","cat","cat","label","test","true"
"null","","audio-keyboard-response","556","801407","0.0-15.0-3.25","l","19","Sounds/correct.wav","null","2","","","","","","",""
"null","","audio-keyboard-response","557","802095","0.0-15.0-0.26","l","19","Sounds/whistle_label.wav","null","2","","","","","","",""
"null","","html-keyboard-response","558","803085","0.0-15.0-1.26","l","19","<p style=""font-size: 48px;"">+</p>","null","2","","","","","","",""
"541.510000010021","","image-keyboard-response","559","803627","0.0-15.0-2.26","l","19","Images/whistle_orig.png","76","2","1582060076468","match","whistle","whistle","label","test","true"
"null","","audio-keyboard-response","560","805640","0.0-15.0-3.26","l","19","Sounds/correct.wav","null","2","","","","","","",""
"null","","audio-keyboard-response","561","806355","0.0-15.0-0.27","l","19","Sounds/dog_sound.wav","null","2","","","","","","",""
"null","","html-keyboard-response","562","807352","0.0-15.0-1.27","l","19","<p style=""font-size: 48px;"">+</p>","null","2","","","","","","",""
"482.5649999984307","","image-keyboard-response","563","807835","0.0-15.0-2.27","l","19","Images/dog_orig.png","76","2","1582060080735","match","dog","dog","sound","test","true"
"null","","audio-keyboard-response","564","809841","0.0-15.0-3.27","l","19","Sounds/correct.wav","null","2","","","","","","",""
"null","","audio-keyboard-response","565","810755","0.0-15.0-0.28","l","19","Sounds/frog_sound.wav","null","2","","","","","","",""
"null","","html-keyboard-response","566","811752","0.0-15.0-1.28","l","19","<p style=""font-size: 48px;"">+</p>","null","2","","","","","","",""
"530.5649999936577","","image-keyboard-response","567","812284","0.0-15.0-2.28","l","19","Images/frog_1.png","76","2","1582060085135","match","frog","frog","sound","test","true"
"null","","audio-keyboard-response","568","814292","0.0-15.0-3.28","l","19","Sounds/correct.wav","null","2","","","","","","",""
"null","","audio-keyboard-response","569","815315","0.0-15.0-0.29","l","19","Sounds/cow_sound.wav","null","2","","","","","","",""
"null","","html-keyboard-response","570","816318","0.0-15.0-1.29","l","19","<p style=""font-size: 48px;"">+</p>","null","2","","","","","","",""
"875.9349999891128","","image-keyboard-response","571","817195","0.0-15.0-2.29","l","19","Images/cow_cartoon.png","76","2","1582060089702","match","cow","cow","sound","test","true"
"null","","audio-keyboard-response","572","819199","0.0-15.0-3.29","l","19","Sounds/correct.wav","null","2","","","","","","",""
"null","","audio-keyboard-response","573","819895","0.0-15.0-0.30","l","19","Sounds/rooster_label.wav","null","2","","","","","","",""
"null","","html-keyboard-response","574","820885","0.0-15.0-1.30","l","19","<p style=""font-size: 48px;"">+</p>","null","2","","","","","","",""
"1397.2050000011222","","image-keyboard-response","575","822283","0.0-15.0-2.30","l","19","Images/cat_cartoon.png","65","2","1582060094268","non-match","cat","rooster","label","test","true"
"null","","audio-keyboard-response","576","824292","0.0-15.0-3.30","l","19","Sounds/correct.wav","null","2","","","","","","",""
"null","","audio-keyboard-response","577","825175","0.0-15.0-0.31","l","19","Sounds/frog_sound.wav","null","2","","","","","","",""
"null","","html-keyboard-response","578","826169","0.0-15.0-1.31","l","19","<p style=""font-size: 48px;"">+</p>","null","2","","","","","","",""
"1425.9650000021793","","image-keyboard-response","579","827596","0.0-15.0-2.31","l","19","Images/cat_3.png","65","2","1582060099552","non-match","cat","frog","sound","test","true"
"null","","audio-keyboard-response","580","829610","0.0-15.0-3.31","l","19","Sounds/correct.wav","null","2","","","","","","",""
"null","","audio-keyboard-response","581","830895","0.0-15.0-0.32","l","19","Sounds/train_label.wav","null","2","","","","","","",""
"null","","html-keyboard-response","582","831885","0.0-15.0-1.32","l","19","<p style=""font-size: 48px;"">+</p>","null","2","","","","","","",""
"1100.960000010673","","image-keyboard-response","583","832987","0.0-15.0-2.32","l","19","Images/car_2.png","76","2","1582060105268","non-match","car","train","label","test","false"
"null","","audio-keyboard-response","584","834990","0.0-15.0-3.32","l","19","Sounds/incorrect.wav","null","2","","","","","","",""
"null","","audio-keyboard-response","585","836075","0.0-15.0-0.33","l","19","Sounds/car_sound.wav","null","2","","","","","","",""
"null","","html-keyboard-response","586","837069","0.0-15.0-1.33","l","19","<p style=""font-size: 48px;"">+</p>","null","2","","","","","","",""
"1197.8750000125729","","image-keyboard-response","587","838268","0.0-15.0-2.33","l","19","Images/car_3.png","76","2","1582060110452","match","car","car","sound","test","true"
"null","","audio-keyboard-response","588","840275","0.0-15.0-3.33","l","19","Sounds/correct.wav","null","2","","","","","","",""
"null","","audio-keyboard-response","589","840935","0.0-15.0-0.34","l","19","Sounds/dog_label.wav","null","2","","","","","","",""
"null","","html-keyboard-response","590","841935","0.0-15.0-1.34","l","19","<p style=""font-size: 48px;"">+</p>","null","2","","","","","","",""
"715.184999993653","","image-keyboard-response","591","842652","0.0-15.0-2.34","l","19","Images/motorcycle_3.png","65","2","1582060115318","non-match","motorcycle","dog","label","test","true"
"null","","audio-keyboard-response","592","844657","0.0-15.0-3.34","l","19","Sounds/correct.wav","null","2","","","","","","",""
"null","","audio-keyboard-response","593","845355","0.0-15.0-0.35","l","19","Sounds/rooster_sound.wav","null","2","","","","","","",""
"null","","html-keyboard-response","594","846352","0.0-15.0-1.35","l","19","<p style=""font-size: 48px;"">+</p>","null","2","","","","","","",""
"1626.1200000008103","","image-keyboard-response","595","847979","0.0-15.0-2.35","l","19","Images/cow_2.png","65","2","1582060119735","non-match","cow","rooster","sound","test","true"
"null","","audio-keyboard-response","596","849993","0.0-15.0-3.35","l","19","Sounds/correct.wav","null","2","","","","","","",""
"null","","audio-keyboard-response","597","851015","0.0-15.0-0.36","l","19","Sounds/cow_sound.wav","null","2","","","","","","",""
"null","","html-keyboard-response","598","852019","0.0-15.0-1.36","l","19","<p style=""font-size: 48px;"">+</p>","null","2","","","","","","",""
"807.7800000028219","","image-keyboard-response","599","852828","0.0-15.0-2.36","l","19","Images/cat_orig.png","65","2","1582060125402","non-match","cat","cow","sound","test","true"
"null","","audio-keyboard-response","600","854841","0.0-15.0-3.36","l","19","Sounds/correct.wav","null","2","","","","","","",""
"null","","audio-keyboard-response","601","855915","0.0-15.0-0.37","l","19","Sounds/car_label.wav","null","2","","","","","","",""
"null","","html-keyboard-response","602","856919","0.0-15.0-1.37","l","19","<p style=""font-size: 48px;"">+</p>","null","2","","","","","","",""
"483.3349999971688","","image-keyboard-response","603","857403","0.0-15.0-2.37","l","19","Images/frog_orig.png","65","2","1582060130302","non-match","frog","car","label","test","true"
"null","","audio-keyboard-response","604","859408","0.0-15.0-3.37","l","19","Sounds/correct.wav","null","2","","","","","","",""
"null","","audio-keyboard-response","605","860236","0.0-15.0-0.38","l","19","Sounds/cat_sound.wav","null","2","","","","","","",""
"null","","html-keyboard-response","606","861236","0.0-15.0-1.38","l","19","<p style=""font-size: 48px;"">+</p>","null","2","","","","","","",""
"950.7199999934528","","image-keyboard-response","607","862188","0.0-15.0-2.38","l","19","Images/car_1.png","65","2","1582060134619","non-match","car","cat","sound","test","true"
"null","","audio-keyboard-response","608","864192","0.0-15.0-3.38","l","19","Sounds/correct.wav","null","2","","","","","","",""
"null","","audio-keyboard-response","609","864856","0.0-15.0-0.39","l","19","Sounds/dog_label.wav","null","2","","","","","","",""
"null","","html-keyboard-response","610","865853","0.0-15.0-1.39","l","19","<p style=""font-size: 48px;"">+</p>","null","2","","","","","","",""
"1086.139999999432","","image-keyboard-response","611","866940","0.0-15.0-2.39","l","19","Images/dog_cartoon.png","76","2","1582060139236","match","dog","dog","label","test","true"
"null","","audio-keyboard-response","612","868957","0.0-15.0-3.39","l","19","Sounds/correct.wav","null","2","","","","","","",""
"null","","audio-keyboard-response","613","869856","0.0-15.0-0.40","l","19","Sounds/frog_label.wav","null","2","","","","","","",""
"null","","html-keyboard-response","614","870853","0.0-15.0-1.40","l","19","<p style=""font-size: 48px;"">+</p>","null","2","","","","","","",""
"869.8199999926146","","image-keyboard-response","615","871724","0.0-15.0-2.40","l","19","Images/cow_orig.png","65","2","1582060144236","non-match","cow","frog","label","test","true"
"null","","audio-keyboard-response","616","873740","0.0-15.0-3.40","l","19","Sounds/correct.wav","null","2","","","","","","",""
"null","","audio-keyboard-response","617","874435","0.0-15.0-0.41","l","19","Sounds/whistle_label.wav","null","2","","","","","","",""
"null","","html-keyboard-response","618","875436","0.0-15.0-1.41","l","19","<p style=""font-size: 48px;"">+</p>","null","2","","","","","","",""
"750.5800000071758","","image-keyboard-response","619","876188","0.0-15.0-2.41","l","19","Images/dog_3.png","65","2","1582060148820","non-match","dog","whistle","label","test","true"
"null","","audio-keyboard-response","620","878191","0.0-15.0-3.41","l","19","Sounds/correct.wav","null","2","","","","","","",""
"null","","audio-keyboard-response","621","879336","0.0-15.0-0.42","l","19","Sounds/motorcycle_label.wav","null","2","","","","","","",""
"null","","html-keyboard-response","622","880353","0.0-15.0-1.42","l","19","<p style=""font-size: 48px;"">+</p>","null","2","","","","","","",""
"600.9699999995064","","image-keyboard-response","623","880956","0.0-15.0-2.42","l","19","Images/whistle_orig.png","65","2","1582060153736","non-match","whistle","motorcycle","label","test","true"
"null","","audio-keyboard-response","624","882961","0.0-15.0-3.42","l","19","Sounds/correct.wav","null","2","","","","","","",""
"null","","audio-keyboard-response","625","884036","0.0-15.0-0.43","l","19","Sounds/car_sound.wav","null","2","","","","","","",""
"null","","html-keyboard-response","626","885036","0.0-15.0-1.43","l","19","<p style=""font-size: 48px;"">+</p>","null","2","","","","","","",""
"702.4549999914598","","image-keyboard-response","627","885740","0.0-15.0-2.43","l","19","Images/car_orig.png","76","2","1582060158419","match","car","car","sound","test","true"
"null","","audio-keyboard-response","628","887757","0.0-15.0-3.43","l","19","Sounds/correct.wav","null","2","","","","","","",""
"null","","audio-keyboard-response","629","888815","0.0-15.0-0.44","l","19","Sounds/car_sound.wav","null","2","","","","","","",""
"null","","html-keyboard-response","630","889820","0.0-15.0-1.44","l","19","<p style=""font-size: 48px;"">+</p>","null","2","","","","","","",""
"350.90499999932945","","image-keyboard-response","631","890172","0.0-15.0-2.44","l","19","Images/cat_1.png","65","2","1582060163203","non-match","cat","car","sound","test","true"
"null","","audio-keyboard-response","632","892177","0.0-15.0-3.44","l","19","Sounds/correct.wav","null","2","","","","","","",""
"null","","audio-keyboard-response","633","892876","0.0-15.0-0.45","l","19","Sounds/dog_sound.wav","null","2","","","","","","",""
"null","","html-keyboard-response","634","893870","0.0-15.0-1.45","l","19","<p style=""font-size: 48px;"">+</p>","null","2","","","","","","",""
"397.20500000112224","","image-keyboard-response","635","894268","0.0-15.0-2.45","l","19","Images/dog_2.png","76","2","1582060167253","match","dog","dog","sound","test","true"
"null","","audio-keyboard-response","636","896275","0.0-15.0-3.45","l","19","Sounds/correct.wav","null","2","","","","","","",""
"null","","audio-keyboard-response","637","897356","0.0-15.0-0.46","l","19","Sounds/car_label.wav","null","2","","","","","","",""
"null","","html-keyboard-response","638","898353","0.0-15.0-1.46","l","19","<p style=""font-size: 48px;"">+</p>","null","2","","","","","","",""
"457.68500000122003","","image-keyboard-response","639","898812","0.0-15.0-2.46","l","19","Images/car_1.png","76","2","1582060171736","match","car","car","label","test","true"
"null","","audio-keyboard-response","640","900823","0.0-15.0-3.46","l","19","Sounds/correct.wav","null","2","","","","","","",""
"null","","audio-keyboard-response","641","902115","0.0-15.0-0.47","l","19","Sounds/train_sound.wav","null","2","","","","","","",""
"null","","html-keyboard-response","642","903120","0.0-15.0-1.47","l","19","<p style=""font-size: 48px;"">+</p>","null","2","","","","","","",""
"699.0050000022165","","image-keyboard-response","643","903820","0.0-15.0-2.47","l","19","Images/train_cartoon.png","76","2","1582060176503","match","train","train","sound","test","true"
"null","","audio-keyboard-response","644","905827","0.0-15.0-3.47","l","19","Sounds/correct.wav","null","2","","","","","","",""
"null","","audio-keyboard-response","645","906975","0.0-15.0-0.48","l","19","Sounds/motorcycle_label.wav","null","2","","","","","","",""
"null","","html-keyboard-response","646","907970","0.0-15.0-1.48","l","19","<p style=""font-size: 48px;"">+</p>","null","2","","","","","","",""
"809.2150000011316","","image-keyboard-response","647","908780","0.0-15.0-2.48","l","19","Images/motorcycle_cartoon.png","76","2","1582060181353","match","motorcycle","motorcycle","label","test","true"
"null","","audio-keyboard-response","648","910791","0.0-15.0-3.48","l","19","Sounds/correct.wav","null","2","","","","","","",""
"null","","audio-keyboard-response","649","911496","0.0-15.0-0.49","l","19","Sounds/rooster_sound.wav","null","2","","","","","","",""
"null","","html-keyboard-response","650","912487","0.0-15.0-1.49","l","19","<p style=""font-size: 48px;"">+</p>","null","2","","","","","","",""
"755.3349999943748","","image-keyboard-response","651","913244","0.0-15.0-2.49","l","19","Images/train_3.png","65","2","1582060185870","non-match","train","rooster","sound","test","true"
"null","","audio-keyboard-response","652","915257","0.0-15.0-3.49","l","19","Sounds/correct.wav","null","2","","","","","","",""
"null","","audio-keyboard-response","653","915916","0.0-15.0-0.50","l","19","Sounds/dog_label.wav","null","2","","","","","","",""
"null","","html-keyboard-response","654","916920","0.0-15.0-1.50","l","19","<p style=""font-size: 48px;"">+</p>","null","2","","","","","","",""
"786.6950000025099","","image-keyboard-response","655","917708","0.0-15.0-2.50","l","19","Images/dog_3.png","76","2","1582060190303","match","dog","dog","label","test","true"
"null","","audio-keyboard-response","656","919725","0.0-15.0-3.50","l","19","Sounds/correct.wav","null","2","","","","","","",""
"null","","audio-keyboard-response","657","920356","0.0-15.0-0.51","l","19","Sounds/dog_label.wav","null","2","","","","","","",""
"null","","html-keyboard-response","658","921354","0.0-15.0-1.51","l","19","<p style=""font-size: 48px;"">+</p>","null","2","","","","","","",""
"545.6299999932526","","image-keyboard-response","659","921900","0.0-15.0-2.51","l","19","Images/car_3.png","65","2","1582060194737","non-match","car","dog","label","test","true"
"null","","audio-keyboard-response","660","923908","0.0-15.0-3.51","l","19","Sounds/correct.wav","null","2","","","","","","",""
"null","","audio-keyboard-response","661","924496","0.0-15.0-0.52","l","19","Sounds/gun_label.wav","null","2","","","","","","",""
"null","","html-keyboard-response","662","925487","0.0-15.0-1.52","l","19","<p style=""font-size: 48px;"">+</p>","null","2","","","","","","",""
