[{"rt":4530.935000046156,"responses":"{\"Q0\":\"28\"}","trial_type":"survey-text","trial_index":0,"time_elapsed":4582,"internal_node_id":"0.0-0.0","match_key":"a","participant_id":"28"},{"rt":23313.439999939874,"stimulus":"<p>Use KEYBOARD 2 (match LEFT)</p><p>Press MATCH to continue.</p>","key_press":65,"trial_type":"html-keyboard-response","trial_index":1,"time_elapsed":27905,"internal_node_id":"0.0-1.0","match_key":"a","participant_id":"28"},{"rt":2069351.9449998857,"stimulus":"<p>Welcome to the experiment.</p>","key_press":32,"trial_type":"html-keyboard-response","trial_index":2,"time_elapsed":2097261,"internal_node_id":"0.0-2.0","match_key":"a","participant_id":"28"},{"rt":9328.330000047572,"stimulus":"<p>Thank you for agreeing to participate in this study.</p><p>If during any part of the procedure you must stop for any reason, please inform the researcher that you do not wish to continue.</p>","key_press":32,"trial_type":"html-keyboard-response","trial_index":3,"time_elapsed":2106595,"internal_node_id":"0.0-3.0","match_key":"a","participant_id":"28"},{"rt":21287.744999979623,"stimulus":"<p>In this experiment, you will hear various words or sounds and see pictures of various animals and objects.</p><p>Most of the images will be of common everyday objects, such as cars, cats, cows, firearms, frogs, chickens, whistles, trains, motorcycles, and dogs.</p><p>Some of the images will be real-life stills, while others will be cartoons.</p>","key_press":32,"trial_type":"html-keyboard-response","trial_index":4,"time_elapsed":2127884,"internal_node_id":"0.0-4.0","match_key":"a","participant_id":"28"},{"rt":15238.299999968149,"stimulus":"<p>Sometimes, the word/sound will match the picture, for example you'll hear a meowing sound and see a cat.</p><p>Other times, the picture will not match the sound or word.</p><p>Your task is to decide as quickly as possible if the word/sound matches the picture or not. </p>","key_press":32,"trial_type":"html-keyboard-response","trial_index":5,"time_elapsed":2143123,"internal_node_id":"0.0-5.0","match_key":"a","participant_id":"28"},{"rt":12758.32000002265,"stimulus":"<p>For example, if you hear the word \"cat\" or hear a meowing sound, and then see a picture of a cat, you should press the MATCH key.</p><p> If the sound and image do not match, press the NOT-MATCH key to indicate that there is not a match.</p>","key_press":32,"trial_type":"html-keyboard-response","trial_index":6,"time_elapsed":2155883,"internal_node_id":"0.0-6.0","match_key":"a","participant_id":"28"},{"rt":12159.164999960922,"stimulus":"<p>If you make a mistake, you will hear a buzzing sound instead of a more pleasant sound.</p><p> Try to respond as quickly as possible, while making as few errors as possible. If you are making mistakes, you are probably rushing.</p>","key_press":32,"trial_type":"html-keyboard-response","trial_index":7,"time_elapsed":2168037,"internal_node_id":"0.0-7.0","match_key":"a","participant_id":"28"},{"rt":11894.744999939576,"stimulus":"<p>Please try to not move or blink your eyes during the presentation of the images. You can move and blink between images.</p><p>During the experiment there will be some breaks during which you can rest your eyes.</p>","key_press":32,"trial_type":"html-keyboard-response","trial_index":8,"time_elapsed":2179932,"internal_node_id":"0.0-8.0","match_key":"a","participant_id":"28"},{"rt":6302.525000064634,"stimulus":"<p>We will begin with 10 practice trials. Please let the experimenter know if you have any questions.</p>","key_press":32,"trial_type":"html-keyboard-response","trial_index":9,"time_elapsed":2186236,"internal_node_id":"0.0-9.0","match_key":"a","participant_id":"28"},{"rt":null,"stimulus":"Sounds/motorcycle_sound.wav","key_press":null,"block":0,"trial_type":"audio-keyboard-response","trial_index":10,"time_elapsed":2187432,"internal_node_id":"0.0-10.0-0.0","match_key":"a","participant_id":"28"},{"rt":null,"stimulus":"<p style=\"font-size: 48px;\">+</p>","key_press":null,"block":0,"trial_type":"html-keyboard-response","trial_index":11,"time_elapsed":2188423,"internal_node_id":"0.0-10.0-1.0","match_key":"a","participant_id":"28"},{"rt":7363.224999979138,"stimulus":"Images/cat_cartoon.png","key_press":76,"stim_onset":1582756907301,"block":0,"match_type":"non-match","image_category":"cat","sound_category":"motorcycle","audio_type":"sound","phase":"practice","trial_type":"image-keyboard-response","trial_index":12,"time_elapsed":2195789,"internal_node_id":"0.0-10.0-2.0","match_key":"a","participant_id":"28","correct":true},{"rt":null,"stimulus":"Sounds/correct.wav","key_press":null,"block":0,"trial_type":"audio-keyboard-response","trial_index":13,"time_elapsed":2197797,"internal_node_id":"0.0-10.0-3.0","match_key":"a","participant_id":"28"},{"rt":null,"stimulus":"Sounds/frog_label.wav","key_press":null,"block":0,"trial_type":"audio-keyboard-response","trial_index":14,"time_elapsed":2198691,"internal_node_id":"0.0-10.0-0.1","match_key":"a","participant_id":"28"},{"rt":null,"stimulus":"<p style=\"font-size: 48px;\">+</p>","key_press":null,"block":0,"trial_type":"html-keyboard-response","trial_index":15,"time_elapsed":2199690,"internal_node_id":"0.0-10.0-1.1","match_key":"a","participant_id":"28"},{"rt":1168.790000025183,"stimulus":"Images/frog_cartoon.png","key_press":65,"stim_onset":1582756918568,"block":0,"match_type":"match","image_category":"frog","sound_category":"frog","audio_type":"label","phase":"practice","trial_type":"image-keyboard-response","trial_index":16,"time_elapsed":2200860,"internal_node_id":"0.0-10.0-2.1","match_key":"a","participant_id":"28","correct":true},{"rt":null,"stimulus":"Sounds/correct.wav","key_press":null,"block":0,"trial_type":"audio-keyboard-response","trial_index":17,"time_elapsed":2202877,"internal_node_id":"0.0-10.0-3.1","match_key":"a","participant_id":"28"},{"rt":null,"stimulus":"Sounds/gun_label.wav","key_press":null,"block":0,"trial_type":"audio-keyboard-response","trial_index":18,"time_elapsed":2203451,"internal_node_id":"0.0-10.0-0.2","match_key":"a","participant_id":"28"},{"rt":null,"stimulus":"<p style=\"font-size: 48px;\">+</p>","key_press":null,"block":0,"trial_type":"html-keyboard-response","trial_index":19,"time_elapsed":2204440,"internal_node_id":"0.0-10.0-1.2","match_key":"a","participant_id":"28"},{"rt":570.7749999128282,"stimulus":"Images/gun_orig.png","key_press":65,"stim_onset":1582756923318,"block":0,"match_type":"match","image_category":"gun","sound_category":"gun","audio_type":"label","phase":"practice","trial_type":"image-keyboard-response","trial_index":20,"time_elapsed":2205012,"internal_node_id":"0.0-10.0-2.2","match_key":"a","participant_id":"28","correct":true},{"rt":null,"stimulus":"Sounds/correct.wav","key_press":null,"block":0,"trial_type":"audio-keyboard-response","trial_index":21,"time_elapsed":2207028,"internal_node_id":"0.0-10.0-3.2","match_key":"a","participant_id":"28"},{"rt":null,"stimulus":"Sounds/cat_sound.wav","key_press":null,"block":0,"trial_type":"audio-keyboard-response","trial_index":22,"time_elapsed":2207871,"internal_node_id":"0.0-10.0-0.3","match_key":"a","participant_id":"28"},{"rt":null,"stimulus":"<p style=\"font-size: 48px;\">+</p>","key_press":null,"block":0,"trial_type":"html-keyboard-response","trial_index":23,"time_elapsed":2208873,"internal_node_id":"0.0-10.0-1.3","match_key":"a","participant_id":"28"},{"rt":961.6549999918789,"stimulus":"Images/cat_orig.png","key_press":65,"stim_onset":1582756927751,"block":0,"match_type":"match","image_category":"cat","sound_category":"cat","audio_type":"sound","phase":"practice","trial_type":"image-keyboard-response","trial_index":24,"time_elapsed":2209836,"internal_node_id":"0.0-10.0-2.3","match_key":"a","participant_id":"28","correct":true},{"rt":null,"stimulus":"Sounds/correct.wav","key_press":null,"block":0,"trial_type":"audio-keyboard-response","trial_index":25,"time_elapsed":2211845,"internal_node_id":"0.0-10.0-3.3","match_key":"a","participant_id":"28"},{"rt":null,"stimulus":"Sounds/motorcycle_label.wav","key_press":null,"block":0,"trial_type":"audio-keyboard-response","trial_index":26,"time_elapsed":2212991,"internal_node_id":"0.0-10.0-0.4","match_key":"a","participant_id":"28"},{"rt":null,"stimulus":"<p style=\"font-size: 48px;\">+</p>","key_press":null,"block":0,"trial_type":"html-keyboard-response","trial_index":27,"time_elapsed":2213990,"internal_node_id":"0.0-10.0-1.4","match_key":"a","participant_id":"28"},{"rt":964.6149999462068,"stimulus":"Images/frog_1.png","key_press":76,"stim_onset":1582756932868,"block":0,"match_type":"non-match","image_category":"frog","sound_category":"motorcycle","audio_type":"label","phase":"practice","trial_type":"image-keyboard-response","trial_index":28,"time_elapsed":2214956,"internal_node_id":"0.0-10.0-2.4","match_key":"a","participant_id":"28","correct":true},{"rt":null,"stimulus":"Sounds/correct.wav","key_press":null,"block":0,"trial_type":"audio-keyboard-response","trial_index":29,"time_elapsed":2216963,"internal_node_id":"0.0-10.0-3.4","match_key":"a","participant_id":"28"},{"rt":null,"stimulus":"Sounds/whistle_label.wav","key_press":null,"block":0,"trial_type":"audio-keyboard-response","trial_index":30,"time_elapsed":2217671,"internal_node_id":"0.0-10.0-0.5","match_key":"a","participant_id":"28"},{"rt":null,"stimulus":"<p style=\"font-size: 48px;\">+</p>","key_press":null,"block":0,"trial_type":"html-keyboard-response","trial_index":31,"time_elapsed":2218673,"internal_node_id":"0.0-10.0-1.5","match_key":"a","participant_id":"28"},{"rt":513.3050000295043,"stimulus":"Images/whistle_cartoon.png","key_press":76,"stim_onset":1582756937551,"block":0,"match_type":"match","image_category":"whistle","sound_category":"whistle","audio_type":"label","phase":"practice","trial_type":"image-keyboard-response","trial_index":32,"time_elapsed":2219188,"internal_node_id":"0.0-10.0-2.5","match_key":"a","participant_id":"28","correct":false},{"rt":null,"stimulus":"Sounds/incorrect.wav","key_press":null,"block":0,"trial_type":"audio-keyboard-response","trial_index":33,"time_elapsed":2221197,"internal_node_id":"0.0-10.0-3.5","match_key":"a","participant_id":"28"},{"rt":null,"stimulus":"Sounds/car_label.wav","key_press":null,"block":0,"trial_type":"audio-keyboard-response","trial_index":34,"time_elapsed":2222271,"internal_node_id":"0.0-10.0-0.6","match_key":"a","participant_id":"28"},{"rt":null,"stimulus":"<p style=\"font-size: 48px;\">+</p>","key_press":null,"block":0,"trial_type":"html-keyboard-response","trial_index":35,"time_elapsed":2223273,"internal_node_id":"0.0-10.0-1.6","match_key":"a","participant_id":"28"},{"rt":497.620000038296,"stimulus":"Images/car_2.png","key_press":76,"stim_onset":1582756942152,"block":0,"match_type":"match","image_category":"car","sound_category":"car","audio_type":"label","phase":"practice","trial_type":"image-keyboard-response","trial_index":36,"time_elapsed":2223772,"internal_node_id":"0.0-10.0-2.6","match_key":"a","participant_id":"28","correct":false},{"rt":null,"stimulus":"Sounds/incorrect.wav","key_press":null,"block":0,"trial_type":"audio-keyboard-response","trial_index":37,"time_elapsed":2225780,"internal_node_id":"0.0-10.0-3.6","match_key":"a","participant_id":"28"},{"rt":null,"stimulus":"Sounds/car_label.wav","key_press":null,"block":0,"trial_type":"audio-keyboard-response","trial_index":38,"time_elapsed":2226831,"internal_node_id":"0.0-10.0-0.7","match_key":"a","participant_id":"28"},{"rt":null,"stimulus":"<p style=\"font-size: 48px;\">+</p>","key_press":null,"block":0,"trial_type":"html-keyboard-response","trial_index":39,"time_elapsed":2227823,"internal_node_id":"0.0-10.0-1.7","match_key":"a","participant_id":"28"},{"rt":987.3549999902025,"stimulus":"Images/cat_3.png","key_press":76,"stim_onset":1582756946702,"block":0,"match_type":"non-match","image_category":"cat","sound_category":"car","audio_type":"label","phase":"practice","trial_type":"image-keyboard-response","trial_index":40,"time_elapsed":2228811,"internal_node_id":"0.0-10.0-2.7","match_key":"a","participant_id":"28","correct":true},{"rt":null,"stimulus":"Sounds/correct.wav","key_press":null,"block":0,"trial_type":"audio-keyboard-response","trial_index":41,"time_elapsed":2230828,"internal_node_id":"0.0-10.0-3.7","match_key":"a","participant_id":"28"},{"rt":null,"stimulus":"Sounds/train_sound.wav","key_press":null,"block":0,"trial_type":"audio-keyboard-response","trial_index":42,"time_elapsed":2232130,"internal_node_id":"0.0-10.0-0.8","match_key":"a","participant_id":"28"},{"rt":null,"stimulus":"<p style=\"font-size: 48px;\">+</p>","key_press":null,"block":0,"trial_type":"html-keyboard-response","trial_index":43,"time_elapsed":2233122,"internal_node_id":"0.0-10.0-1.8","match_key":"a","participant_id":"28"},{"rt":1247.4200000287965,"stimulus":"Images/rooster_cartoon.png","key_press":76,"stim_onset":1582756952000,"block":0,"match_type":"non-match","image_category":"rooster","sound_category":"train","audio_type":"sound","phase":"practice","trial_type":"image-keyboard-response","trial_index":44,"time_elapsed":2234371,"internal_node_id":"0.0-10.0-2.8","match_key":"a","participant_id":"28","correct":true},{"rt":null,"stimulus":"Sounds/correct.wav","key_press":null,"block":0,"trial_type":"audio-keyboard-response","trial_index":45,"time_elapsed":2236385,"internal_node_id":"0.0-10.0-3.8","match_key":"a","participant_id":"28"},{"rt":null,"stimulus":"Sounds/cow_label.wav","key_press":null,"block":0,"trial_type":"audio-keyboard-response","trial_index":46,"time_elapsed":2237410,"internal_node_id":"0.0-10.0-0.9","match_key":"a","participant_id":"28"},{"rt":null,"stimulus":"<p style=\"font-size: 48px;\">+</p>","key_press":null,"block":0,"trial_type":"html-keyboard-response","trial_index":47,"time_elapsed":2238405,"internal_node_id":"0.0-10.0-1.9","match_key":"a","participant_id":"28"},{"rt":835.9900000505149,"stimulus":"Images/cow_2.png","key_press":65,"stim_onset":1582756957284,"block":0,"match_type":"match","image_category":"cow","sound_category":"cow","audio_type":"label","phase":"practice","trial_type":"image-keyboard-response","trial_index":48,"time_elapsed":2239243,"internal_node_id":"0.0-10.0-2.9","match_key":"a","participant_id":"28","correct":true},{"rt":null,"stimulus":"Sounds/correct.wav","key_press":null,"block":0,"trial_type":"audio-keyboard-response","trial_index":49,"time_elapsed":2241260,"internal_node_id":"0.0-10.0-3.9","match_key":"a","participant_id":"28"},{"rt":16557.980000041425,"stimulus":"<p>The rest of the experiment is divided into five blocks with 100 trials in each block. It will take about 45 minutes to complete.</p><p>The experimenter will be in the outer room and you can communicate with them through the monitor if you have any questions or wish to stop the experiment.</p>","key_press":32,"trial_type":"html-keyboard-response","trial_index":50,"time_elapsed":2257819,"internal_node_id":"0.0-11.0","match_key":"a","participant_id":"28"},{"rt":11198.97500006482,"stimulus":"<p>Remember, please try not to move or blink your eyes during the presentation of the images. </p><p>At the end of the experiment, we will show you your scores on the task so you can see how you did.</p><p>The experiment will start on the next screen.</p>","key_press":32,"trial_type":"html-keyboard-response","trial_index":51,"time_elapsed":2269019,"internal_node_id":"0.0-12.0","match_key":"a","participant_id":"28"},{"rt":null,"stimulus":"Sounds/whistle_sound.wav","key_press":null,"block":1,"trial_type":"audio-keyboard-response","trial_index":52,"time_elapsed":2271746,"internal_node_id":"0.0-13.0-0.0","match_key":"a","participant_id":"28"},{"rt":null,"stimulus":"<p style=\"font-size: 48px;\">+</p>","key_press":null,"block":1,"trial_type":"html-keyboard-response","trial_index":53,"time_elapsed":2272739,"internal_node_id":"0.0-13.0-1.0","match_key":"a","participant_id":"28"},{"rt":1038.2799999788404,"stimulus":"Images/whistle_cartoon.png","key_press":65,"stim_onset":1582756991617,"block":1,"match_type":"match","image_category":"whistle","sound_category":"whistle","audio_type":"sound","phase":"test","trial_type":"image-keyboard-response","trial_index":54,"time_elapsed":2273779,"internal_node_id":"0.0-13.0-2.0","match_key":"a","participant_id":"28","correct":true},{"rt":null,"stimulus":"Sounds/correct.wav","key_press":null,"block":1,"trial_type":"audio-keyboard-response","trial_index":55,"time_elapsed":2275793,"internal_node_id":"0.0-13.0-3.0","match_key":"a","participant_id":"28"},{"rt":null,"stimulus":"Sounds/cow_sound.wav","key_press":null,"block":1,"trial_type":"audio-keyboard-response","trial_index":56,"time_elapsed":2276807,"internal_node_id":"0.0-13.0-0.1","match_key":"a","participant_id":"28"},{"rt":null,"stimulus":"<p style=\"font-size: 48px;\">+</p>","key_press":null,"block":1,"trial_type":"html-keyboard-response","trial_index":57,"time_elapsed":2277806,"internal_node_id":"0.0-13.0-1.1","match_key":"a","participant_id":"28"},{"rt":867.0599999604747,"stimulus":"Images/cow_3.png","key_press":65,"stim_onset":1582756996684,"block":1,"match_type":"match","image_category":"cow","sound_category":"cow","audio_type":"sound","phase":"test","trial_type":"image-keyboard-response","trial_index":58,"time_elapsed":2278675,"internal_node_id":"0.0-13.0-2.1","match_key":"a","participant_id":"28","correct":true},{"rt":null,"stimulus":"Sounds/correct.wav","key_press":null,"block":1,"trial_type":"audio-keyboard-response","trial_index":59,"time_elapsed":2280682,"internal_node_id":"0.0-13.0-3.1","match_key":"a","participant_id":"28"},{"rt":null,"stimulus":"Sounds/frog_label.wav","key_press":null,"block":1,"trial_type":"audio-keyboard-response","trial_index":60,"time_elapsed":2281586,"internal_node_id":"0.0-13.0-0.2","match_key":"a","participant_id":"28"},{"rt":null,"stimulus":"<p style=\"font-size: 48px;\">+</p>","key_press":null,"block":1,"trial_type":"html-keyboard-response","trial_index":61,"time_elapsed":2282589,"internal_node_id":"0.0-13.0-1.2","match_key":"a","participant_id":"28"},{"rt":620.630000019446,"stimulus":"Images/frog_2.png","key_press":65,"stim_onset":1582757001467,"block":1,"match_type":"match","image_category":"frog","sound_category":"frog","audio_type":"label","phase":"test","trial_type":"image-keyboard-response","trial_index":62,"time_elapsed":2283211,"internal_node_id":"0.0-13.0-2.2","match_key":"a","participant_id":"28","correct":true},{"rt":null,"stimulus":"Sounds/correct.wav","key_press":null,"block":1,"trial_type":"audio-keyboard-response","trial_index":63,"time_elapsed":2285227,"internal_node_id":"0.0-13.0-3.2","match_key":"a","participant_id":"28"},{"rt":null,"stimulus":"Sounds/rooster_sound.wav","key_press":null,"block":1,"trial_type":"audio-keyboard-response","trial_index":64,"time_elapsed":2285926,"internal_node_id":"0.0-13.0-0.3","match_key":"a","participant_id":"28"},{"rt":null,"stimulus":"<p style=\"font-size: 48px;\">+</p>","key_press":null,"block":1,"trial_type":"html-keyboard-response","trial_index":65,"time_elapsed":2286923,"internal_node_id":"0.0-13.0-1.3","match_key":"a","participant_id":"28"},{"rt":678.9799999678507,"stimulus":"Images/rooster_3.png","key_press":65,"stim_onset":1582757005801,"block":1,"match_type":"match","image_category":"rooster","sound_category":"rooster","audio_type":"sound","phase":"test","trial_type":"image-keyboard-response","trial_index":66,"time_elapsed":2287603,"internal_node_id":"0.0-13.0-2.3","match_key":"a","participant_id":"28","correct":true},{"rt":null,"stimulus":"Sounds/correct.wav","key_press":null,"block":1,"trial_type":"audio-keyboard-response","trial_index":67,"time_elapsed":2289609,"internal_node_id":"0.0-13.0-3.3","match_key":"a","participant_id":"28"},{"rt":null,"stimulus":"Sounds/motorcycle_sound.wav","key_press":null,"block":1,"trial_type":"audio-keyboard-response","trial_index":68,"time_elapsed":2290723,"internal_node_id":"0.0-13.0-0.4","match_key":"a","participant_id":"28"},{"rt":null,"stimulus":"<p style=\"font-size: 48px;\">+</p>","key_press":null,"block":1,"trial_type":"html-keyboard-response","trial_index":69,"time_elapsed":2291720,"internal_node_id":"0.0-13.0-1.4","match_key":"a","participant_id":"28"},{"rt":1118.7549999449402,"stimulus":"Images/motorcycle_1.png","key_press":65,"stim_onset":1582757010598,"block":1,"match_type":"match","image_category":"motorcycle","sound_category":"motorcycle","audio_type":"sound","phase":"test","trial_type":"image-keyboard-response","trial_index":70,"time_elapsed":2292840,"internal_node_id":"0.0-13.0-2.4","match_key":"a","participant_id":"28","correct":true},{"rt":null,"stimulus":"Sounds/correct.wav","key_press":null,"block":1,"trial_type":"audio-keyboard-response","trial_index":71,"time_elapsed":2294842,"internal_node_id":"0.0-13.0-3.4","match_key":"a","participant_id":"28"},{"rt":null,"stimulus":"Sounds/rooster_label.wav","key_press":null,"block":1,"trial_type":"audio-keyboard-response","trial_index":72,"time_elapsed":2295543,"internal_node_id":"0.0-13.0-0.5","match_key":"a","participant_id":"28"},{"rt":null,"stimulus":"<p style=\"font-size: 48px;\">+</p>","key_press":null,"block":1,"trial_type":"html-keyboard-response","trial_index":73,"time_elapsed":2296537,"internal_node_id":"0.0-13.0-1.5","match_key":"a","participant_id":"28"},{"rt":1046.3849999941885,"stimulus":"Images/train_2.png","key_press":76,"stim_onset":1582757015415,"block":1,"match_type":"non-match","image_category":"train","sound_category":"rooster","audio_type":"label","phase":"test","trial_type":"image-keyboard-response","trial_index":74,"time_elapsed":2297584,"internal_node_id":"0.0-13.0-2.5","match_key":"a","participant_id":"28","correct":true},{"rt":null,"stimulus":"Sounds/correct.wav","key_press":null,"block":1,"trial_type":"audio-keyboard-response","trial_index":75,"time_elapsed":2299592,"internal_node_id":"0.0-13.0-3.5","match_key":"a","participant_id":"28"},{"rt":null,"stimulus":"Sounds/gun_label.wav","key_press":null,"block":1,"trial_type":"audio-keyboard-response","trial_index":76,"time_elapsed":2300163,"internal_node_id":"0.0-13.0-0.6","match_key":"a","participant_id":"28"},{"rt":null,"stimulus":"<p style=\"font-size: 48px;\">+</p>","key_press":null,"block":1,"trial_type":"html-keyboard-response","trial_index":77,"time_elapsed":2301154,"internal_node_id":"0.0-13.0-1.6","match_key":"a","participant_id":"28"},{"rt":557.2399999946356,"stimulus":"Images/cow_1.png","key_press":76,"stim_onset":1582757020032,"block":1,"match_type":"non-match","image_category":"cow","sound_category":"gun","audio_type":"label","phase":"test","trial_type":"image-keyboard-response","trial_index":78,"time_elapsed":2301712,"internal_node_id":"0.0-13.0-2.6","match_key":"a","participant_id":"28","correct":true},{"rt":null,"stimulus":"Sounds/correct.wav","key_press":null,"block":1,"trial_type":"audio-keyboard-response","trial_index":79,"time_elapsed":2303724,"internal_node_id":"0.0-13.0-3.6","match_key":"a","participant_id":"28"},{"rt":null,"stimulus":"Sounds/frog_sound.wav","key_press":null,"block":1,"trial_type":"audio-keyboard-response","trial_index":80,"time_elapsed":2304623,"internal_node_id":"0.0-13.0-0.7","match_key":"a","participant_id":"28"},{"rt":null,"stimulus":"<p style=\"font-size: 48px;\">+</p>","key_press":null,"block":1,"trial_type":"html-keyboard-response","trial_index":81,"time_elapsed":2305620,"internal_node_id":"0.0-13.0-1.7","match_key":"a","participant_id":"28"},{"rt":586.600000038743,"stimulus":"Images/frog_1.png","key_press":65,"stim_onset":1582757024498,"block":1,"match_type":"match","image_category":"frog","sound_category":"frog","audio_type":"sound","phase":"test","trial_type":"image-keyboard-response","trial_index":82,"time_elapsed":2306208,"internal_node_id":"0.0-13.0-2.7","match_key":"a","participant_id":"28","correct":true},{"rt":null,"stimulus":"Sounds/correct.wav","key_press":null,"block":1,"trial_type":"audio-keyboard-response","trial_index":83,"time_elapsed":2308225,"internal_node_id":"0.0-13.0-3.7","match_key":"a","participant_id":"28"},{"rt":null,"stimulus":"Sounds/whistle_sound.wav","key_press":null,"block":1,"trial_type":"audio-keyboard-response","trial_index":84,"time_elapsed":2308923,"internal_node_id":"0.0-13.0-0.8","match_key":"a","participant_id":"28"},{"rt":null,"stimulus":"<p style=\"font-size: 48px;\">+</p>","key_press":null,"block":1,"trial_type":"html-keyboard-response","trial_index":85,"time_elapsed":2309920,"internal_node_id":"0.0-13.0-1.8","match_key":"a","participant_id":"28"},{"rt":1446.7299999669194,"stimulus":"Images/whistle_3.png","key_press":65,"stim_onset":1582757028799,"block":1,"match_type":"match","image_category":"whistle","sound_category":"whistle","audio_type":"sound","phase":"test","trial_type":"image-keyboard-response","trial_index":86,"time_elapsed":2311368,"internal_node_id":"0.0-13.0-2.8","match_key":"a","participant_id":"28","correct":true},{"rt":null,"stimulus":"Sounds/correct.wav","key_press":null,"block":1,"trial_type":"audio-keyboard-response","trial_index":87,"time_elapsed":2313379,"internal_node_id":"0.0-13.0-3.8","match_key":"a","participant_id":"28"},{"rt":null,"stimulus":"Sounds/frog_label.wav","key_press":null,"block":1,"trial_type":"audio-keyboard-response","trial_index":88,"time_elapsed":2314283,"internal_node_id":"0.0-13.0-0.9","match_key":"a","participant_id":"28"},{"rt":null,"stimulus":"<p style=\"font-size: 48px;\">+</p>","key_press":null,"block":1,"trial_type":"html-keyboard-response","trial_index":89,"time_elapsed":2315287,"internal_node_id":"0.0-13.0-1.9","match_key":"a","participant_id":"28"},{"rt":639.7049999795854,"stimulus":"Images/frog_3.png","key_press":65,"stim_onset":1582757034165,"block":1,"match_type":"match","image_category":"frog","sound_category":"frog","audio_type":"label","phase":"test","trial_type":"image-keyboard-response","trial_index":90,"time_elapsed":2315928,"internal_node_id":"0.0-13.0-2.9","match_key":"a","participant_id":"28","correct":true},{"rt":null,"stimulus":"Sounds/correct.wav","key_press":null,"block":1,"trial_type":"audio-keyboard-response","trial_index":91,"time_elapsed":2317942,"internal_node_id":"0.0-13.0-3.9","match_key":"a","participant_id":"28"},{"rt":null,"stimulus":"Sounds/frog_sound.wav","key_press":null,"block":1,"trial_type":"audio-keyboard-response","trial_index":92,"time_elapsed":2318843,"internal_node_id":"0.0-13.0-0.10","match_key":"a","participant_id":"28"},{"rt":null,"stimulus":"<p style=\"font-size: 48px;\">+</p>","key_press":null,"block":1,"trial_type":"html-keyboard-response","trial_index":93,"time_elapsed":2319837,"internal_node_id":"0.0-13.0-1.10","match_key":"a","participant_id":"28"},{"rt":1121.7450000112876,"stimulus":"Images/car_2.png","key_press":76,"stim_onset":1582757038715,"block":1,"match_type":"non-match","image_category":"car","sound_category":"frog","audio_type":"sound","phase":"test","trial_type":"image-keyboard-response","trial_index":94,"time_elapsed":2320960,"internal_node_id":"0.0-13.0-2.10","match_key":"a","participant_id":"28","correct":true},{"rt":null,"stimulus":"Sounds/correct.wav","key_press":null,"block":1,"trial_type":"audio-keyboard-response","trial_index":95,"time_elapsed":2322976,"internal_node_id":"0.0-13.0-3.10","match_key":"a","participant_id":"28"},{"rt":null,"stimulus":"Sounds/cow_sound.wav","key_press":null,"block":1,"trial_type":"audio-keyboard-response","trial_index":96,"time_elapsed":2324004,"internal_node_id":"0.0-13.0-0.11","match_key":"a","participant_id":"28"},{"rt":null,"stimulus":"<p style=\"font-size: 48px;\">+</p>","key_press":null,"block":1,"trial_type":"html-keyboard-response","trial_index":97,"time_elapsed":2325004,"internal_node_id":"0.0-13.0-1.11","match_key":"a","participant_id":"28"},{"rt":579.2749999091029,"stimulus":"Images/cow_orig.png","key_press":65,"stim_onset":1582757043882,"block":1,"match_type":"match","image_category":"cow","sound_category":"cow","audio_type":"sound","phase":"test","trial_type":"image-keyboard-response","trial_index":98,"time_elapsed":2325584,"internal_node_id":"0.0-13.0-2.11","match_key":"a","participant_id":"28","correct":true},{"rt":null,"stimulus":"Sounds/correct.wav","key_press":null,"block":1,"trial_type":"audio-keyboard-response","trial_index":99,"time_elapsed":2327592,"internal_node_id":"0.0-13.0-3.11","match_key":"a","participant_id":"28"},{"rt":null,"stimulus":"Sounds/dog_label.wav","key_press":null,"block":1,"trial_type":"audio-keyboard-response","trial_index":100,"time_elapsed":2328244,"internal_node_id":"0.0-13.0-0.12","match_key":"a","participant_id":"28"},{"rt":null,"stimulus":"<p style=\"font-size: 48px;\">+</p>","key_press":null,"block":1,"trial_type":"html-keyboard-response","trial_index":101,"time_elapsed":2329237,"internal_node_id":"0.0-13.0-1.12","match_key":"a","participant_id":"28"},{"rt":833.7649999884889,"stimulus":"Images/dog_orig.png","key_press":65,"stim_onset":1582757048115,"block":1,"match_type":"match","image_category":"dog","sound_category":"dog","audio_type":"label","phase":"test","trial_type":"image-keyboard-response","trial_index":102,"time_elapsed":2330072,"internal_node_id":"0.0-13.0-2.12","match_key":"a","participant_id":"28","correct":true},{"rt":null,"stimulus":"Sounds/correct.wav","key_press":null,"block":1,"trial_type":"audio-keyboard-response","trial_index":103,"time_elapsed":2332078,"internal_node_id":"0.0-13.0-3.12","match_key":"a","participant_id":"28"},{"rt":null,"stimulus":"Sounds/cat_sound.wav","key_press":null,"block":1,"trial_type":"audio-keyboard-response","trial_index":104,"time_elapsed":2332923,"internal_node_id":"0.0-13.0-0.13","match_key":"a","participant_id":"28"},{"rt":null,"stimulus":"<p style=\"font-size: 48px;\">+</p>","key_press":null,"block":1,"trial_type":"html-keyboard-response","trial_index":105,"time_elapsed":2333921,"internal_node_id":"0.0-13.0-1.13","match_key":"a","participant_id":"28"},{"rt":574.3549999315292,"stimulus":"Images/cat_1.png","key_press":65,"stim_onset":1582757052799,"block":1,"match_type":"match","image_category":"cat","sound_category":"cat","audio_type":"sound","phase":"test","trial_type":"image-keyboard-response","trial_index":106,"time_elapsed":2334496,"internal_node_id":"0.0-13.0-2.13","match_key":"a","participant_id":"28","correct":true},{"rt":null,"stimulus":"Sounds/correct.wav","key_press":null,"block":1,"trial_type":"audio-keyboard-response","trial_index":107,"time_elapsed":2336508,"internal_node_id":"0.0-13.0-3.13","match_key":"a","participant_id":"28"},{"rt":null,"stimulus":"Sounds/gun_sound.wav","key_press":null,"block":1,"trial_type":"audio-keyboard-response","trial_index":108,"time_elapsed":2337083,"internal_node_id":"0.0-13.0-0.14","match_key":"a","participant_id":"28"},{"rt":null,"stimulus":"<p style=\"font-size: 48px;\">+</p>","key_press":null,"block":1,"trial_type":"html-keyboard-response","trial_index":109,"time_elapsed":2338088,"internal_node_id":"0.0-13.0-1.14","match_key":"a","participant_id":"28"},{"rt":1599.4700000155717,"stimulus":"Images/motorcycle_2.png","key_press":76,"stim_onset":1582757056965,"block":1,"match_type":"non-match","image_category":"motorcycle","sound_category":"gun","audio_type":"sound","phase":"test","trial_type":"image-keyboard-response","trial_index":110,"time_elapsed":2339688,"internal_node_id":"0.0-13.0-2.14","match_key":"a","participant_id":"28","correct":true},{"rt":null,"stimulus":"Sounds/correct.wav","key_press":null,"block":1,"trial_type":"audio-keyboard-response","trial_index":111,"time_elapsed":2341696,"internal_node_id":"0.0-13.0-3.14","match_key":"a","participant_id":"28"},{"rt":null,"stimulus":"Sounds/rooster_sound.wav","key_press":null,"block":1,"trial_type":"audio-keyboard-response","trial_index":112,"time_elapsed":2342403,"internal_node_id":"0.0-13.0-0.15","match_key":"a","participant_id":"28"},{"rt":null,"stimulus":"<p style=\"font-size: 48px;\">+</p>","key_press":null,"block":1,"trial_type":"html-keyboard-response","trial_index":113,"time_elapsed":2343404,"internal_node_id":"0.0-13.0-1.15","match_key":"a","participant_id":"28"},{"rt":538.6750000761822,"stimulus":"Images/gun_3.png","key_press":76,"stim_onset":1582757062282,"block":1,"match_type":"non-match","image_category":"gun","sound_category":"rooster","audio_type":"sound","phase":"test","trial_type":"image-keyboard-response","trial_index":114,"time_elapsed":2343944,"internal_node_id":"0.0-13.0-2.15","match_key":"a","participant_id":"28","correct":true},{"rt":null,"stimulus":"Sounds/correct.wav","key_press":null,"block":1,"trial_type":"audio-keyboard-response","trial_index":115,"time_elapsed":2345958,"internal_node_id":"0.0-13.0-3.15","match_key":"a","participant_id":"28"},{"rt":null,"stimulus":"Sounds/car_sound.wav","key_press":null,"block":1,"trial_type":"audio-keyboard-response","trial_index":116,"time_elapsed":2347043,"internal_node_id":"0.0-13.0-0.16","match_key":"a","participant_id":"28"},{"rt":null,"stimulus":"<p style=\"font-size: 48px;\">+</p>","key_press":null,"block":1,"trial_type":"html-keyboard-response","trial_index":117,"time_elapsed":2348037,"internal_node_id":"0.0-13.0-1.16","match_key":"a","participant_id":"28"},{"rt":1377.3849999997765,"stimulus":"Images/train_1.png","key_press":65,"stim_onset":1582757066916,"block":1,"match_type":"non-match","image_category":"train","sound_category":"car","audio_type":"sound","phase":"test","trial_type":"image-keyboard-response","trial_index":118,"time_elapsed":2349416,"internal_node_id":"0.0-13.0-2.16","match_key":"a","participant_id":"28","correct":false},{"rt":null,"stimulus":"Sounds/incorrect.wav","key_press":null,"block":1,"trial_type":"audio-keyboard-response","trial_index":119,"time_elapsed":2351430,"internal_node_id":"0.0-13.0-3.16","match_key":"a","participant_id":"28"},{"rt":null,"stimulus":"Sounds/car_label.wav","key_press":null,"block":1,"trial_type":"audio-keyboard-response","trial_index":120,"time_elapsed":2352503,"internal_node_id":"0.0-13.0-0.17","match_key":"a","participant_id":"28"},{"rt":null,"stimulus":"<p style=\"font-size: 48px;\">+</p>","key_press":null,"block":1,"trial_type":"html-keyboard-response","trial_index":121,"time_elapsed":2353521,"internal_node_id":"0.0-13.0-1.17","match_key":"a","participant_id":"28"},{"rt":558.2550000399351,"stimulus":"Images/frog_cartoon.png","key_press":76,"stim_onset":1582757072399,"block":1,"match_type":"non-match","image_category":"frog","sound_category":"car","audio_type":"label","phase":"test","trial_type":"image-keyboard-response","trial_index":122,"time_elapsed":2354080,"internal_node_id":"0.0-13.0-2.17","match_key":"a","participant_id":"28","correct":true},{"rt":null,"stimulus":"Sounds/correct.wav","key_press":null,"block":1,"trial_type":"audio-keyboard-response","trial_index":123,"time_elapsed":2356093,"internal_node_id":"0.0-13.0-3.17","match_key":"a","participant_id":"28"},{"rt":null,"stimulus":"Sounds/dog_sound.wav","key_press":null,"block":1,"trial_type":"audio-keyboard-response","trial_index":124,"time_elapsed":2356803,"internal_node_id":"0.0-13.0-0.18","match_key":"a","participant_id":"28"},{"rt":null,"stimulus":"<p style=\"font-size: 48px;\">+</p>","key_press":null,"block":1,"trial_type":"html-keyboard-response","trial_index":125,"time_elapsed":2357821,"internal_node_id":"0.0-13.0-1.18","match_key":"a","participant_id":"28"},{"rt":1097.8899999754503,"stimulus":"Images/rooster_3.png","key_press":76,"stim_onset":1582757076699,"block":1,"match_type":"non-match","image_category":"rooster","sound_category":"dog","audio_type":"sound","phase":"test","trial_type":"image-keyboard-response","trial_index":126,"time_elapsed":2358920,"internal_node_id":"0.0-13.0-2.18","match_key":"a","participant_id":"28","correct":true},{"rt":null,"stimulus":"Sounds/correct.wav","key_press":null,"block":1,"trial_type":"audio-keyboard-response","trial_index":127,"time_elapsed":2360927,"internal_node_id":"0.0-13.0-3.18","match_key":"a","participant_id":"28"},{"rt":null,"stimulus":"Sounds/frog_sound.wav","key_press":null,"block":1,"trial_type":"audio-keyboard-response","trial_index":128,"time_elapsed":2361843,"internal_node_id":"0.0-13.0-0.19","match_key":"a","participant_id":"28"},{"rt":null,"stimulus":"<p style=\"font-size: 48px;\">+</p>","key_press":null,"block":1,"trial_type":"html-keyboard-response","trial_index":129,"time_elapsed":2362838,"internal_node_id":"0.0-13.0-1.19","match_key":"a","participant_id":"28"},{"rt":633.3500000182539,"stimulus":"Images/frog_orig.png","key_press":65,"stim_onset":1582757081716,"block":1,"match_type":"match","image_category":"frog","sound_category":"frog","audio_type":"sound","phase":"test","trial_type":"image-keyboard-response","trial_index":130,"time_elapsed":2363472,"internal_node_id":"0.0-13.0-2.19","match_key":"a","participant_id":"28","correct":true},{"rt":null,"stimulus":"Sounds/correct.wav","key_press":null,"block":1,"trial_type":"audio-keyboard-response","trial_index":131,"time_elapsed":2365476,"internal_node_id":"0.0-13.0-3.19","match_key":"a","participant_id":"28"},{"rt":null,"stimulus":"Sounds/cow_label.wav","key_press":null,"block":1,"trial_type":"audio-keyboard-response","trial_index":132,"time_elapsed":2366503,"internal_node_id":"0.0-13.0-0.20","match_key":"a","participant_id":"28"},{"rt":null,"stimulus":"<p style=\"font-size: 48px;\">+</p>","key_press":null,"block":1,"trial_type":"html-keyboard-response","trial_index":133,"time_elapsed":2367521,"internal_node_id":"0.0-13.0-1.20","match_key":"a","participant_id":"28"},{"rt":678.029999951832,"stimulus":"Images/rooster_2.png","key_press":76,"stim_onset":1582757086399,"block":1,"match_type":"non-match","image_category":"rooster","sound_category":"cow","audio_type":"label","phase":"test","trial_type":"image-keyboard-response","trial_index":134,"time_elapsed":2368200,"internal_node_id":"0.0-13.0-2.20","match_key":"a","participant_id":"28","correct":true},{"rt":null,"stimulus":"Sounds/correct.wav","key_press":null,"block":1,"trial_type":"audio-keyboard-response","trial_index":135,"time_elapsed":2370211,"internal_node_id":"0.0-13.0-3.20","match_key":"a","participant_id":"28"},{"rt":null,"stimulus":"Sounds/cat_label.wav","key_press":null,"block":1,"trial_type":"audio-keyboard-response","trial_index":136,"time_elapsed":2371043,"internal_node_id":"0.0-13.0-0.21","match_key":"a","participant_id":"28"},{"rt":null,"stimulus":"<p style=\"font-size: 48px;\">+</p>","key_press":null,"block":1,"trial_type":"html-keyboard-response","trial_index":137,"time_elapsed":2372038,"internal_node_id":"0.0-13.0-1.21","match_key":"a","participant_id":"28"},{"rt":609.3000000109896,"stimulus":"Images/frog_orig.png","key_press":76,"stim_onset":1582757090916,"block":1,"match_type":"non-match","image_category":"frog","sound_category":"cat","audio_type":"label","phase":"test","trial_type":"image-keyboard-response","trial_index":138,"time_elapsed":2372648,"internal_node_id":"0.0-13.0-2.21","match_key":"a","participant_id":"28","correct":true},{"rt":null,"stimulus":"Sounds/correct.wav","key_press":null,"block":1,"trial_type":"audio-keyboard-response","trial_index":139,"time_elapsed":2374658,"internal_node_id":"0.0-13.0-3.21","match_key":"a","participant_id":"28"},{"rt":null,"stimulus":"Sounds/whistle_sound.wav","key_press":null,"block":1,"trial_type":"audio-keyboard-response","trial_index":140,"time_elapsed":2375364,"internal_node_id":"0.0-13.0-0.22","match_key":"a","participant_id":"28"},{"rt":null,"stimulus":"<p style=\"font-size: 48px;\">+</p>","key_press":null,"block":1,"trial_type":"html-keyboard-response","trial_index":141,"time_elapsed":2376354,"internal_node_id":"0.0-13.0-1.22","match_key":"a","participant_id":"28"},{"rt":516.4549999171868,"stimulus":"Images/whistle_2.png","key_press":65,"stim_onset":1582757095233,"block":1,"match_type":"match","image_category":"whistle","sound_category":"whistle","audio_type":"sound","phase":"test","trial_type":"image-keyboard-response","trial_index":142,"time_elapsed":2376872,"internal_node_id":"0.0-13.0-2.22","match_key":"a","participant_id":"28","correct":true},{"rt":null,"stimulus":"Sounds/correct.wav","key_press":null,"block":1,"trial_type":"audio-keyboard-response","trial_index":143,"time_elapsed":2378876,"internal_node_id":"0.0-13.0-3.22","match_key":"a","participant_id":"28"},{"rt":null,"stimulus":"Sounds/motorcycle_label.wav","key_press":null,"block":1,"trial_type":"audio-keyboard-response","trial_index":144,"time_elapsed":2380004,"internal_node_id":"0.0-13.0-0.23","match_key":"a","participant_id":"28"},{"rt":null,"stimulus":"<p style=\"font-size: 48px;\">+</p>","key_press":null,"block":1,"trial_type":"html-keyboard-response","trial_index":145,"time_elapsed":2381021,"internal_node_id":"0.0-13.0-1.23","match_key":"a","participant_id":"28"},{"rt":801.9100000383332,"stimulus":"Images/cow_cartoon.png","key_press":76,"stim_onset":1582757099899,"block":1,"match_type":"non-match","image_category":"cow","sound_category":"motorcycle","audio_type":"label","phase":"test","trial_type":"image-keyboard-response","trial_index":146,"time_elapsed":2381824,"internal_node_id":"0.0-13.0-2.23","match_key":"a","participant_id":"28","correct":true},{"rt":null,"stimulus":"Sounds/correct.wav","key_press":null,"block":1,"trial_type":"audio-keyboard-response","trial_index":147,"time_elapsed":2383842,"internal_node_id":"0.0-13.0-3.23","match_key":"a","participant_id":"28"},{"rt":null,"stimulus":"Sounds/gun_sound.wav","key_press":null,"block":1,"trial_type":"audio-keyboard-response","trial_index":148,"time_elapsed":2384423,"internal_node_id":"0.0-13.0-0.24","match_key":"a","participant_id":"28"},{"rt":null,"stimulus":"<p style=\"font-size: 48px;\">+</p>","key_press":null,"block":1,"trial_type":"html-keyboard-response","trial_index":149,"time_elapsed":2385421,"internal_node_id":"0.0-13.0-1.24","match_key":"a","participant_id":"28"},{"rt":889.7649999707937,"stimulus":"Images/gun_2.png","key_press":65,"stim_onset":1582757104299,"block":1,"match_type":"match","image_category":"gun","sound_category":"gun","audio_type":"sound","phase":"test","trial_type":"image-keyboard-response","trial_index":150,"time_elapsed":2386312,"internal_node_id":"0.0-13.0-2.24","match_key":"a","participant_id":"28","correct":true},{"rt":null,"stimulus":"Sounds/correct.wav","key_press":null,"block":1,"trial_type":"audio-keyboard-response","trial_index":151,"time_elapsed":2388327,"internal_node_id":"0.0-13.0-3.24","match_key":"a","participant_id":"28"},{"rt":null,"stimulus":"Sounds/train_label.wav","key_press":null,"block":1,"trial_type":"audio-keyboard-response","trial_index":152,"time_elapsed":2389604,"internal_node_id":"0.0-13.0-0.25","match_key":"a","participant_id":"28"},{"rt":null,"stimulus":"<p style=\"font-size: 48px;\">+</p>","key_press":null,"block":1,"trial_type":"html-keyboard-response","trial_index":153,"time_elapsed":2390638,"internal_node_id":"0.0-13.0-1.25","match_key":"a","participant_id":"28"},{"rt":1609.180000028573,"stimulus":"Images/train_1.png","key_press":65,"stim_onset":1582757109516,"block":1,"match_type":"match","image_category":"train","sound_category":"train","audio_type":"label","phase":"test","trial_type":"image-keyboard-response","trial_index":154,"time_elapsed":2392248,"internal_node_id":"0.0-13.0-2.25","match_key":"a","participant_id":"28","correct":true},{"rt":null,"stimulus":"Sounds/correct.wav","key_press":null,"block":1,"trial_type":"audio-keyboard-response","trial_index":155,"time_elapsed":2394265,"internal_node_id":"0.0-13.0-3.25","match_key":"a","participant_id":"28"},{"rt":null,"stimulus":"Sounds/gun_label.wav","key_press":null,"block":1,"trial_type":"audio-keyboard-response","trial_index":156,"time_elapsed":2394843,"internal_node_id":"0.0-13.0-0.26","match_key":"a","participant_id":"28"},{"rt":null,"stimulus":"<p style=\"font-size: 48px;\">+</p>","key_press":null,"block":1,"trial_type":"html-keyboard-response","trial_index":157,"time_elapsed":2395838,"internal_node_id":"0.0-13.0-1.26","match_key":"a","participant_id":"28"},{"rt":521.0599999409169,"stimulus":"Images/gun_1.png","key_press":65,"stim_onset":1582757114716,"block":1,"match_type":"match","image_category":"gun","sound_category":"gun","audio_type":"label","phase":"test","trial_type":"image-keyboard-response","trial_index":158,"time_elapsed":2396360,"internal_node_id":"0.0-13.0-2.26","match_key":"a","participant_id":"28","correct":true},{"rt":null,"stimulus":"Sounds/correct.wav","key_press":null,"block":1,"trial_type":"audio-keyboard-response","trial_index":159,"time_elapsed":2398375,"internal_node_id":"0.0-13.0-3.26","match_key":"a","participant_id":"28"},{"rt":null,"stimulus":"Sounds/motorcycle_sound.wav","key_press":null,"block":1,"trial_type":"audio-keyboard-response","trial_index":160,"time_elapsed":2399503,"internal_node_id":"0.0-13.0-0.27","match_key":"a","participant_id":"28"},{"rt":null,"stimulus":"<p style=\"font-size: 48px;\">+</p>","key_press":null,"block":1,"trial_type":"html-keyboard-response","trial_index":161,"time_elapsed":2400521,"internal_node_id":"0.0-13.0-1.27","match_key":"a","participant_id":"28"},{"rt":1365.6000000191852,"stimulus":"Images/cat_2.png","key_press":76,"stim_onset":1582757119399,"block":1,"match_type":"non-match","image_category":"cat","sound_category":"motorcycle","audio_type":"sound","phase":"test","trial_type":"image-keyboard-response","trial_index":162,"time_elapsed":2401888,"internal_node_id":"0.0-13.0-2.27","match_key":"a","participant_id":"28","correct":true},{"rt":null,"stimulus":"Sounds/correct.wav","key_press":null,"block":1,"trial_type":"audio-keyboard-response","trial_index":163,"time_elapsed":2403896,"internal_node_id":"0.0-13.0-3.27","match_key":"a","participant_id":"28"},{"rt":null,"stimulus":"Sounds/car_sound.wav","key_press":null,"block":1,"trial_type":"audio-keyboard-response","trial_index":164,"time_elapsed":2404983,"internal_node_id":"0.0-13.0-0.28","match_key":"a","participant_id":"28"},{"rt":null,"stimulus":"<p style=\"font-size: 48px;\">+</p>","key_press":null,"block":1,"trial_type":"html-keyboard-response","trial_index":165,"time_elapsed":2405988,"internal_node_id":"0.0-13.0-1.28","match_key":"a","participant_id":"28"},{"rt":1074.9899999937043,"stimulus":"Images/car_orig.png","key_press":65,"stim_onset":1582757124866,"block":1,"match_type":"match","image_category":"car","sound_category":"car","audio_type":"sound","phase":"test","trial_type":"image-keyboard-response","trial_index":166,"time_elapsed":2407064,"internal_node_id":"0.0-13.0-2.28","match_key":"a","participant_id":"28","correct":true},{"rt":null,"stimulus":"Sounds/correct.wav","key_press":null,"block":1,"trial_type":"audio-keyboard-response","trial_index":167,"time_elapsed":2409075,"internal_node_id":"0.0-13.0-3.28","match_key":"a","participant_id":"28"},{"rt":null,"stimulus":"Sounds/car_sound.wav","key_press":null,"block":1,"trial_type":"audio-keyboard-response","trial_index":168,"time_elapsed":2410123,"internal_node_id":"0.0-13.0-0.29","match_key":"a","participant_id":"28"},{"rt":null,"stimulus":"<p style=\"font-size: 48px;\">+</p>","key_press":null,"block":1,"trial_type":"html-keyboard-response","trial_index":169,"time_elapsed":2411121,"internal_node_id":"0.0-13.0-1.29","match_key":"a","participant_id":"28"},{"rt":581.4500000560656,"stimulus":"Images/gun_cartoon.png","key_press":76,"stim_onset":1582757129999,"block":1,"match_type":"non-match","image_category":"gun","sound_category":"car","audio_type":"sound","phase":"test","trial_type":"image-keyboard-response","trial_index":170,"time_elapsed":2411704,"internal_node_id":"0.0-13.0-2.29","match_key":"a","participant_id":"28","correct":true},{"rt":null,"stimulus":"Sounds/correct.wav","key_press":null,"block":1,"trial_type":"audio-keyboard-response","trial_index":171,"time_elapsed":2413713,"internal_node_id":"0.0-13.0-3.29","match_key":"a","participant_id":"28"},{"rt":null,"stimulus":"Sounds/motorcycle_sound.wav","key_press":null,"block":1,"trial_type":"audio-keyboard-response","trial_index":172,"time_elapsed":2414804,"internal_node_id":"0.0-13.0-0.30","match_key":"a","participant_id":"28"},{"rt":null,"stimulus":"<p style=\"font-size: 48px;\">+</p>","key_press":null,"block":1,"trial_type":"html-keyboard-response","trial_index":173,"time_elapsed":2415822,"internal_node_id":"0.0-13.0-1.30","match_key":"a","participant_id":"28"},{"rt":1337.554999976419,"stimulus":"Images/motorcycle_cartoon.png","key_press":65,"stim_onset":1582757134700,"block":1,"match_type":"match","image_category":"motorcycle","sound_category":"motorcycle","audio_type":"sound","phase":"test","trial_type":"image-keyboard-response","trial_index":174,"time_elapsed":2417160,"internal_node_id":"0.0-13.0-2.30","match_key":"a","participant_id":"28","correct":true},{"rt":null,"stimulus":"Sounds/correct.wav","key_press":null,"block":1,"trial_type":"audio-keyboard-response","trial_index":175,"time_elapsed":2419177,"internal_node_id":"0.0-13.0-3.30","match_key":"a","participant_id":"28"},{"rt":null,"stimulus":"Sounds/motorcycle_sound.wav","key_press":null,"block":1,"trial_type":"audio-keyboard-response","trial_index":176,"time_elapsed":2420264,"internal_node_id":"0.0-13.0-0.31","match_key":"a","participant_id":"28"},{"rt":null,"stimulus":"<p style=\"font-size: 48px;\">+</p>","key_press":null,"block":1,"trial_type":"html-keyboard-response","trial_index":177,"time_elapsed":2421255,"internal_node_id":"0.0-13.0-1.31","match_key":"a","participant_id":"28"},{"rt":696.0600001038983,"stimulus":"Images/gun_1.png","key_press":76,"stim_onset":1582757140133,"block":1,"match_type":"non-match","image_category":"gun","sound_category":"motorcycle","audio_type":"sound","phase":"test","trial_type":"image-keyboard-response","trial_index":178,"time_elapsed":2421952,"internal_node_id":"0.0-13.0-2.31","match_key":"a","participant_id":"28","correct":true},{"rt":null,"stimulus":"Sounds/correct.wav","key_press":null,"block":1,"trial_type":"audio-keyboard-response","trial_index":179,"time_elapsed":2423962,"internal_node_id":"0.0-13.0-3.31","match_key":"a","participant_id":"28"},{"rt":null,"stimulus":"Sounds/whistle_label.wav","key_press":null,"block":1,"trial_type":"audio-keyboard-response","trial_index":180,"time_elapsed":2424664,"internal_node_id":"0.0-13.0-0.32","match_key":"a","participant_id":"28"},{"rt":null,"stimulus":"<p style=\"font-size: 48px;\">+</p>","key_press":null,"block":1,"trial_type":"html-keyboard-response","trial_index":181,"time_elapsed":2425655,"internal_node_id":"0.0-13.0-1.32","match_key":"a","participant_id":"28"},{"rt":544.1049999790266,"stimulus":"Images/car_3.png","key_press":76,"stim_onset":1582757144533,"block":1,"match_type":"non-match","image_category":"car","sound_category":"whistle","audio_type":"label","phase":"test","trial_type":"image-keyboard-response","trial_index":182,"time_elapsed":2426200,"internal_node_id":"0.0-13.0-2.32","match_key":"a","participant_id":"28","correct":true},{"rt":null,"stimulus":"Sounds/correct.wav","key_press":null,"block":1,"trial_type":"audio-keyboard-response","trial_index":183,"time_elapsed":2428210,"internal_node_id":"0.0-13.0-3.32","match_key":"a","participant_id":"28"},{"rt":null,"stimulus":"Sounds/car_label.wav","key_press":null,"block":1,"trial_type":"audio-keyboard-response","trial_index":184,"time_elapsed":2429284,"internal_node_id":"0.0-13.0-0.33","match_key":"a","participant_id":"28"},{"rt":null,"stimulus":"<p style=\"font-size: 48px;\">+</p>","key_press":null,"block":1,"trial_type":"html-keyboard-response","trial_index":185,"time_elapsed":2430289,"internal_node_id":"0.0-13.0-1.33","match_key":"a","participant_id":"28"},{"rt":502.67499999608845,"stimulus":"Images/car_2.png","key_press":65,"stim_onset":1582757149167,"block":1,"match_type":"match","image_category":"car","sound_category":"car","audio_type":"label","phase":"test","trial_type":"image-keyboard-response","trial_index":186,"time_elapsed":2430792,"internal_node_id":"0.0-13.0-2.33","match_key":"a","participant_id":"28","correct":true},{"rt":null,"stimulus":"Sounds/correct.wav","key_press":null,"block":1,"trial_type":"audio-keyboard-response","trial_index":187,"time_elapsed":2432809,"internal_node_id":"0.0-13.0-3.33","match_key":"a","participant_id":"28"},{"rt":null,"stimulus":"Sounds/train_label.wav","key_press":null,"block":1,"trial_type":"audio-keyboard-response","trial_index":188,"time_elapsed":2434084,"internal_node_id":"0.0-13.0-0.34","match_key":"a","participant_id":"28"},{"rt":null,"stimulus":"<p style=\"font-size: 48px;\">+</p>","key_press":null,"block":1,"trial_type":"html-keyboard-response","trial_index":189,"time_elapsed":2435089,"internal_node_id":"0.0-13.0-1.34","match_key":"a","participant_id":"28"},{"rt":614.3150000134483,"stimulus":"Images/train_3.png","key_press":65,"stim_onset":1582757153967,"block":1,"match_type":"match","image_category":"train","sound_category":"train","audio_type":"label","phase":"test","trial_type":"image-keyboard-response","trial_index":190,"time_elapsed":2435704,"internal_node_id":"0.0-13.0-2.34","match_key":"a","participant_id":"28","correct":true},{"rt":null,"stimulus":"Sounds/correct.wav","key_press":null,"block":1,"trial_type":"audio-keyboard-response","trial_index":191,"time_elapsed":2437713,"internal_node_id":"0.0-13.0-3.34","match_key":"a","participant_id":"28"},{"rt":null,"stimulus":"Sounds/gun_label.wav","key_press":null,"block":1,"trial_type":"audio-keyboard-response","trial_index":192,"time_elapsed":2438284,"internal_node_id":"0.0-13.0-0.35","match_key":"a","participant_id":"28"},{"rt":null,"stimulus":"<p style=\"font-size: 48px;\">+</p>","key_press":null,"block":1,"trial_type":"html-keyboard-response","trial_index":193,"time_elapsed":2439272,"internal_node_id":"0.0-13.0-1.35","match_key":"a","participant_id":"28"},{"rt":502.92500003706664,"stimulus":"Images/gun_3.png","key_press":65,"stim_onset":1582757158150,"block":1,"match_type":"match","image_category":"gun","sound_category":"gun","audio_type":"label","phase":"test","trial_type":"image-keyboard-response","trial_index":194,"time_elapsed":2439776,"internal_node_id":"0.0-13.0-2.35","match_key":"a","participant_id":"28","correct":true},{"rt":null,"stimulus":"Sounds/correct.wav","key_press":null,"block":1,"trial_type":"audio-keyboard-response","trial_index":195,"time_elapsed":2441793,"internal_node_id":"0.0-13.0-3.35","match_key":"a","participant_id":"28"},{"rt":null,"stimulus":"Sounds/whistle_label.wav","key_press":null,"block":1,"trial_type":"audio-keyboard-response","trial_index":196,"time_elapsed":2442484,"internal_node_id":"0.0-13.0-0.36","match_key":"a","participant_id":"28"},{"rt":null,"stimulus":"<p style=\"font-size: 48px;\">+</p>","key_press":null,"block":1,"trial_type":"html-keyboard-response","trial_index":197,"time_elapsed":2443472,"internal_node_id":"0.0-13.0-1.36","match_key":"a","participant_id":"28"},{"rt":471.1700000334531,"stimulus":"Images/whistle_1.png","key_press":65,"stim_onset":1582757162350,"block":1,"match_type":"match","image_category":"whistle","sound_category":"whistle","audio_type":"label","phase":"test","trial_type":"image-keyboard-response","trial_index":198,"time_elapsed":2443944,"internal_node_id":"0.0-13.0-2.36","match_key":"a","participant_id":"28","correct":true},{"rt":null,"stimulus":"Sounds/correct.wav","key_press":null,"block":1,"trial_type":"audio-keyboard-response","trial_index":199,"time_elapsed":2445960,"internal_node_id":"0.0-13.0-3.36","match_key":"a","participant_id":"28"},{"rt":null,"stimulus":"Sounds/whistle_label.wav","key_press":null,"block":1,"trial_type":"audio-keyboard-response","trial_index":200,"time_elapsed":2446624,"internal_node_id":"0.0-13.0-0.37","match_key":"a","participant_id":"28"},{"rt":null,"stimulus":"<p style=\"font-size: 48px;\">+</p>","key_press":null,"block":1,"trial_type":"html-keyboard-response","trial_index":201,"time_elapsed":2447622,"internal_node_id":"0.0-13.0-1.37","match_key":"a","participant_id":"28"},{"rt":457.094999961555,"stimulus":"Images/dog_cartoon.png","key_press":76,"stim_onset":1582757166500,"block":1,"match_type":"non-match","image_category":"dog","sound_category":"whistle","audio_type":"label","phase":"test","trial_type":"image-keyboard-response","trial_index":202,"time_elapsed":2448080,"internal_node_id":"0.0-13.0-2.37","match_key":"a","participant_id":"28","correct":true},{"rt":null,"stimulus":"Sounds/correct.wav","key_press":null,"block":1,"trial_type":"audio-keyboard-response","trial_index":203,"time_elapsed":2450091,"internal_node_id":"0.0-13.0-3.37","match_key":"a","participant_id":"28"},{"rt":null,"stimulus":"Sounds/gun_label.wav","key_press":null,"block":1,"trial_type":"audio-keyboard-response","trial_index":204,"time_elapsed":2450644,"internal_node_id":"0.0-13.0-0.38","match_key":"a","participant_id":"28"},{"rt":null,"stimulus":"<p style=\"font-size: 48px;\">+</p>","key_press":null,"block":1,"trial_type":"html-keyboard-response","trial_index":205,"time_elapsed":2451639,"internal_node_id":"0.0-13.0-1.38","match_key":"a","participant_id":"28"},{"rt":624.294999986887,"stimulus":"Images/gun_cartoon.png","key_press":65,"stim_onset":1582757170517,"block":1,"match_type":"match","image_category":"gun","sound_category":"gun","audio_type":"label","phase":"test","trial_type":"image-keyboard-response","trial_index":206,"time_elapsed":2452264,"internal_node_id":"0.0-13.0-2.38","match_key":"a","participant_id":"28","correct":true},{"rt":null,"stimulus":"Sounds/correct.wav","key_press":null,"block":1,"trial_type":"audio-keyboard-response","trial_index":207,"time_elapsed":2454275,"internal_node_id":"0.0-13.0-3.38","match_key":"a","participant_id":"28"},{"rt":null,"stimulus":"Sounds/car_sound.wav","key_press":null,"block":1,"trial_type":"audio-keyboard-response","trial_index":208,"time_elapsed":2455364,"internal_node_id":"0.0-13.0-0.39","match_key":"a","participant_id":"28"},{"rt":null,"stimulus":"<p style=\"font-size: 48px;\">+</p>","key_press":null,"block":1,"trial_type":"html-keyboard-response","trial_index":209,"time_elapsed":2456356,"internal_node_id":"0.0-13.0-1.39","match_key":"a","participant_id":"28"},{"rt":515.9500000299886,"stimulus":"Images/cow_2.png","key_press":76,"stim_onset":1582757175234,"block":1,"match_type":"non-match","image_category":"cow","sound_category":"car","audio_type":"sound","phase":"test","trial_type":"image-keyboard-response","trial_index":210,"time_elapsed":2456872,"internal_node_id":"0.0-13.0-2.39","match_key":"a","participant_id":"28","correct":true},{"rt":null,"stimulus":"Sounds/correct.wav","key_press":null,"block":1,"trial_type":"audio-keyboard-response","trial_index":211,"time_elapsed":2458878,"internal_node_id":"0.0-13.0-3.39","match_key":"a","participant_id":"28"},{"rt":null,"stimulus":"Sounds/car_sound.wav","key_press":null,"block":1,"trial_type":"audio-keyboard-response","trial_index":212,"time_elapsed":2459924,"internal_node_id":"0.0-13.0-0.40","match_key":"a","participant_id":"28"},{"rt":null,"stimulus":"<p style=\"font-size: 48px;\">+</p>","key_press":null,"block":1,"trial_type":"html-keyboard-response","trial_index":213,"time_elapsed":2460922,"internal_node_id":"0.0-13.0-1.40","match_key":"a","participant_id":"28"},{"rt":621.0100000025705,"stimulus":"Images/whistle_2.png","key_press":76,"stim_onset":1582757179800,"block":1,"match_type":"non-match","image_category":"whistle","sound_category":"car","audio_type":"sound","phase":"test","trial_type":"image-keyboard-response","trial_index":214,"time_elapsed":2461544,"internal_node_id":"0.0-13.0-2.40","match_key":"a","participant_id":"28","correct":true},{"rt":null,"stimulus":"Sounds/correct.wav","key_press":null,"block":1,"trial_type":"audio-keyboard-response","trial_index":215,"time_elapsed":2463560,"internal_node_id":"0.0-13.0-3.40","match_key":"a","participant_id":"28"},{"rt":null,"stimulus":"Sounds/dog_label.wav","key_press":null,"block":1,"trial_type":"audio-keyboard-response","trial_index":216,"time_elapsed":2464204,"internal_node_id":"0.0-13.0-0.41","match_key":"a","participant_id":"28"},{"rt":null,"stimulus":"<p style=\"font-size: 48px;\">+</p>","key_press":null,"block":1,"trial_type":"html-keyboard-response","trial_index":217,"time_elapsed":2465206,"internal_node_id":"0.0-13.0-1.41","match_key":"a","participant_id":"28"},{"rt":929.5250000432134,"stimulus":"Images/car_orig.png","key_press":76,"stim_onset":1582757184084,"block":1,"match_type":"non-match","image_category":"car","sound_category":"dog","audio_type":"label","phase":"test","trial_type":"image-keyboard-response","trial_index":218,"time_elapsed":2466136,"internal_node_id":"0.0-13.0-2.41","match_key":"a","participant_id":"28","correct":true},{"rt":null,"stimulus":"Sounds/correct.wav","key_press":null,"block":1,"trial_type":"audio-keyboard-response","trial_index":219,"time_elapsed":2468147,"internal_node_id":"0.0-13.0-3.41","match_key":"a","participant_id":"28"},{"rt":null,"stimulus":"Sounds/car_sound.wav","key_press":null,"block":1,"trial_type":"audio-keyboard-response","trial_index":220,"time_elapsed":2469204,"internal_node_id":"0.0-13.0-0.42","match_key":"a","participant_id":"28"},{"rt":null,"stimulus":"<p style=\"font-size: 48px;\">+</p>","key_press":null,"block":1,"trial_type":"html-keyboard-response","trial_index":221,"time_elapsed":2470206,"internal_node_id":"0.0-13.0-1.42","match_key":"a","participant_id":"28"},{"rt":497.7550000185147,"stimulus":"Images/car_3.png","key_press":65,"stim_onset":1582757189084,"block":1,"match_type":"match","image_category":"car","sound_category":"car","audio_type":"sound","phase":"test","trial_type":"image-keyboard-response","trial_index":222,"time_elapsed":2470705,"internal_node_id":"0.0-13.0-2.42","match_key":"a","participant_id":"28","correct":true},{"rt":null,"stimulus":"Sounds/correct.wav","key_press":null,"block":1,"trial_type":"audio-keyboard-response","trial_index":223,"time_elapsed":2472712,"internal_node_id":"0.0-13.0-3.42","match_key":"a","participant_id":"28"},{"rt":null,"stimulus":"Sounds/gun_sound.wav","key_press":null,"block":1,"trial_type":"audio-keyboard-response","trial_index":224,"time_elapsed":2473283,"internal_node_id":"0.0-13.0-0.43","match_key":"a","participant_id":"28"},{"rt":null,"stimulus":"<p style=\"font-size: 48px;\">+</p>","key_press":null,"block":1,"trial_type":"html-keyboard-response","trial_index":225,"time_elapsed":2474272,"internal_node_id":"0.0-13.0-1.43","match_key":"a","participant_id":"28"},{"rt":510.8849999960512,"stimulus":"Images/car_1.png","key_press":76,"stim_onset":1582757193150,"block":1,"match_type":"non-match","image_category":"car","sound_category":"gun","audio_type":"sound","phase":"test","trial_type":"image-keyboard-response","trial_index":226,"time_elapsed":2474784,"internal_node_id":"0.0-13.0-2.43","match_key":"a","participant_id":"28","correct":true},{"rt":null,"stimulus":"Sounds/correct.wav","key_press":null,"block":1,"trial_type":"audio-keyboard-response","trial_index":227,"time_elapsed":2476792,"internal_node_id":"0.0-13.0-3.43","match_key":"a","participant_id":"28"},{"rt":null,"stimulus":"Sounds/frog_label.wav","key_press":null,"block":1,"trial_type":"audio-keyboard-response","trial_index":228,"time_elapsed":2477683,"internal_node_id":"0.0-13.0-0.44","match_key":"a","participant_id":"28"},{"rt":null,"stimulus":"<p style=\"font-size: 48px;\">+</p>","key_press":null,"block":1,"trial_type":"html-keyboard-response","trial_index":229,"time_elapsed":2478672,"internal_node_id":"0.0-13.0-1.44","match_key":"a","participant_id":"28"},{"rt":445.89500001166016,"stimulus":"Images/motorcycle_orig.png","key_press":76,"stim_onset":1582757197551,"block":1,"match_type":"non-match","image_category":"motorcycle","sound_category":"frog","audio_type":"label","phase":"test","trial_type":"image-keyboard-response","trial_index":230,"time_elapsed":2479120,"internal_node_id":"0.0-13.0-2.44","match_key":"a","participant_id":"28","correct":true},{"rt":null,"stimulus":"Sounds/correct.wav","key_press":null,"block":1,"trial_type":"audio-keyboard-response","trial_index":231,"time_elapsed":2481131,"internal_node_id":"0.0-13.0-3.44","match_key":"a","participant_id":"28"},{"rt":null,"stimulus":"Sounds/dog_sound.wav","key_press":null,"block":1,"trial_type":"audio-keyboard-response","trial_index":232,"time_elapsed":2481843,"internal_node_id":"0.0-13.0-0.45","match_key":"a","participant_id":"28"},{"rt":null,"stimulus":"<p style=\"font-size: 48px;\">+</p>","key_press":null,"block":1,"trial_type":"html-keyboard-response","trial_index":233,"time_elapsed":2482839,"internal_node_id":"0.0-13.0-1.45","match_key":"a","participant_id":"28"},{"rt":672.5599999772385,"stimulus":"Images/cat_1.png","key_press":76,"stim_onset":1582757201717,"block":1,"match_type":"non-match","image_category":"cat","sound_category":"dog","audio_type":"sound","phase":"test","trial_type":"image-keyboard-response","trial_index":234,"time_elapsed":2483512,"internal_node_id":"0.0-13.0-2.45","match_key":"a","participant_id":"28","correct":true},{"rt":null,"stimulus":"Sounds/correct.wav","key_press":null,"block":1,"trial_type":"audio-keyboard-response","trial_index":235,"time_elapsed":2485527,"internal_node_id":"0.0-13.0-3.45","match_key":"a","participant_id":"28"},{"rt":null,"stimulus":"Sounds/whistle_sound.wav","key_press":null,"block":1,"trial_type":"audio-keyboard-response","trial_index":236,"time_elapsed":2486223,"internal_node_id":"0.0-13.0-0.46","match_key":"a","participant_id":"28"},{"rt":null,"stimulus":"<p style=\"font-size: 48px;\">+</p>","key_press":null,"block":1,"trial_type":"html-keyboard-response","trial_index":237,"time_elapsed":2487222,"internal_node_id":"0.0-13.0-1.46","match_key":"a","participant_id":"28"},{"rt":864.7849999833852,"stimulus":"Images/whistle_orig.png","key_press":65,"stim_onset":1582757206100,"block":1,"match_type":"match","image_category":"whistle","sound_category":"whistle","audio_type":"sound","phase":"test","trial_type":"image-keyboard-response","trial_index":238,"time_elapsed":2488088,"internal_node_id":"0.0-13.0-2.46","match_key":"a","participant_id":"28","correct":true},{"rt":null,"stimulus":"Sounds/correct.wav","key_press":null,"block":1,"trial_type":"audio-keyboard-response","trial_index":239,"time_elapsed":2490096,"internal_node_id":"0.0-13.0-3.46","match_key":"a","participant_id":"28"},{"rt":null,"stimulus":"Sounds/cat_label.wav","key_press":null,"block":1,"trial_type":"audio-keyboard-response","trial_index":240,"time_elapsed":2490943,"internal_node_id":"0.0-13.0-0.47","match_key":"a","participant_id":"28"},{"rt":null,"stimulus":"<p style=\"font-size: 48px;\">+</p>","key_press":null,"block":1,"trial_type":"html-keyboard-response","trial_index":241,"time_elapsed":2491939,"internal_node_id":"0.0-13.0-1.47","match_key":"a","participant_id":"28"},{"rt":900.0600000144914,"stimulus":"Images/cow_3.png","key_press":76,"stim_onset":1582757210817,"block":1,"match_type":"non-match","image_category":"cow","sound_category":"cat","audio_type":"label","phase":"test","trial_type":"image-keyboard-response","trial_index":242,"time_elapsed":2492840,"internal_node_id":"0.0-13.0-2.47","match_key":"a","participant_id":"28","correct":true},{"rt":null,"stimulus":"Sounds/correct.wav","key_press":null,"block":1,"trial_type":"audio-keyboard-response","trial_index":243,"time_elapsed":2494844,"internal_node_id":"0.0-13.0-3.47","match_key":"a","participant_id":"28"},{"rt":null,"stimulus":"Sounds/frog_sound.wav","key_press":null,"block":1,"trial_type":"audio-keyboard-response","trial_index":244,"time_elapsed":2495763,"internal_node_id":"0.0-13.0-0.48","match_key":"a","participant_id":"28"},{"rt":null,"stimulus":"<p style=\"font-size: 48px;\">+</p>","key_press":null,"block":1,"trial_type":"html-keyboard-response","trial_index":245,"time_elapsed":2496756,"internal_node_id":"0.0-13.0-1.48","match_key":"a","participant_id":"28"},{"rt":387.30499998200685,"stimulus":"Images/rooster_cartoon.png","key_press":76,"stim_onset":1582757215634,"block":1,"match_type":"non-match","image_category":"rooster","sound_category":"frog","audio_type":"sound","phase":"test","trial_type":"image-keyboard-response","trial_index":246,"time_elapsed":2497144,"internal_node_id":"0.0-13.0-2.48","match_key":"a","participant_id":"28","correct":true},{"rt":null,"stimulus":"Sounds/correct.wav","key_press":null,"block":1,"trial_type":"audio-keyboard-response","trial_index":247,"time_elapsed":2499160,"internal_node_id":"0.0-13.0-3.48","match_key":"a","participant_id":"28"},{"rt":null,"stimulus":"Sounds/cow_sound.wav","key_press":null,"block":1,"trial_type":"audio-keyboard-response","trial_index":248,"time_elapsed":2500163,"internal_node_id":"0.0-13.0-0.49","match_key":"a","participant_id":"28"},{"rt":null,"stimulus":"<p style=\"font-size: 48px;\">+</p>","key_press":null,"block":1,"trial_type":"html-keyboard-response","trial_index":249,"time_elapsed":2501156,"internal_node_id":"0.0-13.0-1.49","match_key":"a","participant_id":"28"},{"rt":562.9699999699369,"stimulus":"Images/cow_cartoon.png","key_press":65,"stim_onset":1582757220034,"block":1,"match_type":"match","image_category":"cow","sound_category":"cow","audio_type":"sound","phase":"test","trial_type":"image-keyboard-response","trial_index":250,"time_elapsed":2501720,"internal_node_id":"0.0-13.0-2.49","match_key":"a","participant_id":"28","correct":true},{"rt":null,"stimulus":"Sounds/correct.wav","key_press":null,"block":1,"trial_type":"audio-keyboard-response","trial_index":251,"time_elapsed":2503727,"internal_node_id":"0.0-13.0-3.49","match_key":"a","participant_id":"28"},{"rt":null,"stimulus":"Sounds/motorcycle_label.wav","key_press":null,"block":1,"trial_type":"audio-keyboard-response","trial_index":252,"time_elapsed":2504863,"internal_node_id":"0.0-13.0-0.50","match_key":"a","participant_id":"28"},{"rt":null,"stimulus":"<p style=\"font-size: 48px;\">+</p>","key_press":null,"block":1,"trial_type":"html-keyboard-response","trial_index":253,"time_elapsed":2505856,"internal_node_id":"0.0-13.0-1.50","match_key":"a","participant_id":"28"},{"rt":1031.0750000644475,"stimulus":"Images/motorcycle_2.png","key_press":65,"stim_onset":1582757224734,"block":1,"match_type":"match","image_category":"motorcycle","sound_category":"motorcycle","audio_type":"label","phase":"test","trial_type":"image-keyboard-response","trial_index":254,"time_elapsed":2506888,"internal_node_id":"0.0-13.0-2.50","match_key":"a","participant_id":"28","correct":true},{"rt":null,"stimulus":"Sounds/correct.wav","key_press":null,"block":1,"trial_type":"audio-keyboard-response","trial_index":255,"time_elapsed":2508895,"internal_node_id":"0.0-13.0-3.50","match_key":"a","participant_id":"28"},{"rt":null,"stimulus":"Sounds/dog_sound.wav","key_press":null,"block":1,"trial_type":"audio-keyboard-response","trial_index":256,"time_elapsed":2509603,"internal_node_id":"0.0-13.0-0.51","match_key":"a","participant_id":"28"},{"rt":null,"stimulus":"<p style=\"font-size: 48px;\">+</p>","key_press":null,"block":1,"trial_type":"html-keyboard-response","trial_index":257,"time_elapsed":2510606,"internal_node_id":"0.0-13.0-1.51","match_key":"a","participant_id":"28"},{"rt":713.2399999536574,"stimulus":"Images/motorcycle_3.png","key_press":76,"stim_onset":1582757229484,"block":1,"match_type":"non-match","image_category":"motorcycle","sound_category":"dog","audio_type":"sound","phase":"test","trial_type":"image-keyboard-response","trial_index":258,"time_elapsed":2511320,"internal_node_id":"0.0-13.0-2.51","match_key":"a","participant_id":"28","correct":true},{"rt":null,"stimulus":"Sounds/correct.wav","key_press":null,"block":1,"trial_type":"audio-keyboard-response","trial_index":259,"time_elapsed":2513328,"internal_node_id":"0.0-13.0-3.51","match_key":"a","participant_id":"28"},{"rt":null,"stimulus":"Sounds/rooster_label.wav","key_press":null,"block":1,"trial_type":"audio-keyboard-response","trial_index":260,"time_elapsed":2514023,"internal_node_id":"0.0-13.0-0.52","match_key":"a","participant_id":"28"},{"rt":null,"stimulus":"<p style=\"font-size: 48px;\">+</p>","key_press":null,"block":1,"trial_type":"html-keyboard-response","trial_index":261,"time_elapsed":2515023,"internal_node_id":"0.0-13.0-1.52","match_key":"a","participant_id":"28"},{"rt":752.1299999207258,"stimulus":"Images/whistle_1.png","key_press":76,"stim_onset":1582757233901,"block":1,"match_type":"non-match","image_category":"whistle","sound_category":"rooster","audio_type":"label","phase":"test","trial_type":"image-keyboard-response","trial_index":262,"time_elapsed":2515776,"internal_node_id":"0.0-13.0-2.52","match_key":"a","participant_id":"28","correct":true},{"rt":null,"stimulus":"Sounds/correct.wav","key_press":null,"block":1,"trial_type":"audio-keyboard-response","trial_index":263,"time_elapsed":2517779,"internal_node_id":"0.0-13.0-3.52","match_key":"a","participant_id":"28"},{"rt":null,"stimulus":"Sounds/cat_sound.wav","key_press":null,"block":1,"trial_type":"audio-keyboard-response","trial_index":264,"time_elapsed":2518623,"internal_node_id":"0.0-13.0-0.53","match_key":"a","participant_id":"28"},{"rt":null,"stimulus":"<p style=\"font-size: 48px;\">+</p>","key_press":null,"block":1,"trial_type":"html-keyboard-response","trial_index":265,"time_elapsed":2519623,"internal_node_id":"0.0-13.0-1.53","match_key":"a","participant_id":"28"},{"rt":680.2049999823794,"stimulus":"Images/cat_orig.png","key_press":65,"stim_onset":1582757238501,"block":1,"match_type":"match","image_category":"cat","sound_category":"cat","audio_type":"sound","phase":"test","trial_type":"image-keyboard-response","trial_index":266,"time_elapsed":2520304,"internal_node_id":"0.0-13.0-2.53","match_key":"a","participant_id":"28","correct":true},{"rt":null,"stimulus":"Sounds/correct.wav","key_press":null,"block":1,"trial_type":"audio-keyboard-response","trial_index":267,"time_elapsed":2522311,"internal_node_id":"0.0-13.0-3.53","match_key":"a","participant_id":"28"},{"rt":null,"stimulus":"Sounds/cat_label.wav","key_press":null,"block":1,"trial_type":"audio-keyboard-response","trial_index":268,"time_elapsed":2523143,"internal_node_id":"0.0-13.0-0.54","match_key":"a","participant_id":"28"},{"rt":null,"stimulus":"<p style=\"font-size: 48px;\">+</p>","key_press":null,"block":1,"trial_type":"html-keyboard-response","trial_index":269,"time_elapsed":2524139,"internal_node_id":"0.0-13.0-1.54","match_key":"a","participant_id":"28"},{"rt":347.8800000157207,"stimulus":"Images/motorcycle_cartoon.png","key_press":76,"stim_onset":1582757243017,"block":1,"match_type":"non-match","image_category":"motorcycle","sound_category":"cat","audio_type":"label","phase":"test","trial_type":"image-keyboard-response","trial_index":270,"time_elapsed":2524488,"internal_node_id":"0.0-13.0-2.54","match_key":"a","participant_id":"28","correct":true},{"rt":null,"stimulus":"Sounds/correct.wav","key_press":null,"block":1,"trial_type":"audio-keyboard-response","trial_index":271,"time_elapsed":2526494,"internal_node_id":"0.0-13.0-3.54","match_key":"a","participant_id":"28"},{"rt":null,"stimulus":"Sounds/car_sound.wav","key_press":null,"block":1,"trial_type":"audio-keyboard-response","trial_index":272,"time_elapsed":2527563,"internal_node_id":"0.0-13.0-0.55","match_key":"a","participant_id":"28"},{"rt":null,"stimulus":"<p style=\"font-size: 48px;\">+</p>","key_press":null,"block":1,"trial_type":"html-keyboard-response","trial_index":273,"time_elapsed":2528556,"internal_node_id":"0.0-13.0-1.55","match_key":"a","participant_id":"28"},{"rt":555.1050000358373,"stimulus":"Images/cat_cartoon.png","key_press":76,"stim_onset":1582757247434,"block":1,"match_type":"non-match","image_category":"cat","sound_category":"car","audio_type":"sound","phase":"test","trial_type":"image-keyboard-response","trial_index":274,"time_elapsed":2529112,"internal_node_id":"0.0-13.0-2.55","match_key":"a","participant_id":"28","correct":true},{"rt":null,"stimulus":"Sounds/correct.wav","key_press":null,"block":1,"trial_type":"audio-keyboard-response","trial_index":275,"time_elapsed":2531115,"internal_node_id":"0.0-13.0-3.55","match_key":"a","participant_id":"28"},{"rt":null,"stimulus":"Sounds/dog_label.wav","key_press":null,"block":1,"trial_type":"audio-keyboard-response","trial_index":276,"time_elapsed":2531783,"internal_node_id":"0.0-13.0-0.56","match_key":"a","participant_id":"28"},{"rt":null,"stimulus":"<p style=\"font-size: 48px;\">+</p>","key_press":null,"block":1,"trial_type":"html-keyboard-response","trial_index":277,"time_elapsed":2532773,"internal_node_id":"0.0-13.0-1.56","match_key":"a","participant_id":"28"},{"rt":418.1349999271333,"stimulus":"Images/frog_2.png","key_press":76,"stim_onset":1582757251651,"block":1,"match_type":"non-match","image_category":"frog","sound_category":"dog","audio_type":"label","phase":"test","trial_type":"image-keyboard-response","trial_index":278,"time_elapsed":2533192,"internal_node_id":"0.0-13.0-2.56","match_key":"a","participant_id":"28","correct":true},{"rt":null,"stimulus":"Sounds/correct.wav","key_press":null,"block":1,"trial_type":"audio-keyboard-response","trial_index":279,"time_elapsed":2535194,"internal_node_id":"0.0-13.0-3.56","match_key":"a","participant_id":"28"},{"rt":null,"stimulus":"Sounds/train_sound.wav","key_press":null,"block":1,"trial_type":"audio-keyboard-response","trial_index":280,"time_elapsed":2536484,"internal_node_id":"0.0-13.0-0.57","match_key":"a","participant_id":"28"},{"rt":null,"stimulus":"<p style=\"font-size: 48px;\">+</p>","key_press":null,"block":1,"trial_type":"html-keyboard-response","trial_index":281,"time_elapsed":2537490,"internal_node_id":"0.0-13.0-1.57","match_key":"a","participant_id":"28"},{"rt":596.0050000576302,"stimulus":"Images/train_cartoon.png","key_press":65,"stim_onset":1582757256368,"block":1,"match_type":"match","image_category":"train","sound_category":"train","audio_type":"sound","phase":"test","trial_type":"image-keyboard-response","trial_index":282,"time_elapsed":2538088,"internal_node_id":"0.0-13.0-2.57","match_key":"a","participant_id":"28","correct":true},{"rt":null,"stimulus":"Sounds/correct.wav","key_press":null,"block":1,"trial_type":"audio-keyboard-response","trial_index":283,"time_elapsed":2540096,"internal_node_id":"0.0-13.0-3.57","match_key":"a","participant_id":"28"},{"rt":null,"stimulus":"Sounds/whistle_sound.wav","key_press":null,"block":1,"trial_type":"audio-keyboard-response","trial_index":284,"time_elapsed":2540804,"internal_node_id":"0.0-13.0-0.58","match_key":"a","participant_id":"28"},{"rt":null,"stimulus":"<p style=\"font-size: 48px;\">+</p>","key_press":null,"block":1,"trial_type":"html-keyboard-response","trial_index":285,"time_elapsed":2541806,"internal_node_id":"0.0-13.0-1.58","match_key":"a","participant_id":"28"},{"rt":736.7849999573082,"stimulus":"Images/frog_3.png","key_press":76,"stim_onset":1582757260684,"block":1,"match_type":"non-match","image_category":"frog","sound_category":"whistle","audio_type":"sound","phase":"test","trial_type":"image-keyboard-response","trial_index":286,"time_elapsed":2542544,"internal_node_id":"0.0-13.0-2.58","match_key":"a","participant_id":"28","correct":true},{"rt":null,"stimulus":"Sounds/correct.wav","key_press":null,"block":1,"trial_type":"audio-keyboard-response","trial_index":287,"time_elapsed":2544561,"internal_node_id":"0.0-13.0-3.58","match_key":"a","participant_id":"28"},{"rt":null,"stimulus":"Sounds/motorcycle_label.wav","key_press":null,"block":1,"trial_type":"audio-keyboard-response","trial_index":288,"time_elapsed":2545704,"internal_node_id":"0.0-13.0-0.59","match_key":"a","participant_id":"28"},{"rt":null,"stimulus":"<p style=\"font-size: 48px;\">+</p>","key_press":null,"block":1,"trial_type":"html-keyboard-response","trial_index":289,"time_elapsed":2546706,"internal_node_id":"0.0-13.0-1.59","match_key":"a","participant_id":"28"},{"rt":500.8050000760704,"stimulus":"Images/train_3.png","key_press":76,"stim_onset":1582757265584,"block":1,"match_type":"non-match","image_category":"train","sound_category":"motorcycle","audio_type":"label","phase":"test","trial_type":"image-keyboard-response","trial_index":290,"time_elapsed":2547208,"internal_node_id":"0.0-13.0-2.59","match_key":"a","participant_id":"28","correct":true},{"rt":null,"stimulus":"Sounds/correct.wav","key_press":null,"block":1,"trial_type":"audio-keyboard-response","trial_index":291,"time_elapsed":2549212,"internal_node_id":"0.0-13.0-3.59","match_key":"a","participant_id":"28"},{"rt":null,"stimulus":"Sounds/frog_label.wav","key_press":null,"block":1,"trial_type":"audio-keyboard-response","trial_index":292,"time_elapsed":2550104,"internal_node_id":"0.0-13.0-0.60","match_key":"a","participant_id":"28"},{"rt":null,"stimulus":"<p style=\"font-size: 48px;\">+</p>","key_press":null,"block":1,"trial_type":"html-keyboard-response","trial_index":293,"time_elapsed":2551107,"internal_node_id":"0.0-13.0-1.60","match_key":"a","participant_id":"28"},{"rt":692.769999965094,"stimulus":"Images/gun_orig.png","key_press":76,"stim_onset":1582757269985,"block":1,"match_type":"non-match","image_category":"gun","sound_category":"frog","audio_type":"label","phase":"test","trial_type":"image-keyboard-response","trial_index":294,"time_elapsed":2551800,"internal_node_id":"0.0-13.0-2.60","match_key":"a","participant_id":"28","correct":true},{"rt":null,"stimulus":"Sounds/correct.wav","key_press":null,"block":1,"trial_type":"audio-keyboard-response","trial_index":295,"time_elapsed":2553809,"internal_node_id":"0.0-13.0-3.60","match_key":"a","participant_id":"28"},{"rt":null,"stimulus":"Sounds/rooster_label.wav","key_press":null,"block":1,"trial_type":"audio-keyboard-response","trial_index":296,"time_elapsed":2554504,"internal_node_id":"0.0-13.0-0.61","match_key":"a","participant_id":"28"},{"rt":null,"stimulus":"<p style=\"font-size: 48px;\">+</p>","key_press":null,"block":1,"trial_type":"html-keyboard-response","trial_index":297,"time_elapsed":2555507,"internal_node_id":"0.0-13.0-1.61","match_key":"a","participant_id":"28"},{"rt":452.4400000227615,"stimulus":"Images/rooster_cartoon.png","key_press":65,"stim_onset":1582757274385,"block":1,"match_type":"match","image_category":"rooster","sound_category":"rooster","audio_type":"label","phase":"test","trial_type":"image-keyboard-response","trial_index":298,"time_elapsed":2555960,"internal_node_id":"0.0-13.0-2.61","match_key":"a","participant_id":"28","correct":true},{"rt":null,"stimulus":"Sounds/correct.wav","key_press":null,"block":1,"trial_type":"audio-keyboard-response","trial_index":299,"time_elapsed":2557978,"internal_node_id":"0.0-13.0-3.61","match_key":"a","participant_id":"28"},{"rt":null,"stimulus":"Sounds/cat_label.wav","key_press":null,"block":1,"trial_type":"audio-keyboard-response","trial_index":300,"time_elapsed":2558824,"internal_node_id":"0.0-13.0-0.62","match_key":"a","participant_id":"28"},{"rt":null,"stimulus":"<p style=\"font-size: 48px;\">+</p>","key_press":null,"block":1,"trial_type":"html-keyboard-response","trial_index":301,"time_elapsed":2559823,"internal_node_id":"0.0-13.0-1.62","match_key":"a","participant_id":"28"},{"rt":672.0349999377504,"stimulus":"Images/cat_cartoon.png","key_press":65,"stim_onset":1582757278701,"block":1,"match_type":"match","image_category":"cat","sound_category":"cat","audio_type":"label","phase":"test","trial_type":"image-keyboard-response","trial_index":302,"time_elapsed":2560496,"internal_node_id":"0.0-13.0-2.62","match_key":"a","participant_id":"28","correct":true},{"rt":null,"stimulus":"Sounds/correct.wav","key_press":null,"block":1,"trial_type":"audio-keyboard-response","trial_index":303,"time_elapsed":2562511,"internal_node_id":"0.0-13.0-3.62","match_key":"a","participant_id":"28"},{"rt":null,"stimulus":"Sounds/cow_label.wav","key_press":null,"block":1,"trial_type":"audio-keyboard-response","trial_index":304,"time_elapsed":2563524,"internal_node_id":"0.0-13.0-0.63","match_key":"a","participant_id":"28"},{"rt":null,"stimulus":"<p style=\"font-size: 48px;\">+</p>","key_press":null,"block":1,"trial_type":"html-keyboard-response","trial_index":305,"time_elapsed":2564523,"internal_node_id":"0.0-13.0-1.63","match_key":"a","participant_id":"28"},{"rt":580.1849999697879,"stimulus":"Images/cat_3.png","key_press":76,"stim_onset":1582757283401,"block":1,"match_type":"non-match","image_category":"cat","sound_category":"cow","audio_type":"label","phase":"test","trial_type":"image-keyboard-response","trial_index":306,"time_elapsed":2565104,"internal_node_id":"0.0-13.0-2.63","match_key":"a","participant_id":"28","correct":true},{"rt":null,"stimulus":"Sounds/correct.wav","key_press":null,"block":1,"trial_type":"audio-keyboard-response","trial_index":307,"time_elapsed":2567112,"internal_node_id":"0.0-13.0-3.63","match_key":"a","participant_id":"28"},{"rt":null,"stimulus":"Sounds/cat_label.wav","key_press":null,"block":1,"trial_type":"audio-keyboard-response","trial_index":308,"time_elapsed":2567924,"internal_node_id":"0.0-13.0-0.64","match_key":"a","participant_id":"28"},{"rt":null,"stimulus":"<p style=\"font-size: 48px;\">+</p>","key_press":null,"block":1,"trial_type":"html-keyboard-response","trial_index":309,"time_elapsed":2568923,"internal_node_id":"0.0-13.0-1.64","match_key":"a","participant_id":"28"},{"rt":596.0600000107661,"stimulus":"Images/cat_3.png","key_press":65,"stim_onset":1582757287801,"block":1,"match_type":"match","image_category":"cat","sound_category":"cat","audio_type":"label","phase":"test","trial_type":"image-keyboard-response","trial_index":310,"time_elapsed":2569520,"internal_node_id":"0.0-13.0-2.64","match_key":"a","participant_id":"28","correct":true},{"rt":null,"stimulus":"Sounds/correct.wav","key_press":null,"block":1,"trial_type":"audio-keyboard-response","trial_index":311,"time_elapsed":2571529,"internal_node_id":"0.0-13.0-3.64","match_key":"a","participant_id":"28"},{"rt":null,"stimulus":"Sounds/cow_label.wav","key_press":null,"block":1,"trial_type":"audio-keyboard-response","trial_index":312,"time_elapsed":2572524,"internal_node_id":"0.0-13.0-0.65","match_key":"a","participant_id":"28"},{"rt":null,"stimulus":"<p style=\"font-size: 48px;\">+</p>","key_press":null,"block":1,"trial_type":"html-keyboard-response","trial_index":313,"time_elapsed":2573523,"internal_node_id":"0.0-13.0-1.65","match_key":"a","participant_id":"28"},{"rt":643.8449999550357,"stimulus":"Images/gun_2.png","key_press":76,"stim_onset":1582757292401,"block":1,"match_type":"non-match","image_category":"gun","sound_category":"cow","audio_type":"label","phase":"test","trial_type":"image-keyboard-response","trial_index":314,"time_elapsed":2574168,"internal_node_id":"0.0-13.0-2.65","match_key":"a","participant_id":"28","correct":true},{"rt":null,"stimulus":"Sounds/correct.wav","key_press":null,"block":1,"trial_type":"audio-keyboard-response","trial_index":315,"time_elapsed":2576179,"internal_node_id":"0.0-13.0-3.65","match_key":"a","participant_id":"28"},{"rt":null,"stimulus":"Sounds/cat_label.wav","key_press":null,"block":1,"trial_type":"audio-keyboard-response","trial_index":316,"time_elapsed":2576984,"internal_node_id":"0.0-13.0-0.66","match_key":"a","participant_id":"28"},{"rt":null,"stimulus":"<p style=\"font-size: 48px;\">+</p>","key_press":null,"block":1,"trial_type":"html-keyboard-response","trial_index":317,"time_elapsed":2577973,"internal_node_id":"0.0-13.0-1.66","match_key":"a","participant_id":"28"},{"rt":498.1099999276921,"stimulus":"Images/cat_2.png","key_press":65,"stim_onset":1582757296851,"block":1,"match_type":"match","image_category":"cat","sound_category":"cat","audio_type":"label","phase":"test","trial_type":"image-keyboard-response","trial_index":318,"time_elapsed":2578472,"internal_node_id":"0.0-13.0-2.66","match_key":"a","participant_id":"28","correct":true},{"rt":null,"stimulus":"Sounds/correct.wav","key_press":null,"block":1,"trial_type":"audio-keyboard-response","trial_index":319,"time_elapsed":2580481,"internal_node_id":"0.0-13.0-3.66","match_key":"a","participant_id":"28"},{"rt":null,"stimulus":"Sounds/rooster_sound.wav","key_press":null,"block":1,"trial_type":"audio-keyboard-response","trial_index":320,"time_elapsed":2581184,"internal_node_id":"0.0-13.0-0.67","match_key":"a","participant_id":"28"},{"rt":null,"stimulus":"<p style=\"font-size: 48px;\">+</p>","key_press":null,"block":1,"trial_type":"html-keyboard-response","trial_index":321,"time_elapsed":2582173,"internal_node_id":"0.0-13.0-1.67","match_key":"a","participant_id":"28"},{"rt":689.7999999346212,"stimulus":"Images/dog_3.png","key_press":76,"stim_onset":1582757301052,"block":1,"match_type":"non-match","image_category":"dog","sound_category":"rooster","audio_type":"sound","phase":"test","trial_type":"image-keyboard-response","trial_index":322,"time_elapsed":2582864,"internal_node_id":"0.0-13.0-2.67","match_key":"a","participant_id":"28","correct":true},{"rt":null,"stimulus":"Sounds/correct.wav","key_press":null,"block":1,"trial_type":"audio-keyboard-response","trial_index":323,"time_elapsed":2584879,"internal_node_id":"0.0-13.0-3.67","match_key":"a","participant_id":"28"},{"rt":null,"stimulus":"Sounds/frog_sound.wav","key_press":null,"block":1,"trial_type":"audio-keyboard-response","trial_index":324,"time_elapsed":2585784,"internal_node_id":"0.0-13.0-0.68","match_key":"a","participant_id":"28"},{"rt":null,"stimulus":"<p style=\"font-size: 48px;\">+</p>","key_press":null,"block":1,"trial_type":"html-keyboard-response","trial_index":325,"time_elapsed":2586773,"internal_node_id":"0.0-13.0-1.68","match_key":"a","participant_id":"28"},{"rt":585.9300000593066,"stimulus":"Images/frog_cartoon.png","key_press":65,"stim_onset":1582757305652,"block":1,"match_type":"match","image_category":"frog","sound_category":"frog","audio_type":"sound","phase":"test","trial_type":"image-keyboard-response","trial_index":326,"time_elapsed":2587360,"internal_node_id":"0.0-13.0-2.68","match_key":"a","participant_id":"28","correct":true},{"rt":null,"stimulus":"Sounds/correct.wav","key_press":null,"block":1,"trial_type":"audio-keyboard-response","trial_index":327,"time_elapsed":2589378,"internal_node_id":"0.0-13.0-3.68","match_key":"a","participant_id":"28"},{"rt":null,"stimulus":"Sounds/rooster_label.wav","key_press":null,"block":1,"trial_type":"audio-keyboard-response","trial_index":328,"time_elapsed":2590084,"internal_node_id":"0.0-13.0-0.69","match_key":"a","participant_id":"28"},{"rt":null,"stimulus":"<p style=\"font-size: 48px;\">+</p>","key_press":null,"block":1,"trial_type":"html-keyboard-response","trial_index":329,"time_elapsed":2591074,"internal_node_id":"0.0-13.0-1.69","match_key":"a","participant_id":"28"},{"rt":637.8300000214949,"stimulus":"Images/cat_orig.png","key_press":76,"stim_onset":1582757309952,"block":1,"match_type":"non-match","image_category":"cat","sound_category":"rooster","audio_type":"label","phase":"test","trial_type":"image-keyboard-response","trial_index":330,"time_elapsed":2591712,"internal_node_id":"0.0-13.0-2.69","match_key":"a","participant_id":"28","correct":true},{"rt":null,"stimulus":"Sounds/correct.wav","key_press":null,"block":1,"trial_type":"audio-keyboard-response","trial_index":331,"time_elapsed":2593727,"internal_node_id":"0.0-13.0-3.69","match_key":"a","participant_id":"28"},{"rt":null,"stimulus":"Sounds/dog_label.wav","key_press":null,"block":1,"trial_type":"audio-keyboard-response","trial_index":332,"time_elapsed":2594384,"internal_node_id":"0.0-13.0-0.70","match_key":"a","participant_id":"28"},{"rt":null,"stimulus":"<p style=\"font-size: 48px;\">+</p>","key_press":null,"block":1,"trial_type":"html-keyboard-response","trial_index":333,"time_elapsed":2595374,"internal_node_id":"0.0-13.0-1.70","match_key":"a","participant_id":"28"},{"rt":425.3749999916181,"stimulus":"Images/dog_cartoon.png","key_press":65,"stim_onset":1582757314252,"block":1,"match_type":"match","image_category":"dog","sound_category":"dog","audio_type":"label","phase":"test","trial_type":"image-keyboard-response","trial_index":334,"time_elapsed":2595800,"internal_node_id":"0.0-13.0-2.70","match_key":"a","participant_id":"28","correct":true},{"rt":null,"stimulus":"Sounds/correct.wav","key_press":null,"block":1,"trial_type":"audio-keyboard-response","trial_index":335,"time_elapsed":2597810,"internal_node_id":"0.0-13.0-3.70","match_key":"a","participant_id":"28"},{"rt":null,"stimulus":"Sounds/car_label.wav","key_press":null,"block":1,"trial_type":"audio-keyboard-response","trial_index":336,"time_elapsed":2598884,"internal_node_id":"0.0-13.0-0.71","match_key":"a","participant_id":"28"},{"rt":null,"stimulus":"<p style=\"font-size: 48px;\">+</p>","key_press":null,"block":1,"trial_type":"html-keyboard-response","trial_index":337,"time_elapsed":2599874,"internal_node_id":"0.0-13.0-1.71","match_key":"a","participant_id":"28"},{"rt":1349.4449999416247,"stimulus":"Images/car_cartoon.png","key_press":65,"stim_onset":1582757318752,"block":1,"match_type":"match","image_category":"car","sound_category":"car","audio_type":"label","phase":"test","trial_type":"image-keyboard-response","trial_index":338,"time_elapsed":2601224,"internal_node_id":"0.0-13.0-2.71","match_key":"a","participant_id":"28","correct":true},{"rt":null,"stimulus":"Sounds/correct.wav","key_press":null,"block":1,"trial_type":"audio-keyboard-response","trial_index":339,"time_elapsed":2603230,"internal_node_id":"0.0-13.0-3.71","match_key":"a","participant_id":"28"},{"rt":null,"stimulus":"Sounds/whistle_sound.wav","key_press":null,"block":1,"trial_type":"audio-keyboard-response","trial_index":340,"time_elapsed":2603924,"internal_node_id":"0.0-13.0-0.72","match_key":"a","participant_id":"28"},{"rt":null,"stimulus":"<p style=\"font-size: 48px;\">+</p>","key_press":null,"block":1,"trial_type":"html-keyboard-response","trial_index":341,"time_elapsed":2604924,"internal_node_id":"0.0-13.0-1.72","match_key":"a","participant_id":"28"},{"rt":1187.6199999824166,"stimulus":"Images/train_orig.png","key_press":65,"stim_onset":1582757323802,"block":1,"match_type":"non-match","image_category":"train","sound_category":"whistle","audio_type":"sound","phase":"test","trial_type":"image-keyboard-response","trial_index":342,"time_elapsed":2606112,"internal_node_id":"0.0-13.0-2.72","match_key":"a","participant_id":"28","correct":false},{"rt":null,"stimulus":"Sounds/incorrect.wav","key_press":null,"block":1,"trial_type":"audio-keyboard-response","trial_index":343,"time_elapsed":2608117,"internal_node_id":"0.0-13.0-3.72","match_key":"a","participant_id":"28"},{"rt":null,"stimulus":"Sounds/rooster_label.wav","key_press":null,"block":1,"trial_type":"audio-keyboard-response","trial_index":344,"time_elapsed":2608804,"internal_node_id":"0.0-13.0-0.73","match_key":"a","participant_id":"28"},{"rt":null,"stimulus":"<p style=\"font-size: 48px;\">+</p>","key_press":null,"block":1,"trial_type":"html-keyboard-response","trial_index":345,"time_elapsed":2609807,"internal_node_id":"0.0-13.0-1.73","match_key":"a","participant_id":"28"},{"rt":544.0800000214949,"stimulus":"Images/rooster_orig.png","key_press":65,"stim_onset":1582757328685,"block":1,"match_type":"match","image_category":"rooster","sound_category":"rooster","audio_type":"label","phase":"test","trial_type":"image-keyboard-response","trial_index":346,"time_elapsed":2610352,"internal_node_id":"0.0-13.0-2.73","match_key":"a","participant_id":"28","correct":true},{"rt":null,"stimulus":"Sounds/correct.wav","key_press":null,"block":1,"trial_type":"audio-keyboard-response","trial_index":347,"time_elapsed":2612361,"internal_node_id":"0.0-13.0-3.73","match_key":"a","participant_id":"28"},{"rt":null,"stimulus":"Sounds/train_label.wav","key_press":null,"block":1,"trial_type":"audio-keyboard-response","trial_index":348,"time_elapsed":2613644,"internal_node_id":"0.0-13.0-0.74","match_key":"a","participant_id":"28"},{"rt":null,"stimulus":"<p style=\"font-size: 48px;\">+</p>","key_press":null,"block":1,"trial_type":"html-keyboard-response","trial_index":349,"time_elapsed":2614640,"internal_node_id":"0.0-13.0-1.74","match_key":"a","participant_id":"28"},{"rt":446.0500000277534,"stimulus":"Images/train_orig.png","key_press":76,"stim_onset":1582757333519,"block":1,"match_type":"match","image_category":"train","sound_category":"train","audio_type":"label","phase":"test","trial_type":"image-keyboard-response","trial_index":350,"time_elapsed":2615088,"internal_node_id":"0.0-13.0-2.74","match_key":"a","participant_id":"28","correct":false},{"rt":null,"stimulus":"Sounds/incorrect.wav","key_press":null,"block":1,"trial_type":"audio-keyboard-response","trial_index":351,"time_elapsed":2617096,"internal_node_id":"0.0-13.0-3.74","match_key":"a","participant_id":"28"},{"rt":null,"stimulus":"Sounds/rooster_sound.wav","key_press":null,"block":1,"trial_type":"audio-keyboard-response","trial_index":352,"time_elapsed":2617784,"internal_node_id":"0.0-13.0-0.75","match_key":"a","participant_id":"28"},{"rt":null,"stimulus":"<p style=\"font-size: 48px;\">+</p>","key_press":null,"block":1,"trial_type":"html-keyboard-response","trial_index":353,"time_elapsed":2618774,"internal_node_id":"0.0-13.0-1.75","match_key":"a","participant_id":"28"},{"rt":1097.3249999806285,"stimulus":"Images/rooster_2.png","key_press":65,"stim_onset":1582757337652,"block":1,"match_type":"match","image_category":"rooster","sound_category":"rooster","audio_type":"sound","phase":"test","trial_type":"image-keyboard-response","trial_index":354,"time_elapsed":2619872,"internal_node_id":"0.0-13.0-2.75","match_key":"a","participant_id":"28","correct":true},{"rt":null,"stimulus":"Sounds/correct.wav","key_press":null,"block":1,"trial_type":"audio-keyboard-response","trial_index":355,"time_elapsed":2621879,"internal_node_id":"0.0-13.0-3.75","match_key":"a","participant_id":"28"},{"rt":null,"stimulus":"Sounds/gun_label.wav","key_press":null,"block":1,"trial_type":"audio-keyboard-response","trial_index":356,"time_elapsed":2622463,"internal_node_id":"0.0-13.0-0.76","match_key":"a","participant_id":"28"},{"rt":null,"stimulus":"<p style=\"font-size: 48px;\">+</p>","key_press":null,"block":1,"trial_type":"html-keyboard-response","trial_index":357,"time_elapsed":2623457,"internal_node_id":"0.0-13.0-1.76","match_key":"a","participant_id":"28"},{"rt":725.9049999993294,"stimulus":"Images/gun_orig.png","key_press":65,"stim_onset":1582757342335,"block":1,"match_type":"match","image_category":"gun","sound_category":"gun","audio_type":"label","phase":"test","trial_type":"image-keyboard-response","trial_index":358,"time_elapsed":2624184,"internal_node_id":"0.0-13.0-2.76","match_key":"a","participant_id":"28","correct":true},{"rt":null,"stimulus":"Sounds/correct.wav","key_press":null,"block":1,"trial_type":"audio-keyboard-response","trial_index":359,"time_elapsed":2626194,"internal_node_id":"0.0-13.0-3.76","match_key":"a","participant_id":"28"},{"rt":null,"stimulus":"Sounds/train_sound.wav","key_press":null,"block":1,"trial_type":"audio-keyboard-response","trial_index":360,"time_elapsed":2627504,"internal_node_id":"0.0-13.0-0.77","match_key":"a","participant_id":"28"},{"rt":null,"stimulus":"<p style=\"font-size: 48px;\">+</p>","key_press":null,"block":1,"trial_type":"html-keyboard-response","trial_index":361,"time_elapsed":2628507,"internal_node_id":"0.0-13.0-1.77","match_key":"a","participant_id":"28"},{"rt":1043.7450000317767,"stimulus":"Images/car_cartoon.png","key_press":76,"stim_onset":1582757347385,"block":1,"match_type":"non-match","image_category":"car","sound_category":"train","audio_type":"sound","phase":"test","trial_type":"image-keyboard-response","trial_index":362,"time_elapsed":2629552,"internal_node_id":"0.0-13.0-2.77","match_key":"a","participant_id":"28","correct":true},{"rt":null,"stimulus":"Sounds/correct.wav","key_press":null,"block":1,"trial_type":"audio-keyboard-response","trial_index":363,"time_elapsed":2631562,"internal_node_id":"0.0-13.0-3.77","match_key":"a","participant_id":"28"},{"rt":null,"stimulus":"Sounds/train_sound.wav","key_press":null,"block":1,"trial_type":"audio-keyboard-response","trial_index":364,"time_elapsed":2632844,"internal_node_id":"0.0-13.0-0.78","match_key":"a","participant_id":"28"},{"rt":null,"stimulus":"<p style=\"font-size: 48px;\">+</p>","key_press":null,"block":1,"trial_type":"html-keyboard-response","trial_index":365,"time_elapsed":2633841,"internal_node_id":"0.0-13.0-1.78","match_key":"a","participant_id":"28"},{"rt":534.6650000428781,"stimulus":"Images/train_2.png