"rt","responses","trial_type","trial_index","time_elapsed","internal_node_id","match_key","participant_id","stimulus","key_press","block","stim_onset","match_type","image_category","sound_category","audio_type","phase","correct"
"15077.99","{""Q0"":""16""}","survey-text","0","15109","0.0-0.0","a","16","","","","","","","","","",""
"87477.0249999999","","html-keyboard-response","1","102598","0.0-1.0","a","16","<p>Use KEYBOARD 2 (match LEFT)</p><p>Press MATCH to continue.</p>","65","","","","","","","",""
"3349449.615","","html-keyboard-response","2","3453221","0.0-2.0","a","16","<p>Welcome to the experiment.</p>","40","","","","","","","",""
"11321.64000000013","","html-keyboard-response","3","3464548","0.0-3.0","a","16","<p>Thank you for agreeing to participate in this study.</p><p>If during any part of the procedure you must stop for any reason, please inform the researcher that you do not wish to continue.</p>","32","","","","","","","",""
"18229.84499999974","","html-keyboard-response","4","3482779","0.0-4.0","a","16","<p>In this experiment, you will hear various words or sounds and see pictures of various animals and objects.</p><p>Most of the images will be of common everyday objects, such as cars, cats, cows, firearms, frogs, chickens, whistles, trains, motorcycles, and dogs.</p><p>Some of the images will be real-life stills, while others will be cartoons.</p>","39","","","","","","","",""
"13310.70500000054","","html-keyboard-response","5","3496091","0.0-5.0","a","16","<p>Sometimes, the word/sound will match the picture, for example you'll hear a meowing sound and see a cat.</p><p>Other times, the picture will not match the sound or word.</p><p>Your task is to decide as quickly as possible if the word/sound matches the picture or not. </p>","32","","","","","","","",""
"7630.589999999851","","html-keyboard-response","6","3503724","0.0-6.0","a","16","<p>For example, if you hear the word ""cat"" or hear a meowing sound, and then see a picture of a cat, you should press the MATCH key.</p><p> If the sound and image do not match, press the NOT-MATCH key to indicate that there is not a match.</p>","65","","","","","","","",""
"20839.259999999776","","html-keyboard-response","7","3524564","0.0-7.0","a","16","<p>If you make a mistake, you will hear a buzzing sound instead of a more pleasant sound.</p><p> Try to respond as quickly as possible, while making as few errors as possible. If you are making mistakes, you are probably rushing.</p>","76","","","","","","","",""
"11230.915000000037","","html-keyboard-response","8","3535797","0.0-8.0","a","16","<p>Please try to not move or blink your eyes during the presentation of the images. You can move and blink between images.</p><p>During the experiment there will be some breaks during which you can rest your eyes.</p>","32","","","","","","","",""
"9430.294999999925","","html-keyboard-response","9","3545228","0.0-9.0","a","16","<p>We will begin with 10 practice trials. Please let the experimenter know if you have any questions.</p>","32","","","","","","","",""
"null","","audio-keyboard-response","10","3546435","0.0-10.0-0.0","a","16","Sounds/motorcycle_label.wav","null","0","","","","","","",""
"null","","html-keyboard-response","11","3547428","0.0-10.0-1.0","a","16","<p style=""font-size: 48px;"">+</p>","null","0","","","","","","",""
"846.5649999999441","","image-keyboard-response","12","3548276","0.0-10.0-2.0","a","16","Images/motorcycle_orig.png","65","0","1581883106385","match","motorcycle","motorcycle","label","practice","true"
"null","","audio-keyboard-response","13","3550281","0.0-10.0-3.0","a","16","Sounds/correct.wav","null","0","","","","","","",""
"null","","audio-keyboard-response","14","3551395","0.0-10.0-0.1","a","16","Sounds/motorcycle_label.wav","null","0","","","","","","",""
"null","","html-keyboard-response","15","3552394","0.0-10.0-1.1","a","16","<p style=""font-size: 48px;"">+</p>","null","0","","","","","","",""
"640.7000000011176","","image-keyboard-response","16","3553036","0.0-10.0-2.1","a","16","Images/dog_2.png","76","0","1581883111351","non-match","dog","motorcycle","label","practice","true"
"null","","audio-keyboard-response","17","3555044","0.0-10.0-3.1","a","16","Sounds/correct.wav","null","0","","","","","","",""
"null","","audio-keyboard-response","18","3556115","0.0-10.0-0.2","a","16","Sounds/car_label.wav","null","0","","","","","","",""
"null","","html-keyboard-response","19","3557111","0.0-10.0-1.2","a","16","<p style=""font-size: 48px;"">+</p>","null","0","","","","","","",""
"619.8650000002235","","image-keyboard-response","20","3557732","0.0-10.0-2.2","a","16","Images/car_3.png","65","0","1581883116068","match","car","car","label","practice","true"
"null","","audio-keyboard-response","21","3559747","0.0-10.0-3.2","a","16","Sounds/correct.wav","null","0","","","","","","",""
"null","","audio-keyboard-response","22","3560335","0.0-10.0-0.3","a","16","Sounds/gun_label.wav","null","0","","","","","","",""
"null","","html-keyboard-response","23","3561328","0.0-10.0-1.3","a","16","<p style=""font-size: 48px;"">+</p>","null","0","","","","","","",""
"803.25","","image-keyboard-response","24","3562132","0.0-10.0-2.3","a","16","Images/whistle_1.png","76","0","1581883120285","non-match","whistle","gun","label","practice","true"
"null","","audio-keyboard-response","25","3564151","0.0-10.0-3.3","a","16","Sounds/correct.wav","null","0","","","","","","",""
"null","","audio-keyboard-response","26","3564736","0.0-10.0-0.4","a","16","Sounds/gun_sound.wav","null","0","","","","","","",""
"null","","html-keyboard-response","27","3565729","0.0-10.0-1.4","a","16","<p style=""font-size: 48px;"">+</p>","null","0","","","","","","",""
"634.9350000000559","","image-keyboard-response","28","3566365","0.0-10.0-2.4","a","16","Images/gun_cartoon.png","65","0","1581883124686","match","gun","gun","sound","practice","true"
"null","","audio-keyboard-response","29","3568368","0.0-10.0-3.4","a","16","Sounds/correct.wav","null","0","","","","","","",""
"null","","audio-keyboard-response","30","3569396","0.0-10.0-0.5","a","16","Sounds/cow_sound.wav","null","0","","","","","","",""
"null","","html-keyboard-response","31","3570396","0.0-10.0-1.5","a","16","<p style=""font-size: 48px;"">+</p>","null","0","","","","","","",""
"848.4550000005402","","image-keyboard-response","32","3571245","0.0-10.0-2.5","a","16","Images/cat_2.png","76","0","1581883129353","non-match","cat","cow","sound","practice","true"
"null","","audio-keyboard-response","33","3573263","0.0-10.0-3.5","a","16","Sounds/correct.wav","null","0","","","","","","",""
"null","","audio-keyboard-response","34","3573956","0.0-10.0-0.6","a","16","Sounds/rooster_sound.wav","null","0","","","","","","",""
"null","","html-keyboard-response","35","3574946","0.0-10.0-1.6","a","16","<p style=""font-size: 48px;"">+</p>","null","0","","","","","","",""
"962.47999999905","","image-keyboard-response","36","3575910","0.0-10.0-2.6","a","16","Images/rooster_2.png","65","0","1581883133903","match","rooster","rooster","sound","practice","true"
"null","","audio-keyboard-response","37","3577922","0.0-10.0-3.6","a","16","Sounds/correct.wav","null","0","","","","","","",""
"null","","audio-keyboard-response","38","3578616","0.0-10.0-0.7","a","16","Sounds/whistle_sound.wav","null","0","","","","","","",""
"null","","html-keyboard-response","39","3579613","0.0-10.0-1.7","a","16","<p style=""font-size: 48px;"">+</p>","null","0","","","","","","",""
"663.4949999996461","","image-keyboard-response","40","3580277","0.0-10.0-2.7","a","16","Images/car_cartoon.png","76","0","1581883138570","non-match","car","whistle","sound","practice","true"
"null","","audio-keyboard-response","41","3582294","0.0-10.0-3.7","a","16","Sounds/correct.wav","null","0","","","","","","",""
"null","","audio-keyboard-response","42","3582956","0.0-10.0-0.8","a","16","Sounds/dog_label.wav","null","0","","","","","","",""
"null","","html-keyboard-response","43","3583946","0.0-10.0-1.8","a","16","<p style=""font-size: 48px;"">+</p>","null","0","","","","","","",""
"578.3300000005402","","image-keyboard-response","44","3584525","0.0-10.0-2.8","a","16","Images/dog_1.png","65","0","1581883142903","match","dog","dog","label","practice","true"
"null","","audio-keyboard-response","45","3586535","0.0-10.0-3.8","a","16","Sounds/correct.wav","null","0","","","","","","",""
"null","","audio-keyboard-response","46","3587836","0.0-10.0-0.9","a","16","Sounds/train_sound.wav","null","0","","","","","","",""
"null","","html-keyboard-response","47","3588830","0.0-10.0-1.9","a","16","<p style=""font-size: 48px;"">+</p>","null","0","","","","","","",""
"1246.9100000006147","","image-keyboard-response","48","3590078","0.0-10.0-2.9","a","16","Images/train_1.png","65","0","1581883147787","match","train","train","sound","practice","true"
"null","","audio-keyboard-response","49","3592089","0.0-10.0-3.9","a","16","Sounds/correct.wav","null","0","","","","","","",""
"20284.620000000577","","html-keyboard-response","50","3612374","0.0-11.0","a","16","<p>The rest of the experiment is divided into five blocks with 100 trials in each block. It will take about 45 minutes to complete.</p><p>The experimenter will be in the outer room and you can communicate with them through the monitor if you have any questions or wish to stop the experiment.</p>","32","","","","","","","",""
"26726.985000000335","","html-keyboard-response","51","3639097","0.0-12.0","a","16","<p>Remember, please try not to move or blink your eyes during the presentation of the images. </p><p>At the end of the experiment, we will show you your scores on the task so you can see how you did.</p><p>The experiment will start on the next screen.</p>","32","","","","","","","",""
"null","","audio-keyboard-response","52","3641788","0.0-13.0-0.0","a","16","Sounds/dog_label.wav","null","1","","","","","","",""
"null","","html-keyboard-response","53","3642791","0.0-13.0-1.0","a","16","<p style=""font-size: 48px;"">+</p>","null","1","","","","","","",""
"399.34999999962747","","image-keyboard-response","54","3643193","0.0-13.0-2.0","a","16","Images/dog_2.png","65","1","1581883201749","match","dog","dog","label","test","true"
"null","","audio-keyboard-response","55","3645208","0.0-13.0-3.0","a","16","Sounds/correct.wav","null","1","","","","","","",""
"null","","audio-keyboard-response","56","3645908","0.0-13.0-0.1","a","16","Sounds/rooster_label.wav","null","1","","","","","","",""
"null","","html-keyboard-response","57","3646908","0.0-13.0-1.1","a","16","<p style=""font-size: 48px;"">+</p>","null","1","","","","","","",""
"610.9950000001118","","image-keyboard-response","58","3647520","0.0-13.0-2.1","a","16","Images/motorcycle_orig.png","76","1","1581883205865","non-match","motorcycle","rooster","label","test","true"
"null","","audio-keyboard-response","59","3649528","0.0-13.0-3.1","a","16","Sounds/correct.wav","null","1","","","","","","",""
"null","","audio-keyboard-response","60","3650428","0.0-13.0-0.2","a","16","Sounds/frog_label.wav","null","1","","","","","","",""
"null","","html-keyboard-response","61","3651425","0.0-13.0-1.2","a","16","<p style=""font-size: 48px;"">+</p>","null","1","","","","","","",""
"806.3149999999441","","image-keyboard-response","62","3652232","0.0-13.0-2.2","a","16","Images/rooster_1.png","76","1","1581883210382","non-match","rooster","frog","label","test","true"
"null","","audio-keyboard-response","63","3654247","0.0-13.0-3.2","a","16","Sounds/correct.wav","null","1","","","","","","",""
"null","","audio-keyboard-response","64","3655148","0.0-13.0-0.3","a","16","Sounds/frog_sound.wav","null","1","","","","","","",""
"null","","html-keyboard-response","65","3656142","0.0-13.0-1.3","a","16","<p style=""font-size: 48px;"">+</p>","null","1","","","","","","",""
"633.4599999999627","","image-keyboard-response","66","3656776","0.0-13.0-2.3","a","16","Images/motorcycle_cartoon.png","76","1","1581883215099","non-match","motorcycle","frog","sound","test","true"
"null","","audio-keyboard-response","67","3658793","0.0-13.0-3.3","a","16","Sounds/correct.wav","null","1","","","","","","",""
"null","","audio-keyboard-response","68","3660068","0.0-13.0-0.4","a","16","Sounds/train_label.wav","null","1","","","","","","",""
"null","","html-keyboard-response","69","3661075","0.0-13.0-1.4","a","16","<p style=""font-size: 48px;"">+</p>","null","1","","","","","","",""
"596.2250000000931","","image-keyboard-response","70","3661672","0.0-13.0-2.4","a","16","Images/whistle_3.png","76","1","1581883220032","non-match","whistle","train","label","test","true"
"null","","audio-keyboard-response","71","3663681","0.0-13.0-3.4","a","16","Sounds/correct.wav","null","1","","","","","","",""
"null","","audio-keyboard-response","72","3664368","0.0-13.0-0.5","a","16","Sounds/rooster_sound.wav","null","1","","","","","","",""
"null","","html-keyboard-response","73","3665358","0.0-13.0-1.5","a","16","<p style=""font-size: 48px;"">+</p>","null","1","","","","","","",""
"390.7450000005774","","image-keyboard-response","74","3665752","0.0-13.0-2.5","a","16","Images/rooster_orig.png","65","1","1581883224315","match","rooster","rooster","sound","test","true"
"null","","audio-keyboard-response","75","3667763","0.0-13.0-3.5","a","16","Sounds/correct.wav","null","1","","","","","","",""
"null","","audio-keyboard-response","76","3668908","0.0-13.0-0.6","a","16","Sounds/motorcycle_label.wav","null","1","","","","","","",""
"null","","html-keyboard-response","77","3669908","0.0-13.0-1.6","a","16","<p style=""font-size: 48px;"">+</p>","null","1","","","","","","",""
"482.74499999918044","","image-keyboard-response","78","3670392","0.0-13.0-2.6","a","16","Images/gun_3.png","76","1","1581883228866","non-match","gun","motorcycle","label","test","true"
"null","","audio-keyboard-response","79","3672403","0.0-13.0-3.6","a","16","Sounds/correct.wav","null","1","","","","","","",""
"null","","audio-keyboard-response","80","3673488","0.0-13.0-0.7","a","16","Sounds/car_sound.wav","null","1","","","","","","",""
"null","","html-keyboard-response","81","3674492","0.0-13.0-1.7","a","16","<p style=""font-size: 48px;"">+</p>","null","1","","","","","","",""
"835.390000000596","","image-keyboard-response","82","3675328","0.0-13.0-2.7","a","16","Images/car_orig.png","65","1","1581883233449","match","car","car","sound","test","true"
"null","","audio-keyboard-response","83","3677331","0.0-13.0-3.7","a","16","Sounds/correct.wav","null","1","","","","","","",""
"null","","audio-keyboard-response","84","3678608","0.0-13.0-0.8","a","16","Sounds/train_label.wav","null","1","","","","","","",""
"null","","html-keyboard-response","85","3679625","0.0-13.0-1.8","a","16","<p style=""font-size: 48px;"">+</p>","null","1","","","","","","",""
"462.12000000011176","","image-keyboard-response","86","3680088","0.0-13.0-2.8","a","16","Images/train_2.png","65","1","1581883238582","match","train","train","label","test","true"
"null","","audio-keyboard-response","87","3682103","0.0-13.0-3.8","a","16","Sounds/correct.wav","null","1","","","","","","",""
"null","","audio-keyboard-response","88","3683008","0.0-13.0-0.9","a","16","Sounds/frog_sound.wav","null","1","","","","","","",""
"null","","html-keyboard-response","89","3684025","0.0-13.0-1.9","a","16","<p style=""font-size: 48px;"">+</p>","null","1","","","","","","",""
"853.9750000000931","","image-keyboard-response","90","3684880","0.0-13.0-2.9","a","16","Images/frog_cartoon.png","65","1","1581883242982","match","frog","frog","sound","test","true"
"null","","audio-keyboard-response","91","3686891","0.0-13.0-3.9","a","16","Sounds/correct.wav","null","1","","","","","","",""
"null","","audio-keyboard-response","92","3687968","0.0-13.0-0.10","a","16","Sounds/car_label.wav","null","1","","","","","","",""
"null","","html-keyboard-response","93","3688959","0.0-13.0-1.10","a","16","<p style=""font-size: 48px;"">+</p>","null","1","","","","","","",""
"752.4949999996461","","image-keyboard-response","94","3689712","0.0-13.0-2.10","a","16","Images/whistle_2.png","76","1","1581883247916","non-match","whistle","car","label","test","true"
"null","","audio-keyboard-response","95","3691717","0.0-13.0-3.10","a","16","Sounds/correct.wav","null","1","","","","","","",""
"null","","audio-keyboard-response","96","3692408","0.0-13.0-0.11","a","16","Sounds/rooster_label.wav","null","1","","","","","","",""
"null","","html-keyboard-response","97","3693425","0.0-13.0-1.11","a","16","<p style=""font-size: 48px;"">+</p>","null","1","","","","","","",""
"638.0849999994971","","image-keyboard-response","98","3694064","0.0-13.0-2.11","a","16","Images/rooster_3.png","65","1","1581883252382","match","rooster","rooster","label","test","true"
"null","","audio-keyboard-response","99","3696076","0.0-13.0-3.11","a","16","Sounds/correct.wav","null","1","","","","","","",""
"null","","audio-keyboard-response","100","3697368","0.0-13.0-0.12","a","16","Sounds/train_sound.wav","null","1","","","","","","",""
"null","","html-keyboard-response","101","3698359","0.0-13.0-1.12","a","16","<p style=""font-size: 48px;"">+</p>","null","1","","","","","","",""
"656.5250000003725","","image-keyboard-response","102","3699016","0.0-13.0-2.12","a","16","Images/train_cartoon.png","65","1","1581883257316","match","train","train","sound","test","true"
"null","","audio-keyboard-response","103","3701033","0.0-13.0-3.12","a","16","Sounds/correct.wav","null","1","","","","","","",""
"null","","audio-keyboard-response","104","3702055","0.0-13.0-0.13","a","16","Sounds/cow_label.wav","null","1","","","","","","",""
"null","","html-keyboard-response","105","3703049","0.0-13.0-1.13","a","16","<p style=""font-size: 48px;"">+</p>","null","1","","","","","","",""
"597.1850000005215","","image-keyboard-response","106","3703647","0.0-13.0-2.13","a","16","Images/rooster_3.png","65","1","1581883262006","non-match","rooster","cow","label","test","false"
"null","","audio-keyboard-response","107","3705654","0.0-13.0-3.13","a","16","Sounds/incorrect.wav","null","1","","","","","","",""
"null","","audio-keyboard-response","108","3706935","0.0-13.0-0.14","a","16","Sounds/train_sound.wav","null","1","","","","","","",""
"null","","html-keyboard-response","109","3707933","0.0-13.0-1.14","a","16","<p style=""font-size: 48px;"">+</p>","null","1","","","","","","",""
"801.5200000000186","","image-keyboard-response","110","3708735","0.0-13.0-2.14","a","16","Images/train_3.png","65","1","1581883266890","match","train","train","sound","test","true"
"null","","audio-keyboard-response","111","3710739","0.0-13.0-3.14","a","16","Sounds/correct.wav","null","1","","","","","","",""
"null","","audio-keyboard-response","112","3711315","0.0-13.0-0.15","a","16","Sounds/gun_label.wav","null","1","","","","","","",""
"null","","html-keyboard-response","113","3712333","0.0-13.0-1.15","a","16","<p style=""font-size: 48px;"">+</p>","null","1","","","","","","",""
"569.5600000000559","","image-keyboard-response","114","3712903","0.0-13.0-2.15","a","16","Images/frog_cartoon.png","76","1","1581883271290","non-match","frog","gun","label","test","true"
"null","","audio-keyboard-response","115","3714920","0.0-13.0-3.15","a","16","Sounds/correct.wav","null","1","","","","","","",""
"null","","audio-keyboard-response","116","3715615","0.0-13.0-0.16","a","16","Sounds/rooster_label.wav","null","1","","","","","","",""
"null","","html-keyboard-response","117","3716649","0.0-13.0-1.16","a","16","<p style=""font-size: 48px;"">+</p>","null","1","","","","","","",""
"612.8999999999069","","image-keyboard-response","118","3717263","0.0-13.0-2.16","a","16","Images/rooster_2.png","65","1","1581883275606","match","rooster","rooster","label","test","true"
"null","","audio-keyboard-response","119","3719266","0.0-13.0-3.16","a","16","Sounds/correct.wav","null","1","","","","","","",""
"null","","audio-keyboard-response","120","3720155","0.0-13.0-0.17","a","16","Sounds/frog_label.wav","null","1","","","","","","",""
"null","","html-keyboard-response","121","3721149","0.0-13.0-1.17","a","16","<p style=""font-size: 48px;"">+</p>","null","1","","","","","","",""
"961.0400000000373","","image-keyboard-response","122","3722111","0.0-13.0-2.17","a","16","Images/cow_orig.png","76","1","1581883280106","non-match","cow","frog","label","test","true"
"null","","audio-keyboard-response","123","3724126","0.0-13.0-3.17","a","16","Sounds/correct.wav","null","1","","","","","","",""
"null","","audio-keyboard-response","124","3724815","0.0-13.0-0.18","a","16","Sounds/whistle_sound.wav","null","1","","","","","","",""
"null","","html-keyboard-response","125","3725833","0.0-13.0-1.18","a","16","<p style=""font-size: 48px;"">+</p>","null","1","","","","","","",""
"453.3300000000745","","image-keyboard-response","126","3726287","0.0-13.0-2.18","a","16","Images/dog_orig.png","76","1","1581883284790","non-match","dog","whistle","sound","test","true"
"null","","audio-keyboard-response","127","3728304","0.0-13.0-3.18","a","16","Sounds/correct.wav","null","1","","","","","","",""
"null","","audio-keyboard-response","128","3728995","0.0-13.0-0.19","a","16","Sounds/rooster_sound.wav","null","1","","","","","","",""
"null","","html-keyboard-response","129","3730000","0.0-13.0-1.19","a","16","<p style=""font-size: 48px;"">+</p>","null","1","","","","","","",""
"798.2050000000745","","image-keyboard-response","130","3730801","0.0-13.0-2.19","a","16","Images/whistle_orig.png","65","1","1581883288957","non-match","whistle","rooster","sound","test","false"
"null","","audio-keyboard-response","131","3732805","0.0-13.0-3.19","a","16","Sounds/incorrect.wav","null","1","","","","","","",""
"null","","audio-keyboard-response","132","3733495","0.0-13.0-0.20","a","16","Sounds/whistle_label.wav","null","1","","","","","","",""
"null","","html-keyboard-response","133","3734500","0.0-13.0-1.20","a","16","<p style=""font-size: 48px;"">+</p>","null","1","","","","","","",""
"738.6800000001676","","image-keyboard-response","134","3735240","0.0-13.0-2.20","a","16","Images/whistle_2.png","76","1","1581883293457","match","whistle","whistle","label","test","false"
"null","","audio-keyboard-response","135","3737257","0.0-13.0-3.20","a","16","Sounds/incorrect.wav","null","1","","","","","","",""
"null","","audio-keyboard-response","136","3738335","0.0-13.0-0.21","a","16","Sounds/car_sound.wav","null","1","","","","","","",""
"null","","html-keyboard-response","137","3739333","0.0-13.0-1.21","a","16","<p style=""font-size: 48px;"">+</p>","null","1","","","","","","",""
"2001.1899999999441","","image-keyboard-response","138","3741335","0.0-13.0-2.21","a","16","Images/car_cartoon.png","65","1","1581883298290","match","car","car","sound","test","true"
"null","","audio-keyboard-response","139","3743342","0.0-13.0-3.21","a","16","Sounds/correct.wav","null","1","","","","","","",""
"null","","audio-keyboard-response","140","3744235","0.0-13.0-0.22","a","16","Sounds/frog_label.wav","null","1","","","","","","",""
"null","","html-keyboard-response","141","3745233","0.0-13.0-1.22","a","16","<p style=""font-size: 48px;"">+</p>","null","1","","","","","","",""
"845.4799999999814","","image-keyboard-response","142","3746080","0.0-13.0-2.22","a","16","Images/frog_orig.png","65","1","1581883304190","match","frog","frog","label","test","true"
"null","","audio-keyboard-response","143","3748088","0.0-13.0-3.22","a","16","Sounds/correct.wav","null","1","","","","","","",""
"null","","audio-keyboard-response","144","3748735","0.0-13.0-0.23","a","16","Sounds/dog_label.wav","null","1","","","","","","",""
"null","","html-keyboard-response","145","3749733","0.0-13.0-1.23","a","16","<p style=""font-size: 48px;"">+</p>","null","1","","","","","","",""
"713.3100000000559","","image-keyboard-response","146","3750447","0.0-13.0-2.23","a","16","Images/car_1.png","76","1","1581883308690","non-match","car","dog","label","test","true"
"null","","audio-keyboard-response","147","3752455","0.0-13.0-3.23","a","16","Sounds/correct.wav","null","1","","","","","","",""
"null","","audio-keyboard-response","148","3753755","0.0-13.0-0.24","a","16","Sounds/train_sound.wav","null","1","","","","","","",""
"null","","html-keyboard-response","149","3754750","0.0-13.0-1.24","a","16","<p style=""font-size: 48px;"">+</p>","null","1","","","","","","",""
"1008.4450000007637","","image-keyboard-response","150","3755759","0.0-13.0-2.24","a","16","Images/dog_3.png","76","1","1581883313707","non-match","dog","train","sound","test","true"
"null","","audio-keyboard-response","151","3757770","0.0-13.0-3.24","a","16","Sounds/correct.wav","null","1","","","","","","",""
"null","","audio-keyboard-response","152","3758895","0.0-13.0-0.25","a","16","Sounds/motorcycle_sound.wav","null","1","","","","","","",""
"null","","html-keyboard-response","153","3759900","0.0-13.0-1.25","a","16","<p style=""font-size: 48px;"">+</p>","null","1","","","","","","",""
"530.5750000001863","","image-keyboard-response","154","3760432","0.0-13.0-2.25","a","16","Images/dog_1.png","76","1","1581883318857","non-match","dog","motorcycle","sound","test","true"
"null","","audio-keyboard-response","155","3762441","0.0-13.0-3.25","a","16","Sounds/correct.wav","null","1","","","","","","",""
"null","","audio-keyboard-response","156","3763276","0.0-13.0-0.26","a","16","Sounds/cat_sound.wav","null","1","","","","","","",""
"null","","html-keyboard-response","157","3764267","0.0-13.0-1.26","a","16","<p style=""font-size: 48px;"">+</p>","null","1","","","","","","",""
"475.625","","image-keyboard-response","158","3764744","0.0-13.0-2.26","a","16","Images/cat_3.png","65","1","1581883323224","match","cat","cat","sound","test","true"
"null","","audio-keyboard-response","159","3766754","0.0-13.0-3.26","a","16","Sounds/correct.wav","null","1","","","","","","",""
"null","","audio-keyboard-response","160","3767396","0.0-13.0-0.27","a","16","Sounds/dog_label.wav","null","1","","","","","","",""
"null","","html-keyboard-response","161","3768384","0.0-13.0-1.27","a","16","<p style=""font-size: 48px;"">+</p>","null","1","","","","","","",""
"494.9000000008382","","image-keyboard-response","162","3768880","0.0-13.0-2.27","a","16","Images/rooster_cartoon.png","76","1","1581883327341","non-match","rooster","dog","label","test","true"
"null","","audio-keyboard-response","163","3770891","0.0-13.0-3.27","a","16","Sounds/correct.wav","null","1","","","","","","",""
"null","","audio-keyboard-response","164","3771596","0.0-13.0-0.28","a","16","Sounds/rooster_sound.wav","null","1","","","","","","",""
"null","","html-keyboard-response","165","3772584","0.0-13.0-1.28","a","16","<p style=""font-size: 48px;"">+</p>","null","1","","","","","","",""
"775.1650000000373","","image-keyboard-response","166","3773360","0.0-13.0-2.28","a","16","Images/rooster_cartoon.png","65","1","1581883331542","match","rooster","rooster","sound","test","true"
"null","","audio-keyboard-response","167","3775371","0.0-13.0-3.28","a","16","Sounds/correct.wav","null","1","","","","","","",""
"null","","audio-keyboard-response","168","3776216","0.0-13.0-0.29","a","16","Sounds/cat_label.wav","null","1","","","","","","",""
"null","","html-keyboard-response","169","3777234","0.0-13.0-1.29","a","16","<p style=""font-size: 48px;"">+</p>","null","1","","","","","","",""
"940.6350000002421","","image-keyboard-response","170","3778176","0.0-13.0-2.29","a","16","Images/cow_1.png","76","1","1581883336191","non-match","cow","cat","label","test","true"
"null","","audio-keyboard-response","171","3780188","0.0-13.0-3.29","a","16","Sounds/correct.wav","null","1","","","","","","",""
"null","","audio-keyboard-response","172","3780776","0.0-13.0-0.30","a","16","Sounds/gun_sound.wav","null","1","","","","","","",""
"null","","html-keyboard-response","173","3781768","0.0-13.0-1.30","a","16","<p style=""font-size: 48px;"">+</p>","null","1","","","","","","",""
"1055.6049999995157","","image-keyboard-response","174","3782824","0.0-13.0-2.30","a","16","Images/gun_2.png","65","1","1581883340725","match","gun","gun","sound","test","true"
"null","","audio-keyboard-response","175","3784838","0.0-13.0-3.30","a","16","Sounds/correct.wav","null","1","","","","","","",""
"null","","audio-keyboard-response","176","3785396","0.0-13.0-0.31","a","16","Sounds/gun_sound.wav","null","1","","","","","","",""
"null","","html-keyboard-response","177","3786384","0.0-13.0-1.31","a","16","<p style=""font-size: 48px;"">+</p>","null","1","","","","","","",""
"598.8750000004657","","image-keyboard-response","178","3786984","0.0-13.0-2.31","a","16","Images/gun_orig.png","65","1","1581883345342","match","gun","gun","sound","test","true"
"null","","audio-keyboard-response","179","3788991","0.0-13.0-3.31","a","16","Sounds/correct.wav","null","1","","","","","","",""
"null","","audio-keyboard-response","180","3790017","0.0-13.0-0.32","a","16","Sounds/cow_sound.wav","null","1","","","","","","",""
"null","","html-keyboard-response","181","3791018","0.0-13.0-1.32","a","16","<p style=""font-size: 48px;"">+</p>","null","1","","","","","","",""
"677.3500000000931","","image-keyboard-response","182","3791696","0.0-13.0-2.32","a","16","Images/motorcycle_3.png","76","1","1581883349975","non-match","motorcycle","cow","sound","test","true"
"null","","audio-keyboard-response","183","3793706","0.0-13.0-3.32","a","16","Sounds/correct.wav","null","1","","","","","","",""
"null","","audio-keyboard-response","184","3794836","0.0-13.0-0.33","a","16","Sounds/motorcycle_label.wav","null","1","","","","","","",""
"null","","html-keyboard-response","185","3795834","0.0-13.0-1.33","a","16","<p style=""font-size: 48px;"">+</p>","null","1","","","","","","",""
"476.70000000018626","","image-keyboard-response","186","3796312","0.0-13.0-2.33","a","16","Images/motorcycle_orig.png","65","1","1581883354792","match","motorcycle","motorcycle","label","test","true"
"null","","audio-keyboard-response","187","3798321","0.0-13.0-3.33","a","16","Sounds/correct.wav","null","1","","","","","","",""
"null","","audio-keyboard-response","188","3799016","0.0-13.0-0.34","a","16","Sounds/rooster_label.wav","null","1","","","","","","",""
"null","","html-keyboard-response","189","3800018","0.0-13.0-1.34","a","16","<p style=""font-size: 48px;"">+</p>","null","1","","","","","","",""
"573.6599999996834","","image-keyboard-response","190","3800592","0.0-13.0-2.34","a","16","Images/frog_orig.png","76","1","1581883358975","non-match","frog","rooster","label","test","true"
"null","","audio-keyboard-response","191","3802608","0.0-13.0-3.34","a","16","Sounds/correct.wav","null","1","","","","","","",""
"null","","audio-keyboard-response","192","3803716","0.0-13.0-0.35","a","16","Sounds/motorcycle_label.wav","null","1","","","","","","",""
"null","","html-keyboard-response","193","3804718","0.0-13.0-1.35","a","16","<p style=""font-size: 48px;"">+</p>","null","1","","","","","","",""
"841.3649999992922","","image-keyboard-response","194","3805560","0.0-13.0-2.35","a","16","Images/motorcycle_2.png","65","1","1581883363675","match","motorcycle","motorcycle","label","test","true"
"null","","audio-keyboard-response","195","3807572","0.0-13.0-3.35","a","16","Sounds/correct.wav","null","1","","","","","","",""
"null","","audio-keyboard-response","196","3808696","0.0-13.0-0.36","a","16","Sounds/motorcycle_sound.wav","null","1","","","","","","",""
"null","","html-keyboard-response","197","3809701","0.0-13.0-1.36","a","16","<p style=""font-size: 48px;"">+</p>","null","1","","","","","","",""
"697.6150000002235","","image-keyboard-response","198","3810400","0.0-13.0-2.36","a","16","Images/motorcycle_cartoon.png","65","1","1581883368658","match","motorcycle","motorcycle","sound","test","true"
"null","","audio-keyboard-response","199","3812407","0.0-13.0-3.36","a","16","Sounds/correct.wav","null","1","","","","","","",""
"null","","audio-keyboard-response","200","3813476","0.0-13.0-0.37","a","16","Sounds/car_sound.wav","null","1","","","","","","",""
"null","","html-keyboard-response","201","3814468","0.0-13.0-1.37","a","16","<p style=""font-size: 48px;"">+</p>","null","1","","","","","","",""
"507.31999999983236","","image-keyboard-response","202","3814976","0.0-13.0-2.37","a","16","Images/car_2.png","65","1","1581883373425","match","car","car","sound","test","true"
"null","","audio-keyboard-response","203","3816988","0.0-13.0-3.37","a","16","Sounds/correct.wav","null","1","","","","","","",""
"null","","audio-keyboard-response","204","3817696","0.0-13.0-0.38","a","16","Sounds/whistle_sound.wav","null","1","","","","","","",""
"null","","html-keyboard-response","205","3818702","0.0-13.0-1.38","a","16","<p style=""font-size: 48px;"">+</p>","null","1","","","","","","",""
"753.6049999999814","","image-keyboard-response","206","3819456","0.0-13.0-2.38","a","16","Images/car_3.png","76","1","1581883377658","non-match","car","whistle","sound","test","true"
"null","","audio-keyboard-response","207","3821472","0.0-13.0-3.38","a","16","Sounds/correct.wav","null","1","","","","","","",""
"null","","audio-keyboard-response","208","3822376","0.0-13.0-0.39","a","16","Sounds/frog_label.wav","null","1","","","","","","",""
"null","","html-keyboard-response","209","3823369","0.0-13.0-1.39","a","16","<p style=""font-size: 48px;"">+</p>","null","1","","","","","","",""
"751.0500000002794","","image-keyboard-response","210","3824121","0.0-13.0-2.39","a","16","Images/frog_1.png","65","1","1581883382326","match","frog","frog","label","test","true"
"null","","audio-keyboard-response","211","3826124","0.0-13.0-3.39","a","16","Sounds/correct.wav","null","1","","","","","","",""
"null","","audio-keyboard-response","212","3827177","0.0-13.0-0.40","a","16","Sounds/car_sound.wav","null","1","","","","","","",""
"null","","html-keyboard-response","213","3828169","0.0-13.0-1.40","a","16","<p style=""font-size: 48px;"">+</p>","null","1","","","","","","",""
"543.3799999998882","","image-keyboard-response","214","3828713","0.0-13.0-2.40","a","16","Images/frog_3.png","76","1","1581883387126","non-match","frog","car","sound","test","true"
"null","","audio-keyboard-response","215","3830722","0.0-13.0-3.40","a","16","Sounds/correct.wav","null","1","","","","","","",""
"null","","audio-keyboard-response","216","3831397","0.0-13.0-0.41","a","16","Sounds/whistle_sound.wav","null","1","","","","","","",""
"null","","html-keyboard-response","217","3832386","0.0-13.0-1.41","a","16","<p style=""font-size: 48px;"">+</p>","null","1","","","","","","",""
"838.3199999998324","","image-keyboard-response","218","3833225","0.0-13.0-2.41","a","16","Images/whistle_cartoon.png","65","1","1581883391343","match","whistle","whistle","sound","test","true"
"null","","audio-keyboard-response","219","3835240","0.0-13.0-3.41","a","16","Sounds/correct.wav","null","1","","","","","","",""
"null","","audio-keyboard-response","220","3835817","0.0-13.0-0.42","a","16","Sounds/gun_label.wav","null","1","","","","","","",""
"null","","html-keyboard-response","221","3836819","0.0-13.0-1.42","a","16","<p style=""font-size: 48px;"">+</p>","null","1","","","","","","",""
"948.9149999995716","","image-keyboard-response","222","3837769","0.0-13.0-2.42","a","16","Images/gun_1.png","65","1","1581883395776","match","gun","gun","label","test","true"
"null","","audio-keyboard-response","223","3839775","0.0-13.0-3.42","a","16","Sounds/correct.wav","null","1","","","","","","",""
"null","","audio-keyboard-response","224","3840677","0.0-13.0-0.43","a","16","Sounds/frog_sound.wav","null","1","","","","","","",""
"null","","html-keyboard-response","225","3841669","0.0-13.0-1.43","a","16","<p style=""font-size: 48px;"">+</p>","null","1","","","","","","",""
"915.0749999997206","","image-keyboard-response","226","3842585","0.0-13.0-2.43","a","16","Images/car_cartoon.png","76","1","1581883400627","non-match","car","frog","sound","test","true"
"null","","audio-keyboard-response","227","3844591","0.0-13.0-3.43","a","16","Sounds/correct.wav","null","1","","","","","","",""
"null","","audio-keyboard-response","228","3845477","0.0-13.0-0.44","a","16","Sounds/frog_label.wav","null","1","","","","","","",""
"null","","html-keyboard-response","229","3846469","0.0-13.0-1.44","a","16","<p style=""font-size: 48px;"">+</p>","null","1","","","","","","",""
"666.8949999990873","","image-keyboard-response","230","3847137","0.0-13.0-2.44","a","16","Images/frog_2.png","65","1","1581883405426","match","frog","frog","label","test","true"
"null","","audio-keyboard-response","231","3849142","0.0-13.0-3.44","a","16","Sounds/correct.wav","null","1","","","","","","",""
"null","","audio-keyboard-response","232","3849837","0.0-13.0-0.45","a","16","Sounds/rooster_label.wav","null","1","","","","","","",""
"null","","html-keyboard-response","233","3850836","0.0-13.0-1.45","a","16","<p style=""font-size: 48px;"">+</p>","null","1","","","","","","",""
"580.1549999997951","","image-keyboard-response","234","3851417","0.0-13.0-2.45","a","16","Images/dog_cartoon.png","76","1","1581883409793","non-match","dog","rooster","label","test","true"
"null","","audio-keyboard-response","235","3853424","0.0-13.0-3.45","a","16","Sounds/correct.wav","null","1","","","","","","",""
"null","","audio-keyboard-response","236","3854497","0.0-13.0-0.46","a","16","Sounds/car_label.wav","null","1","","","","","","",""
"null","","html-keyboard-response","237","3855504","0.0-13.0-1.46","a","16","<p style=""font-size: 48px;"">+</p>","null","1","","","","","","",""
"504.05000000074506","","image-keyboard-response","238","3856009","0.0-13.0-2.46","a","16","Images/car_1.png","65","1","1581883414460","match","car","car","label","test","true"
"null","","audio-keyboard-response","239","3858024","0.0-13.0-3.46","a","16","Sounds/correct.wav","null","1","","","","","","",""
"null","","audio-keyboard-response","240","3858597","0.0-13.0-0.47","a","16","Sounds/gun_label.wav","null","1","","","","","","",""
"null","","html-keyboard-response","241","3859586","0.0-13.0-1.47","a","16","<p style=""font-size: 48px;"">+</p>","null","1","","","","","","",""
"622.0250000003725","","image-keyboard-response","242","3860209","0.0-13.0-2.47","a","16","Images/gun_3.png","65","1","1581883418543","match","gun","gun","label","test","true"
"null","","audio-keyboard-response","243","3862224","0.0-13.0-3.47","a","16","Sounds/correct.wav","null","1","","","","","","",""
"null","","audio-keyboard-response","244","3863337","0.0-13.0-0.48","a","16","Sounds/motorcycle_sound.wav","null","1","","","","","","",""
"null","","html-keyboard-response","245","3864336","0.0-13.0-1.48","a","16","<p style=""font-size: 48px;"">+</p>","null","1","","","","","","",""
"855.8500000000931","","image-keyboard-response","246","3865193","0.0-13.0-2.48","a","16","Images/train_3.png","76","1","1581883423293","non-match","train","motorcycle","sound","test","true"
"null","","audio-keyboard-response","247","3867207","0.0-13.0-3.48","a","16","Sounds/correct.wav","null","1","","","","","","",""
"null","","audio-keyboard-response","248","3867897","0.0-13.0-0.49","a","16","Sounds/whistle_label.wav","null","1","","","","","","",""
"null","","html-keyboard-response","249","3868886","0.0-13.0-1.49","a","16","<p style=""font-size: 48px;"">+</p>","null","1","","","","","","",""
"425.9600000004284","","image-keyboard-response","250","3869313","0.0-13.0-2.49","a","16","Images/whistle_1.png","65","1","1581883427843","match","whistle","whistle","label","test","true"
"null","","audio-keyboard-response","251","3871322","0.0-13.0-3.49","a","16","Sounds/correct.wav","null","1","","","","","","",""
"null","","audio-keyboard-response","252","3872157","0.0-13.0-0.50","a","16","Sounds/cat_sound.wav","null","1","","","","","","",""
"null","","html-keyboard-response","253","3873153","0.0-13.0-1.50","a","16","<p style=""font-size: 48px;"">+</p>","null","1","","","","","","",""
"583.1550000002608","","image-keyboard-response","254","3873737","0.0-13.0-2.50","a","16","Images/cat_2.png","65","1","1581883432110","match","cat","cat","sound","test","true"
"null","","audio-keyboard-response","255","3875744","0.0-13.0-3.50","a","16","Sounds/correct.wav","null","1","","","","","","",""
"null","","audio-keyboard-response","256","3876317","0.0-13.0-0.51","a","16","Sounds/gun_label.wav","null","1","","","","","","",""
"null","","html-keyboard-response","257","3877320","0.0-13.0-1.51","a","16","<p style=""font-size: 48px;"">+</p>","null","1","","","","","","",""
"808.6199999996461","","image-keyboard-response","258","3878129","0.0-13.0-2.51","a","16","Images/cat_2.png","76","1","1581883436277","non-match","cat","gun","label","test","true"
"null","","audio-keyboard-response","259","3880139","0.0-13.0-3.51","a","16","Sounds/correct.wav","null","1","","","","","","",""
"null","","audio-keyboard-response","260","3881217","0.0-13.0-0.52","a","16","Sounds/car_sound.wav","null","1","","","","","","",""
"null","","html-keyboard-response","261","3882220","0.0-13.0-1.52","a","16","<p style=""font-size: 48px;"">+</p>","null","1","","","","","","",""
"572.3649999997579","","image-keyboard-response","262","3882793","0.0-13.0-2.52","a","16","Images/cow_cartoon.png","76","1","1581883441177","non-match","cow","car","sound","test","true"
"null","","audio-keyboard-response","263","3884807","0.0-13.0-3.52","a","16","Sounds/correct.wav","null","1","","","","","","",""
"null","","audio-keyboard-response","264","3885498","0.0-13.0-0.53","a","16","Sounds/whistle_label.wav","null","1","","","","","","",""
"null","","html-keyboard-response","265","3886504","0.0-13.0-1.53","a","16","<p style=""font-size: 48px;"">+</p>","null","1","","","","","","",""
"448.9399999999441","","image-keyboard-response","266","3886954","0.0-13.0-2.53","a","16","Images/whistle_orig.png","65","1","1581883445461","match","whistle","whistle","label","test","true"
"null","","audio-keyboard-response","267","3888959","0.0-13.0-3.53","a","16","Sounds/correct.wav","null","1","","","","","","",""
"null","","audio-keyboard-response","268","3890258","0.0-13.0-0.54","a","16","Sounds/train_sound.wav","null","1","","","","","","",""
"null","","html-keyboard-response","269","3891254","0.0-13.0-1.54","a","16","<p style=""font-size: 48px;"">+</p>","null","1","","","","","","",""
"859.0599999995902","","image-keyboard-response","270","3892114","0.0-13.0-2.54","a","16","Images/train_orig.png","65","1","1581883450211","match","train","train","sound","test","true"
"null","","audio-keyboard-response","271","3894127","0.0-13.0-3.54","a","16","Sounds/correct.wav","null","1","","","","","","",""
"null","","audio-keyboard-response","272","3894798","0.0-13.0-0.55","a","16","Sounds/whistle_label.wav","null","1","","","","","","",""
"null","","html-keyboard-response","273","3895787","0.0-13.0-1.55","a","16","<p style=""font-size: 48px;"">+</p>","null","1","","","","","","",""
"541.7999999998137","","image-keyboard-response","274","3896330","0.0-13.0-2.55","a","16","Images/motorcycle_1.png","76","1","1581883454744","non-match","motorcycle","whistle","label","test","true"
"null","","audio-keyboard-response","275","3898341","0.0-13.0-3.55","a","16","Sounds/correct.wav","null","1","","","","","","",""
"null","","audio-keyboard-response","276","3899178","0.0-13.0-0.56","a","16","Sounds/cat_sound.wav","null","1","","","","","","",""
"null","","html-keyboard-response","277","3900171","0.0-13.0-1.56","a","16","<p style=""font-size: 48px;"">+</p>","null","1","","","","","","",""
"662.4150000000373","","image-keyboard-response","278","3900834","0.0-13.0-2.56","a","16","Images/motorcycle_2.png","76","1","1581883459128","non-match","motorcycle","cat","sound","test","true"
"null","","audio-keyboard-response","279","3902842","0.0-13.0-3.56","a","16","Sounds/correct.wav","null","1","","","","","","",""
"null","","audio-keyboard-response","280","3903858","0.0-13.0-0.57","a","16","Sounds/cow_sound.wav","null","1","","","","","","",""
"null","","html-keyboard-response","281","3904854","0.0-13.0-1.57","a","16","<p style=""font-size: 48px;"">+</p>","null","1","","","","","","",""
"851.0750000006519","","image-keyboard-response","282","3905706","0.0-13.0-2.57","a","16","Images/cow_2.png","65","1","1581883463811","match","cow","cow","sound","test","true"
"null","","audio-keyboard-response","283","3907709","0.0-13.0-3.57","a","16","Sounds/correct.wav","null","1","","","","","","",""
"null","","audio-keyboard-response","284","3908698","0.0-13.0-0.58","a","16","Sounds/cow_sound.wav","null","1","","","","","","",""
"null","","html-keyboard-response","285","3909687","0.0-13.0-1.58","a","16","<p style=""font-size: 48px;"">+</p>","null","1","","","","","","",""
"449.7349999998696","","image-keyboard-response","286","3910138","0.0-13.0-2.58","a","16","Images/car_2.png","76","1","1581883468644","non-match","car","cow","sound","test","true"
"null","","audio-keyboard-response","287","3912144","0.0-13.0-3.58","a","16","Sounds/correct.wav","null","1","","","","","","",""
"null","","audio-keyboard-response","288","3913418","0.0-13.0-0.59","a","16","Sounds/train_label.wav","null","1","","","","","","",""
"null","","html-keyboard-response","289","3914421","0.0-13.0-1.59","a","16","<p style=""font-size: 48px;"">+</p>","null","1","","","","","","",""
"524.2200000002049","","image-keyboard-response","290","3914946","0.0-13.0-2.59","a","16","Images/cat_cartoon.png","76","1","1581883473378","non-match","cat","train","label","test","true"
"null","","audio-keyboard-response","291","3916958","0.0-13.0-3.59","a","16","Sounds/correct.wav","null","1","","","","","","",""
"null","","audio-keyboard-response","292","3917538","0.0-13.0-0.60","a","16","Sounds/gun_sound.wav","null","1","","","","","","",""
"null","","html-keyboard-response","293","3918537","0.0-13.0-1.60","a","16","<p style=""font-size: 48px;"">+</p>","null","1","","","","","","",""
"535.3400000003166","","image-keyboard-response","294","3919074","0.0-13.0-2.60","a","16","Images/whistle_1.png","76","1","1581883477495","non-match","whistle","gun","sound","test","true"
"null","","audio-keyboard-response","295","3921078","0.0-13.0-3.60","a","16","Sounds/correct.wav","null","1","","","","","","",""
"null","","audio-keyboard-response","296","3922158","0.0-13.0-0.61","a","16","Sounds/car_sound.wav","null","1","","","","","","",""
"null","","html-keyboard-response","297","3923154","0.0-13.0-1.61","a","16","<p style=""font-size: 48px;"">+</p>","null","1","","","","","","",""
"550.6450000004843","","image-keyboard-response","298","3923706","0.0-13.0-2.61","a","16","Images/car_3.png","65","1","1581883482111","match","car","car","sound","test","true"
"null","","audio-keyboard-response","299","3925709","0.0-13.0-3.61","a","16","Sounds/correct.wav","null","1","","","","","","",""
"null","","audio-keyboard-response","300","3926558","0.0-13.0-0.62","a","16","Sounds/cat_sound.wav","null","1","","","","","","",""
"null","","html-keyboard-response","301","3927554","0.0-13.0-1.62","a","16","<p style=""font-size: 48px;"">+</p>","null","1","","","","","","",""
"630.6350000007078","","image-keyboard-response","302","3928186","0.0-13.0-2.62","a","16","Images/dog_2.png","76","1","1581883486511","non-match","dog","cat","sound","test","true"
"null","","audio-keyboard-response","303","3930195","0.0-13.0-3.62","a","16","Sounds/correct.wav","null","1","","","","","","",""
"null","","audio-keyboard-response","304","3930858","0.0-13.0-0.63","a","16","Sounds/dog_label.wav","null","1","","","","","","",""
"null","","html-keyboard-response","305","3931854","0.0-13.0-1.63","a","16","<p style=""font-size: 48px;"">+</p>","null","1","","","","","","",""
"1138.570000000298","","image-keyboard-response","306","3932994","0.0-13.0-2.63","a","16","Images/dog_cartoon.png","65","1","1581883490811","match","dog","dog","label","test","true"
"null","","audio-keyboard-response","307","3935009","0.0-13.0-3.63","a","16","Sounds/correct.wav","null","1","","","","","","",""
"null","","audio-keyboard-response","308","3935698","0.0-13.0-0.64","a","16","Sounds/whistle_label.wav","null","1","","","","","","",""
"null","","html-keyboard-response","309","3936688","0.0-13.0-1.64","a","16","<p style=""font-size: 48px;"">+</p>","null","1","","","","","","",""
"569.3549999995157","","image-keyboard-response","310","3937258","0.0-13.0-2.64","a","16","Images/frog_2.png","76","1","1581883495645","non-match","frog","whistle","label","test","true"
"null","","audio-keyboard-response","311","3939261","0.0-13.0-3.64","a","16","Sounds/correct.wav","null","1","","","","","","",""
"null","","audio-keyboard-response","312","3940278","0.0-13.0-0.65","a","16","Sounds/cow_sound.wav","null","1","","","","","","",""
"null","","html-keyboard-response","313","3941271","0.0-13.0-1.65","a","16","<p style=""font-size: 48px;"">+</p>","null","1","","","","","","",""
"913.75","","image-keyboard-response","314","3942186","0.0-13.0-2.65","a","16","Images/cow_3.png","65","1","1581883500228","match","cow","cow","sound","test","true"
"null","","audio-keyboard-response","315","3944195","0.0-13.0-3.65","a","16","Sounds/correct.wav","null","1","","","","","","",""
"null","","audio-keyboard-response","316","3945038","0.0-13.0-0.66","a","16","Sounds/cat_label.wav","null","1","","","","","","",""
"null","","html-keyboard-response","317","3946038","0.0-13.0-1.66","a","16","<p style=""font-size: 48px;"">+</p>","null","1","","","","","","",""
"603.1499999999069","","image-keyboard-response","318","3946643","0.0-13.0-2.66","a","16","Images/cat_1.png","65","1","1581883504995","match","cat","cat","label","test","true"
"null","","audio-keyboard-response","319","3948645","0.0-13.0-3.66","a","16","Sounds/correct.wav","null","1","","","","","","",""
"null","","audio-keyboard-response","320","3949758","0.0-13.0-0.67","a","16","Sounds/motorcycle_sound.wav","null","1","","","","","","",""
"null","","html-keyboard-response","321","3950755","0.0-13.0-1.67","a","16","<p style=""font-size: 48px;"">+</p>","null","1","","","","","","",""
"878.75","","image-keyboard-response","322","3951635","0.0-13.0-2.67","a","16","Images/motorcycle_3.png","65","1","1581883509712","match","motorcycle","motorcycle","sound","test","true"
"null","","audio-keyboard-response","323","3953645","0.0-13.0-3.67","a","16","Sounds/correct.wav","null","1","","","","","","",""
"null","","audio-keyboard-response","324","3954358","0.0-13.0-0.68","a","16","Sounds/dog_sound.wav","null","1","","","","","","",""
"null","","html-keyboard-response","325","3955355","0.0-13.0-1.68","a","16","<p style=""font-size: 48px;"">+</p>","null","1","","","","","","",""
"502.26999999955297","","image-keyboard-response","326","3955859","0.0-13.0-2.68","a","16","Images/frog_1.png","76","1","1581883514312","non-match","frog","dog","sound","test","true"
"null","","audio-keyboard-response","327","3957862","0.0-13.0-3.68","a","16","Sounds/correct.wav","null","1","","","","","","",""
"null","","audio-keyboard-response","328","3958938","0.0-13.0-0.69","a","16","Sounds/car_label.wav","null","1","","","","","","",""
"null","","html-keyboard-response","329","3959939","0.0-13.0-1.69","a","16","<p style=""font-size: 48px;"">+</p>","null","1","","","","","","",""
"623.0049999994226","","image-keyboard-response","330","3960563","0.0-13.0-2.69","a","16","Images/train_2.png","76","1","1581883518896","non-match","train","car","label","test","true"
"null","","audio-keyboard-response","331","3962576","0.0-13.0-3.69","a","16","Sounds/correct.wav","null","1","","","","","","",""
"null","","audio-keyboard-response","332","3963278","0.0-13.0-0.70","a","16","Sounds/rooster_label.wav","null","1","","","","","","",""
"null","","html-keyboard-response","333","3964272","0.0-13.0-1.70","a","16","<p style=""font-size: 48px;"">+</p>","null","1","","","","","","",""
"713.9049999993294","","image-keyboard-response","334","3964987","0.0-13.0-2.70","a","16","Images/car_orig.png","76","1","1581883523229","non-match","car","rooster","label","test","true"
"null","","audio-keyboard-response","335","3966994","0.0-13.0-3.70","a","16","Sounds/correct.wav","null","1","","","","","","",""
"null","","audio-keyboard-response","336","3968298","0.0-13.0-0.71","a","16","Sounds/train_sound.wav","null","1","","","","","","",""
"null","","html-keyboard-response","337","3969289","0.0-13.0-1.71","a","16","<p style=""font-size: 48px;"">+</p>","null","1","","","","","","",""
"864.8850000011735","","image-keyboard-response","338","3970155","0.0-13.0-2.71","a","16","Images/rooster_2.png","76","1","1581883528246","non-match","rooster","train","sound","test","true"
"null","","audio-keyboard-response","339","3972161","0.0-13.0-3.71","a","16","Sounds/correct.wav","null","1","","","","","","",""
"null","","audio-keyboard-response","340","3973298","0.0-13.0-0.72","a","16","Sounds/motorcycle_label.wav","null","1","","","","","","",""
"null","","html-keyboard-response","341","3974289","0.0-13.0-1.72","a","16","<p style=""font-size: 48px;"">+</p>","null","1","","","","","","",""
"649.0200000000186","","image-keyboard-response","342","3974939","0.0-13.0-2.72","a","16","Images/cat_orig.png","76","1","1581883533246","non-match","cat","motorcycle","label","test","true"
"null","","audio-keyboard-response","343","3976944","0.0-13.0-3.72","a","16","Sounds/correct.wav","null","1","","","","","","",""
"null","","audio-keyboard-response","344","3977618","0.0-13.0-0.73","a","16","Sounds/rooster_label.wav","null","1","","","","","","",""
"null","","html-keyboard-response","345","3978622","0.0-13.0-1.73","a","16","<p style=""font-size: 48px;"">+</p>","null","1","","","","","","",""
"547.4049999993294","","image-keyboard-response","346","3979171","0.0-13.0-2.73","a","16","Images/rooster_1.png","65","1","1581883537579","match","rooster","rooster","label","test","true"
"null","","audio-keyboard-response","347","3981181","0.0-13.0-3.73","a","16","Sounds/correct.wav","null","1","","","","","","",""
"null","","audio-keyboard-response","348","3982198","0.0-13.0-0.74","a","16","Sounds/cow_sound.wav","null","1","","","","","","",""
"null","","html-keyboard-response","349","3983189","0.0-13.0-1.74","a","16","<p style=""font-size: 48px;"">+</p>","null","1","","","","","","",""
"916.6450000004843","","image-keyboard-response","350","3984106","0.0-13.0-2.74","a","16","Images/cow_orig.png","65","1","1581883542146","match","cow","cow","sound","test","true"
"null","","audio-keyboard-response","351","3986111","0.0-13.0-3.74","a","16","Sounds/correct.wav","null","1","","","","","","",""
"null","","audio-keyboard-response","352","3987138","0.0-13.0-0.75","a","16","Sounds/cow_label.wav","null","1","","","","","","",""
"null","","html-keyboard-response","353","3988139","0.0-13.0-1.75","a","16","<p style=""font-size: 48px;"">+</p>","null","1","","","","","","",""
"533.6800000006333","","image-keyboard-response","354","3988675","0.0-13.0-2.75","a","16","Images/cow_cartoon.png","65","1","1581883547096","match","cow","cow","label","test","true"
"null","","audio-keyboard-response","355","3990678","0.0-13.0-3.75","a","16","Sounds/correct.wav","null","1","","","","","","",""
"null","","audio-keyboard-response","356","3991338","0.0-13.0-0.76","a","16","Sounds/dog_label.wav","null","1","","","","","","",""
"null","","html-keyboard-response","357","3992339","0.0-13.0-1.76","a","16","<p style=""font-size: 48px;"">+</p>","null","1","","","","","","",""
"718.8800000003539","","image-keyboard-response","358","3993059","0.0-13.0-2.76","a","16","Images/cow_3.png","65","1","1581883551296","non-match","cow","dog","label","test","false"
"null","","audio-keyboard-response","359","3995063","0.0-13.0-3.76","a","16","Sounds/incorrect.wav","null","1","","","","","","",""
"null","","audio-keyboard-response","360","3996058","0.0-13.0-0.77","a","16","Sounds/cow_sound.wav","null","1","","","","","","",""
"null","","html-keyboard-response","361","3997056","0.0-13.0-1.77","a","16","<p style=""font-size: 48px;"">+</p>","null","1","","","","","","",""
"786.0149999996647","","image-keyboard-response","362","3997843","0.0-13.0-2.77","a","16","Images/gun_2.png","76","1","1581883556013","non-match","gun","cow","sound","test","true"
"null","","audio-keyboard-response","363","3999860","0.0-13.0-3.77","a","16","Sounds/correct.wav","null","1","","","","","","",""
"null","","audio-keyboard-response","364","4000698","0.0-13.0-0.78","a","16","Sounds/cat_label.wav","null","1","","","","","","",""
"null","","html-keyboard-response","365","4001689","0.0-13.0-1.78","a","16","<p style=""font-size: 48px;"">+</p>","null","1","","","","","","",""
"704.4850000003353","","image-keyboard-response","366","4002395","0.0-13.0-2.78","a","16","Images/cat_cartoon.png","65","1","1581883560646","match","cat","cat","label","test","true"
"null","","audio-keyboard-response","367","4004410","0.0-13.0-3.78","a","16","Sounds/correct.wav","null","1","","","","","","",""
"null","","audio-keyboard-response","368","4005397","0.0-13.0-0.79","a","16","Sounds/cow_sound.wav","null","1","","","","","","",""
"null","","html-keyboard-response","369","4006387","0.0-13.0-1.79","a","16","<p style=""font-size: 48px;"">+</p>","null","1","","","","","","",""
"1004.7599999997765","","image-keyboard-response","370","4007393","0.0-13.0-2.79","a","16","Images/cat_1.png","76","1","1581883565344","non-match","cat","cow","sound","test","true"
"null","","audio-keyboard-response","371","4009408","0.0-13.0-3.79","a","16","Sounds/correct.wav","null","1","","","","","","",""
"null","","audio-keyboard-response","372","4010397","0.0-13.0-0.80","a","16","Sounds/cow_sound.wav","null","1","","","","","","",""
"null","","html-keyboard-response","373","4011387","0.0-13.0-1.80","a","16","<p style=""font-size: 48px;"">+</p>","null","1","","","","","","",""
"620.3899999996647","","image-keyboard-response","374","4012009","0.0-13.0-2.80","a","16","Images/cow_1.png","65","1","1581883570344","match","cow","cow","sound","test","true"
"null","","audio-keyboard-response","375","4014024","0.0-13.0-3.80","a","16","Sounds/correct.wav","null","1","","","","","","",""
"null","","audio-keyboard-response","376","4014937","0.0-13.0-0.81","a","16","Sounds/frog_sound.wav","null","1","","","","","","",""
"null","","html-keyboard-response","377","4015954","0.0-13.0-1.81","a","16","<p style=""font-size: 48px;"">+</p>","null","1","","","","","","",""
"1053.6299999994226","","image-keyboard-response","378","4017009","0.0-13.0-2.81","a","16","Images/gun_orig.png","76","1","1581883574911","non-match","gun","frog","sound","test","true"
"null","","audio-keyboard-response","379","4019011","0.0-13.0-3.81","a","16","Sounds/correct.wav","null","1","","","","","","",""
"null","","audio-keyboard-response","380","4019856","0.0-13.0-0.82","a","16","Sounds/cat_sound.wav","null","1","","","","","","",""
"null","","html-keyboard-response","381","4020854","0.0-13.0-1.82","a","16","<p style=""font-size: 48px;"">+</p>","null","1","","","","","","",""
"610.0949999997392","","image-keyboard-response","382","4021465","0.0-13.0-2.82","a","16","Images/gun_1.png","76","1","1581883579811","non-match","gun","cat","sound","test","true"
"null","","audio-keyboard-response","383","4023474","0.0-13.0-3.82","a","16","Sounds/correct.wav","null","1","","","","","","",""
"null","","audio-keyboard-response","384","4024557","0.0-13.0-0.83","a","16","Sounds/car_sound.wav","null","1","","","","","","",""
"null","","html-keyboard-response","385","4025554","0.0-13.0-1.83","a","16","<p style=""font-size: 48px;"">+</p>","null","1","","","","","","",""
"516.2350000003353","","image-keyboard-response","386","4026073","0.0-13.0-2.83","a","16","Images/cat_3.png","76","1","1581883584511","non-match","cat","car","sound","test","true"
"null","","audio-keyboard-response","387","4028092","0.0-13.0-3.83","a","16","Sounds/correct.wav","null","1","","","","","","",""
"null","","audio-keyboard-response","388","4029396","0.0-13.0-0.84","a","16","Sounds/train_sound.wav","null","1","","","","","","",""
"null","","html-keyboard-response","389","4030387","0.0-13.0-1.84","a","16","<p style=""font-size: 48px;"">+</p>","null","1","","","","","","",""
"507.5299999997951","","image-keyboard-response","390","4030897","0.0-13.0-2.84","a","16","Images/train_1.png","65","1","1581883589345","match","train","train","sound","test","true"
"null","","audio-keyboard-response","391","4032908","0.0-13.0-3.84","a","16","Sounds/correct.wav","null","1","","","","","","",""
"null","","audio-keyboard-response","392","4033617","0.0-13.0-0.85","a","16","Sounds/dog_sound.wav","null","1","","","","","","",""
"null","","html-keyboard-response","393","4034621","0.0-13.0-1.85","a","16","<p style=""font-size: 48px;"">+</p>","null","1","","","","","","",""
"608.7449999996461","","image-keyboard-response","394","4035233","0.0-13.0-2.85","a","16","Images/dog_3.png","65","1","1581883593578","match","dog","dog","sound","test","true"
"null","","audio-keyboard-response","395","4037242","0.0-13.0-3.85","a","16","Sounds/correct.wav","null","1","","","","","","",""
"null","","audio-keyboard-response","396","4037817","0.0-13.0-0.86","a","16","Sounds/gun_label.wav","null","1","","","","","","",""
"null","","html-keyboard-response","397","4038821","0.0-13.0-1.86","a","16","<p style=""font-size: 48px;"">+</p>","null","1","","","","","","",""
"698.7000000001863","","image-keyboard-response","398","4039521","0.0-13.0-2.86","a","16","Images/train_1.png","76","1","1581883597778","non-match","train","gun","label","test","true"
"null","","audio-keyboard-response","399","4041526","0.0-13.0-3.86","a","16","Sounds/correct.wav","null","1","","","","","","",""
"null","","audio-keyboard-response","400","4042656","0.0-13.0-0.87","a","16","Sounds/motorcycle_label.wav","null","1","","","","","","",""
"null","","html-keyboard-response","401","4043654","0.0-13.0-1.87","a","16","<p style=""font-size: 48px;"">+</p>","null","1","","","","","","",""
"753.4399999994785","","image-keyboard-response","402","4044409","0.0-13.0-2.87","a","16","Images/motorcycle_1.png","65","1","1581883602611","match","motorcycle","motorcycle","label","test","true"
"null","","audio-keyboard-response","403","4046425","0.0-13.0-3.87","a","16","Sounds/correct.wav","null","1","","","","","","",""
"null","","audio-keyboard-response","404","4047077","0.0-13.0-0.88","a","16","Sounds/dog_label.wav","null","1","","","","","","",""
"null","","html-keyboard-response","405","4048071","0.0-13.0-1.88","a","16","<p style=""font-size: 48px;"">+</p>","null","1","","","","","","",""
"784.8199999998324","","image-keyboard-response","406","4048857","0.0-13.0-2.88","a","16","Images/dog_1.png","65","1","1581883607028","match","dog","dog","label","test","true"
"null","","audio-keyboard-response","407","4050860","0.0-13.0-3.88","a","16","Sounds/correct.wav","null","1","","","","","","",""
"null","","audio-keyboard-response","408","4051757","0.0-13.0-0.89","a","16","Sounds/frog_label.wav","null","1","","","","","","",""
"null","","html-keyboard-response","409","4052754","0.0-13.0-1.89","a","16","<p style=""font-size: 48px;"">+</p>","null","1","","","","","","",""
"605.2500000004657","","image-keyboard-response","410","4053361","0.0-13.0-2.89","a","16","Images/frog_3.png","76","1","1581883611711","match","frog","frog","label","test","false"
"null","","audio-keyboard-response","411","4055376","0.0-13.0-3.89","a","16","Sounds/incorrect.wav","null","1","","","","","","",""
"null","","audio-keyboard-response","412","4055957","0.0-13.0-0.90","a","16","Sounds/gun_label.wav","null","1","","","","","","",""
"null","","html-keyboard-response","413","4056954","0.0-13.0-1.90","a","16","<p style=""font-size: 48px;"">+</p>","null","1","","","","","","",""
"685.4199999999255","","image-keyboard-response","414","4057641","0.0-13.0-2.90","a","16","Images/cow_2.png","76","1","1581883615912","non-match","cow","gun","label","test","true"
"null","","audio-keyboard-response","415","4059643","0.0-13.0-3.90","a","16","Sounds/correct.wav","null","1","","","","","","",""
"null","","audio-keyboard-response","416","4060197","0.0-13.0-0.91","a","16","Sounds/gun_label.wav","null","1","","","","","","",""
"null","","html-keyboard-response","417","4061188","0.0-13.0-1.91","a","16","<p style=""font-size: 48px;"">+</p>","null","1","","","","","","",""
"732.0699999998324","","image-keyboard-response","418","4061921","0.0-13.0-2.91","a","16","Images/gun_cartoon.png","65","1","1581883620145","match","gun","gun","label","test","true"
"null","","audio-keyboard-response","419","4063926","0.0-13.0-3.91","a","16","Sounds/correct.wav","null","1","","","","","","",""
"null","","audio-keyboard-response","420","4064637","0.0-13.0-0.92","a","16","Sounds/dog_sound.wav","null","1","","","","","","",""
"null","","html-keyboard-response","421","4065652","0.0-13.0-1.92","a","16","<p style=""font-size: 48px;"">+</p>","null","1","","","","","","",""
"681.2350000003353","","image-keyboard-response","422","4066334","0.0-13.0-2.92","a","16","Images/train_cartoon.png","76","1","1581883624609","non-match","train","dog","sound","test","true"
"null","","audio-keyboard-response","423","4068343","0.0-13.0-3.92","a","16","Sounds/correct.wav","null","1","","","","","","",""
"null","","audio-keyboard-response","424","4069174","0.0-13.0-0.93","a","16","Sounds/cat_sound.wav","null","1","","","","","","",""
"null","","html-keyboard-response","425","4070168","0.0-13.0-1.93","a","16","<p style=""font-size: 48px;"">+</p>","null","1","","","","","","",""
"812.8900000001304","","image-keyboard-response","426","4070982","0.0-13.0-2.93","a","16","Images/cat_orig.png","65","1","1581883629125","match","cat","cat","sound","test","true"
"null","","audio-keyboard-response","427","4072991","0.0-13.0-3.93","a","16","Sounds/correct.wav","null","1","","","","","","",""
"null","","audio-keyboard-response","428","4074134","0.0-13.0-0.94","a","16","Sounds/motorcycle_label.wav","null","1","","","","","","",""
"null","","html-keyboard-response","429","4075152","0.0-13.0-1.94","a","16","<p style=""font-size: 48px;"">+</p>","null","1","","","","","","",""
"581.5050000003539","","image-keyboard-response","430","4075734","0.0-13.0-2.94","a","16","Images/whistle_cartoon.png","76","1","1581883634109","non-match","whistle","motorcycle","label","test","true"
"null","","audio-keyboard-response","431","4077742","0.0-13.0-3.94","a","16","Sounds/correct.wav","null","1","","","","","","",""
"null","","audio-keyboard-response","432","4078434","0.0-13.0-0.95","a","16","Sounds/dog_sound.wav","null","1","","","","","","",""
"null","","html-keyboard-response","433","4079452","0.0-13.0-1.95","a","16","<p style=""font-size: 48px;"">+</p>","null","1","","","","","","",""
"647.7749999994412","","image-keyboard-response","434","4080102","0.0-13.0-2.95","a","16","Images/dog_orig.png","65","1","1581883638409","match","dog","dog","sound","test","true"
"null","","audio-keyboard-response","435","4082107","0.0-13.0-3.95","a","16","Sounds/correct.wav","null","1","","","","","","",""
"null","","audio-keyboard-response","436","4083194","0.0-13.0-0.96","a","16","Sounds/car_sound.wav","null","1","","","","","","",""
"null","","html-keyboard-response","437","4084185","0.0-13.0-1.96","a","16","<p style=""font-size: 48px;"">+</p>","null","1","","","","","","",""
"675.7750000003725","","image-keyboard-response","438","4084862","0.0-13.0-2.96","a","16","Images/rooster_orig.png","76","1","1581883643143","non-match","rooster","car","sound","test","true"
"null","","audio-keyboard-response","439","4086873","0.0-13.0-3.96","a","16","Sounds/correct.wav","null","1","","","","","","",""
"null","","audio-keyboard-response","440","4087714","0.0-13.0-0.97","a","16","Sounds/cat_label.wav","null","1","","","","","","",""
"null","","html-keyboard-response","441","4088702","0.0-13.0-1.97","a","16","<p style=""font-size: 48px;"">+</p>","null","1","","","","","","",""
"983.3450000002049","","image-keyboard-response","442","4089686","0.0-13.0-2.97","a","16","Images/train_orig.png","76","1","1581883647659","non-match","train","cat","label","test","true"
"null","","audio-keyboard-response","443","4091691","0.0-13.0-3.97","a","16","Sounds/correct.wav","null","1","","","","","","",""
"null","","audio-keyboard-response","444","4092394","0.0-13.0-0.98","a","16","Sounds/whistle_label.wav","null","1","","","","","","",""
"null","","html-keyboard-response","445","4093385","0.0-13.0-1.98","a","16","<p style=""font-size: 48px;"">+</p>","null","1","","","","","","",""
"1451.6249999995343","","image-keyboard-response","446","4094838","0.0-13.0-2.98","a","16","Images/whistle_3.png","65","1","1581883652343","match","whistle","whistle","label","test","true"
"null","","audio-keyboard-response","447","4096843","0.0-13.0-3.98","a","16","Sounds/correct.wav","null","1","","","","","","",""
"null","","audio-keyboard-response","448","4098134","0.0-13.0-0.99","a","16","Sounds/train_sound.wav","null","1","","","","","","",""
"null","","html-keyboard-response","449","4099152","0.0-13.0-1.99","a","16","<p style=""font-size: 48px;"">+</p>","null","1","","","","","","",""
"533.0049999994226","","image-keyboard-response","450","4099686","0.0-13.0-2.99","a","16","Images/gun_cartoon.png","76","1","1581883658109","non-match","gun","train","sound","test","true"
"null","","audio-keyboard-response","451","4101691","0.0-13.0-3.99","a","16","Sounds/correct.wav","null","1","","","","","","",""
"15650.979999999516","","html-keyboard-response","452","4117342","0.0-14.0","a","16","<p>Please take this opportunity to rest your eyes before proceeding.</p><p>When ready, press the enter key to continue to the next set of trials.</p>","32","","","","","","","",""
"null","","audio-keyboard-response","453","4120071","0.0-15.0-0.0","a","16","Sounds/rooster_label.wav","null","2","","","","","","",""
"null","","html-keyboard-response","454","4121069","0.0-15.0-1.0","a","16","<p style=""font-size: 48px;"">+</p>","null","2","","","","","","",""
"1543.4599999999627","","image-keyboard-response","455","4122614","0.0-15.0-2.0","a","16","Images/rooster_3.png","65","2","1581883680026","match","rooster","rooster","label","test","true"
"null","","audio-keyboard-response","456","4124626","0.0-15.0-3.0","a","16","Sounds/correct.wav","null","2","","","","","","",""
"null","","audio-keyboard-response","457","4125291","0.0-15.0-0.1","a","16","Sounds/rooster_label.wav","null","2","","","","","","",""
"null","","html-keyboard-response","458","4126283","0.0-15.0-1.1","a","16","<p style=""font-size: 48px;"">+</p>","null","2","","","","","","",""
"479.0650000004098","","image-keyboard-response","459","4126764","0.0-15.0-2.1","a","16","Images/cow_orig.png","76","2","1581883685240","non-match","cow","rooster","label","test","true"
"null","","audio-keyboard-response","460","4128772","0.0-15.0-3.1","a","16","Sounds/correct.wav","null","2","","","","","","",""
"null","","audio-keyboard-response","461","4129888","0.0-15.0-0.2","a","16","Sounds/motorcycle_sound.wav","null","2","","","","","","",""
"null","","html-keyboard-response","462","4130883","0.0-15.0-1.2","a","16","<p style=""font-size: 48px;"">+</p>","null","2","","","","","","",""
"463.3250000006519","","image-keyboard-response","463","4131348","0.0-15.0-2.2","a","16","Images/whistle_2.png","76","2","1581883689840","non-match","whistle","motorcycle","sound","test","true"
"null","","audio-keyboard-response","464","4133355","0.0-15.0-3.2","a","16","Sounds/correct.wav","null","2","","","","","","",""
"null","","audio-keyboard-response","465","4134188","0.0-15.0-0.3","a","16","Sounds/cat_sound.wav","null","2","","","","","","",""
"null","","html-keyboard-response","466","4135183","0.0-15.0-1.3","a","16","<p style=""font-size: 48px;"">+</p>","null","2","","","","","","",""
"571.1549999997951","","image-keyboard-response","467","4135756","0.0-15.0-2.3","a","16","Images/gun_orig.png","76","2","1581883694140","non-match","gun","cat","sound","test","true"
"null","","audio-keyboard-response","468","4137772","0.0-15.0-3.3","a","16","Sounds/correct.wav","null","2","","","","","","",""
"null","","audio-keyboard-response","469","4138848","0.0-15.0-0.4","a","16","Sounds/car_sound.wav","null","2","","","","","","",""
"null","","html-keyboard-response","470","4139850","0.0-15.0-1.4","a","16","<p style=""font-size: 48px;"">+</p>","null","2","","","","","","",""
"640.4249999998137","","image-keyboard-response","471","4140492","0.0-15.0-2.4","a","16","Images/frog_1.png","76","2","1581883698807","non-match","frog","car","sound","test","true"
"null","","audio-keyboard-response","472","4142503","0.0-15.0-3.4","a","16","Sounds/correct.wav","null","2","","","","","","",""
"null","","audio-keyboard-response","473","4143208","0.0-15.0-0.5","a","16","Sounds/dog_sound.wav","null","2","","","","","","",""
"null","","html-keyboard-response","474","4144200","0.0-15.0-1.5","a","16","<p style=""font-size: 48px;"">+</p>","null","2","","","","","","",""
"594.6549999997951","","image-keyboard-response","475","4144796","0.0-15.0-2.5","a","16","Images/dog_cartoon.png","65","2","1581883703157","match","dog","dog","sound","test","true"
"null","","audio-keyboard-response","476","4146805","0.0-15.0-3.5","a","16","Sounds/correct.wav","null","2","","","","","","",""
"null","","audio-keyboard-response","477","4147848","0.0-15.0-0.6","a","16","Sounds/car_sound.wav","null","2","","","","","","",""
"null","","html-keyboard-response","478","4148850","0.0-15.0-1.6","a","16","<p style=""font-size: 48px;"">+</p>","null","2","","","","","","",""
"1184.290000000503","","image-keyboard-response","479","4150035","0.0-15.0-2.6","a","16","Images/car_1.png","65","2","1581883707807","match","car","car","sound","test","true"
"null","","audio-keyboard-response","480","4152040","0.0-15.0-3.6","a","16","Sounds/correct.wav","null","2","","","","","","",""
"null","","audio-keyboard-response","481","4152748","0.0-15.0-0.7","a","16","Sounds/rooster_sound.wav","null","2","","","","","","",""
"null","","html-keyboard-response","482","4153750","0.0-15.0-1.7","a","16","<p style=""font-size: 48px;"">+</p>","null","2","","","","","","",""
"972.3849999997765","","image-keyboard-response","483","4154724","0.0-15.0-2.7","a","16","Images/rooster_cartoon.png","76","2","1581883712708","match","rooster","rooster","sound","test","false"
"null","","audio-keyboard-response","484","4156738","0.0-15.0-3.7","a","16","Sounds/incorrect.wav","null","2","","","","","","",""
"null","","audio-keyboard-response","485","4157808","0.0-15.0-0.8","a","16","Sounds/car_label.wav","null","2","","","","","","",""
"null","","html-keyboard-response","486","4158800","0.0-15.0-1.8","a","16","<p style=""font-size: 48px;"">+</p>","null","2","","","","","","",""
"554.554999999702","","image-keyboard-response","487","4159356","0.0-15.0-2.8","a","16","Images/car_orig.png","65","2","1581883717757","match","car","car","label","test","true"
"null","","audio-keyboard-response","488","4161371","0.0-15.0-3.8","a","16","Sounds/correct.wav","null","2","","","","","","",""
"null","","audio-keyboard-response","489","4161948","0.0-15.0-0.9","a","16","Sounds/gun_label.wav","null","2","","","","","","",""
"null","","html-keyboard-response","490","4162950","0.0-15.0-1.9","a","16","<p style=""font-size: 48px;"">+</p>","null","2","","","","","","",""
"700.0599999995902","","image-keyboard-response","491","4163651","0.0-15.0-2.9","a","16","Images/train_3.png","76","2","1581883721908","non-match","train","gun","label","test","true"
"null","","audio-keyboard-response","492","4165655","0.0-15.0-3.9","a","16","Sounds/correct.wav","null","2","","","","","","",""
"null","","audio-keyboard-response","493","4166668","0.0-15.0-0.10","a","16","Sounds/cow_label.wav","null","2","","","","","","",""
"null","","html-keyboard-response","494","4167667","0.0-15.0-1.10","a","16","<p style=""font-size: 48px;"">+</p>","null","2","","","","","","",""
"455.4850000003353","","image-keyboard-response","495","4168124","0.0-15.0-2.10","a","16","Images/cow_cartoon.png","65","2","1581883726624","match","cow","cow","label","test","true"
"null","","audio-keyboard-response","496","4170138","0.0-15.0-3.10","a","16","Sounds/correct.wav","null","2","","","","","","",""
"null","","audio-keyboard-response","497","4171048","0.0-15.0-0.11","a","16","Sounds/frog_sound.wav","null","2","","","","","","",""
"null","","html-keyboard-response","498","4172050","0.0-15.0-1.11","a","16","<p style=""font-size: 48px;"">+</p>","null","2","","","","","","",""
"623.2550000003539","","image-keyboard-response","499","4172676","0.0-15.0-2.11","a","16","Images/cat_orig.png","76","2","1581883731008","non-match","cat","frog","sound","test","true"
"null","","audio-keyboard-response","500","4174687","0.0-15.0-3.11","a","16","Sounds/correct.wav","null","2","","","","","","",""
"null","","audio-keyboard-response","501","4175588","0.0-15.0-0.12","a","16","Sounds/frog_sound.wav","null","2","","","","","","",""
"null","","html-keyboard-response","502","4176584","0.0-15.0-1.12","a","16","<p style=""font-size: 48px;"">+</p>","null","2","","","","","","",""
"490.7400000002235","","image-keyboard-response","503","4177076","0.0-15.0-2.12","a","16","Images/dog_2.png","76","2","1581883735541","non-match","dog","frog","sound","test","true"
"null","","audio-keyboard-response","504","4179088","0.0-15.0-3.12","a","16","Sounds/correct.wav","null","2","","","","","","",""
"null","","audio-keyboard-response","505","4180228","0.0-15.0-0.13","a","16","Sounds/motorcycle_label.wav","null","2","","","","","","",""
"null","","html-keyboard-response","506","4181234","0.0-15.0-1.13","a","16","<p style=""font-size: 48px;"">+</p>","null","2","","","","","","",""
"656.6300000003539","","image-keyboard-response","507","4181892","0.0-15.0-2.13","a","16","Images/motorcycle_cartoon.png","65","2","1581883740191","match","motorcycle","motorcycle","label","test","true"
"null","","audio-keyboard-response","508","4183905","0.0-15.0-3.13","a","16","Sounds/correct.wav","null","2","","","","","","",""
"null","","audio-keyboard-response","509","4184488","0.0-15.0-0.14","a","16","Sounds/gun_sound.wav","null","2","","","","","","",""
"null","","html-keyboard-response","510","4185484","0.0-15.0-1.14","a","16","<p style=""font-size: 48px;"">+</p>","null","2","","","","","","",""
"646.894999999553","","image-keyboard-response","511","4186132","0.0-15.0-2.14","a","16","Images/gun_1.png","65","2","1581883744441","match","gun","gun","sound","test","true"
"null","","audio-keyboard-response","512","4188138","0.0-15.0-3.14","a","16","Sounds/correct.wav","null","2","","","","","","",""
"null","","audio-keyboard-response","513","4189025","0.0-15.0-0.15","a","16","Sounds/frog_sound.wav","null","2","","","","","","",""
"null","","html-keyboard-response","514","4190015","0.0-15.0-1.15","a","16","<p style=""font-size: 48px;"">+</p>","null","2","","","","","","",""
"801.2600000002421","","image-keyboard-response","515","4190817","0.0-15.0-2.15","a","16","Images/gun_1.png","76","2","1581883748971","non-match","gun","frog","sound","test","true"
"null","","audio-keyboard-response","516","4192823","0.0-15.0-3.15","a","16","Sounds/correct.wav","null","2","","","","","","",""
"null","","audio-keyboard-response","517","4193485","0.0-15.0-0.16","a","16","Sounds/dog_label.wav","null","2","","","","","","",""
"null","","html-keyboard-response","518","4194481","0.0-15.0-1.16","a","16","<p style=""font-size: 48px;"">+</p>","null","2","","","","","","",""
"582.4200000008568","","image-keyboard-response","519","4195065","0.0-15.0-2.16","a","16","Images/cat_1.png","76","2","1581883753438","non-match","cat","dog","label","test","true"
"null","","audio-keyboard-response","520","4197071","0.0-15.0-3.16","a","16","Sounds/correct.wav","null","2","","","","","","",""
"null","","audio-keyboard-response","521","4197645","0.0-15.0-0.17","a","16","Sounds/gun_label.wav","null","2","","","","","","",""
"null","","html-keyboard-response","522","4198648","0.0-15.0-1.17","a","16","<p style=""font-size: 48px;"">+</p>","null","2","","","","","","",""
"608.0099999997765","","image-keyboard-response","523","4199257","0.0-15.0-2.17","a","16","Images/gun_3.png","65","2","1581883757605","match","gun","gun","label","test","true"
"null","","audio-keyboard-response","524","4201269","0.0-15.0-3.17","a","16","Sounds/correct.wav","null","2","","","","","","",""
"null","","audio-keyboard-response","525","4201965","0.0-15.0-0.18","a","16","Sounds/rooster_label.wav","null","2","","","","","","",""
"null","","html-keyboard-response","526","4202965","0.0-15.0-1.18","a","16","<p style=""font-size: 48px;"">+</p>","null","2","","","","","","",""
"650.9499999992549","","image-keyboard-response","527","4203617","0.0-15.0-2.18","a","16","Images/whistle_1.png","76","2","1581883761922","non-match","whistle","rooster","label","test","true"
"null","","audio-keyboard-response","528","4205620","0.0-15.0-3.18","a","16","Sounds/correct.wav","null","2","","","","","","",""
"null","","audio-keyboard-response","529","4206645","0.0-15.0-0.19","a","16","Sounds/cow_sound.wav","null","2","","","","","","",""
"null","","html-keyboard-response","530","4207648","0.0-15.0-1.19","a","16","<p style=""font-size: 48px;"">+</p>","null","2","","","","","","",""
"511.7950000008568","","image-keyboard-response","531","4208161","0.0-15.0-2.19","a","16","Images/cow_2.png","65","2","1581883766605","match","cow","cow","sound","test","true"
"null","","audio-keyboard-response","532","4210172","0.0-15.0-3.19","a","16","Sounds/correct.wav","null","2","","","","","","",""
"null","","audio-keyboard-response","533","4210865","0.0-15.0-0.20","a","16","Sounds/whistle_label.wav","null","2","","","","","","",""
"null","","html-keyboard-response","534","4211865","0.0-15.0-1.20","a","16","<p style=""font-size: 48px;"">+</p>","null","2","","","","","","",""
"423.21999999973923","","image-keyboard-response","535","4212289","0.0-15.0-2.20","a","16","Images/frog_cartoon.png","76","2","1581883770822","non-match","frog","whistle","label","test","true"
"null","","audio-keyboard-response","536","4214306","0.0-15.0-3.20","a","16","Sounds/correct.wav","null","2","","","","","","",""
"null","","audio-keyboard-response","537","4215005","0.0-15.0-0.21","a","16","Sounds/whistle_sound.wav","null","2","","","","","","",""
"null","","html-keyboard-response","538","4215998","0.0-15.0-1.21","a","16","<p style=""font-size: 48px;"">+</p>","null","2","","","","","","",""
"513.7249999996275","","image-keyboard-response","539","4216513","0.0-15.0-2.21","a","16","Images/cat_cartoon.png","76","2","1581883774955","non-match","cat","whistle","sound","test","true"
"null","","audio-keyboard-response","540","4218521","0.0-15.0-3.21","a","16","Sounds/correct.wav","null","2","","","","","","",""
"null","","audio-keyboard-response","541","4219545","0.0-15.0-0.22","a","16","Sounds/cow_label.wav","null","2","","","","","","",""
"null","","html-keyboard-response","542","4220548","0.0-15.0-1.22","a","16","<p style=""font-size: 48px;"">+</p>","null","2","","","","","","",""
"619.6200000001118","","image-keyboard-response","543","4221169","0.0-15.0-2.22","a","16","Images/cow_orig.png","65","2","1581883779505","match","cow","cow","label","test","true"
"null","","audio-keyboard-response","544","4223186","0.0-15.0-3.22","a","16","Sounds/correct.wav","null","2","","","","","","",""
"null","","audio-keyboard-response","545","4224185","0.0-15.0-0.23","a","16","Sounds/cow_sound.wav","null","2","","","","","","",""
"null","","html-keyboard-response","546","4225181","0.0-15.0-1.23","a","16","<p style=""font-size: 48px;"">+</p>","null","2","","","","","","",""
"594.4049999993294","","image-keyboard-response","547","4225777","0.0-15.0-2.23","a","16","Images/motorcycle_1.png","76","2","1581883784139","non-match","motorcycle","cow","sound","test","true"
"null","","audio-keyboard-response","548","4227786","0.0-15.0-3.23","a","16","Sounds/correct.wav","null","2","","","","","","",""
"null","","audio-keyboard-response","549","4229065","0.0-15.0-0.24","a","16","Sounds/train_label.wav","null","2","","","","","","",""
"null","","html-keyboard-response","550","4230065","0.0-15.0-1.24","a","16","<p style=""font-size: 48px;"">+</p>","null","2","","","","","","",""
"591.0750000001863","","image-keyboard-response","551","4230657","0.0-15.0-2.24","a","16","Images/train_1.png","76","2","1581883789022","match","train","train","label","test","false"
"null","","audio-keyboard-response","552","4232670","0.0-15.0-3.24","a","16","Sounds/incorrect.wav","null","2","","","","","","",""
"null","","audio-keyboard-response","553","4233805","0.0-15.0-0.25","a","16","Sounds/motorcycle_label.wav","null","2","","","","","","",""
"null","","html-keyboard-response","554","4234798","0.0-15.0-1.25","a","16","<p style=""font-size: 48px;"">+</p>","null","2","","","","","","",""
"641.6149999992922","","image-keyboard-response","555","4235441","0.0-15.0-2.25","a","16","Images/gun_3.png","76","2","1581883793756","non-match","gun","motorcycle","label","test","true"
"null","","audio-keyboard-response","556","4237452","0.0-15.0-3.25","a","16","Sounds/correct.wav","null","2","","","","","","",""
"null","","audio-keyboard-response","557","4238285","0.0-15.0-0.26","a","16","Sounds/cat_label.wav","null","2","","","","","","",""
"null","","html-keyboard-response","558","4239282","0.0-15.0-1.26","a","16","<p style=""font-size: 48px;"">+</p>","null","2","","","","","","",""
"598.320000000298","","image-keyboard-response","559","4239881","0.0-15.0-2.26","a","16","Images/cat_cartoon.png","65","2","1581883798239","match","cat","cat","label","test","true"
"null","","audio-keyboard-response","560","4241888","0.0-15.0-3.26","a","16","Sounds/correct.wav","null","2","","","","","","",""
"null","","audio-keyboard-response","561","4243005","0.0-15.0-0.27","a","16","Sounds/motorcycle_sound.wav","null","2","","","","","","",""
"null","","html-keyboard-response","562","4243998","0.0-15.0-1.27","a","16","<p style=""font-size: 48px;"">+</p>","null","2","","","","","","",""
"881.4599999999627","","image-keyboard-response","563","4244881","0.0-15.0-2.27","a","16","Images/cow_2.png","76","2","1581883802955","non-match","cow","motorcycle","sound","test","true"
"null","","audio-keyboard-response","564","4246891","0.0-15.0-3.27","a","16","Sounds/correct.wav","null","2","","","","","","",""
"null","","audio-keyboard-response","565","4247725","0.0-15.0-0.28","a","16","Sounds/cat_sound.wav","null","2","","","","","","",""
"null","","html-keyboard-response","566","4248713","0.0-15.0-1.28","a","16","<p style=""font-size: 48px;"">+</p>","null","2","","","","","","",""
"884.7050000000745","","image-keyboard-response","567","4249598","0.0-15.0-2.28","a","16","Images/rooster_2.png","76","2","1581883807670","non-match","rooster","cat","sound","test","true"
"null","","audio-keyboard-response","568","4251601","0.0-15.0-3.28","a","16","Sounds/correct.wav","null","2","","","","","","",""
"null","","audio-keyboard-response","569","4252303","0.0-15.0-0.29","a","16","Sounds/dog_sound.wav","null","2","","","","","","",""
"null","","html-keyboard-response","570","4253296","0.0-15.0-1.29","a","16","<p style=""font-size: 48px;"">+</p>","null","2","","","","","","",""
"677.394999999553","","image-keyboard-response","571","4253975","0.0-15.0-2.29","a","16","Images/cow_3.png","65","2","1581883812253","non-match","cow","dog","sound","test","false"
"null","","audio-keyboard-response","572","4255983","0.0-15.0-3.29","a","16","Sounds/incorrect.wav","null","2","","","","","","",""
"null","","audio-keyboard-response","573","4257003","0.0-15.0-0.30","a","16","Sounds/cow_label.wav","null","2","","","","","","",""
"null","","html-keyboard-response","574","4257996","0.0-15.0-1.30","a","16","<p style=""font-size: 48px;"">+</p>","null","2","","","","","","",""
"529.2400000002235","","image-keyboard-response","575","4258526","0.0-15.0-2.30","a","16","Images/frog_2.png","76","2","1581883816953","non-match","frog","cow","label","test","true"
"null","","audio-keyboard-response","576","4260535","0.0-15.0-3.30","a","16","Sounds/correct.wav","null","2","","","","","","",""
"null","","audio-keyboard-response","577","4261223","0.0-15.0-0.31","a","16","Sounds/dog_sound.wav","null","2","","","","","","",""
"null","","html-keyboard-response","578","4262213","0.0-15.0-1.31","a","16","<p style=""font-size: 48px;"">+</p>","null","2","","","","","","",""
"912.1900000004098","","image-keyboard-response","579","4263126","0.0-15.0-2.31","a","16","Images/rooster_1.png","76","2","1581883821170","non-match","rooster","dog","sound","test","true"
"null","","audio-keyboard-response","580","4265136","0.0-15.0-3.31","a","16","Sounds/correct.wav","null","2","","","","","","",""
"null","","audio-keyboard-response","581","4265983","0.0-15.0-0.32","a","16","Sounds/cat_label.wav","null","2","","","","","","",""
"null","","html-keyboard-response","582","4266979","0.0-15.0-1.32","a","16","<p style=""font-size: 48px;"">+</p>","null","2","","","","","","",""
"641.7949999999255","","image-keyboard-response","583","4267622","0.0-15.0-2.32","a","16","Images/dog_orig.png","76","2","1581883825937","non-match","dog","cat","label","test","true"
"null","","audio-keyboard-response","584","4269633","0.0-15.0-3.32","a","16","Sounds/correct.wav","null","2","","","","","","",""
"null","","audio-keyboard-response","585","4270703","0.0-15.0-0.33","a","16","Sounds/car_sound.wav","null","2","","","","","","",""
"null","","html-keyboard-response","586","4271696","0.0-15.0-1.33","a","16","<p style=""font-size: 48px;"">+</p>","null","2","","","","","","",""
"733.1849999995902","","image-keyboard-response","587","4272430","0.0-15.0-2.33","a","16","Images/whistle_3.png","76","2","1581883830653","non-match","whistle","car","sound","test","true"
"null","","audio-keyboard-response","588","4274435","0.0-15.0-3.33","a","16","Sounds/correct.wav","null","2","","","","","","",""
"null","","audio-keyboard-response","589","4275123","0.0-15.0-0.34","a","16","Sounds/whistle_label.wav","null","2","","","","","","",""
"null","","html-keyboard-response","590","4276113","0.0-15.0-1.34","a","16","<p style=""font-size: 48px;"">+</p>","null","2","","","","","","",""
"924.4099999992177","","image-keyboard-response","591","4277038","0.0-15.0-2.34","a","16","Images/whistle_cartoon.png","65","2","1581883835070","match","whistle","whistle","label","test","true"
"null","","audio-keyboard-response","592","4279050","0.0-15.0-3.34","a","16","Sounds/correct.wav","null","2","","","","","","",""
"null","","audio-keyboard-response","593","4280163","0.0-15.0-0.35","a","16","Sounds/motorcycle_sound.wav","null","2","","","","","","",""
"null","","html-keyboard-response","594","4281163","0.0-15.0-1.35","a","16","<p style=""font-size: 48px;"">+</p>","null","2","","","","","","",""
"786.4000000003725","","image-keyboard-response","595","4281950","0.0-15.0-2.35","a","16","Images/car_cartoon.png","65","2","1581883840120","non-match","car","motorcycle","sound","test","false"
"null","","audio-keyboard-response","596","4283956","0.0-15.0-3.35","a","16","Sounds/incorrect.wav","null","2","","","","","","",""
"null","","audio-keyboard-response","597","4284543","0.0-15.0-0.36","a","16","Sounds/gun_label.wav","null","2","","","","","","",""
"null","","html-keyboard-response","598","4285546","0.0-15.0-1.36","a","16","<p style=""font-size: 48px;"">+</p>","null","2","","","","","","",""
"963.089999999851","","image-keyboard-response","599","4286510","0.0-15.0-2.36","a","16","Images/gun_cartoon.png","65","2","1581883844504","match","gun","gun","label","test","true"
"null","","audio-keyboard-response","600","4288518","0.0-15.0-3.36","a","16","Sounds/correct.wav","null","2","","","","","","",""
"null","","audio-keyboard-response","601","4289603","0.0-15.0-0.37","a","16","Sounds/car_label.wav","null","2","","","","","","",""
"null","","html-keyboard-response","602","4290596","0.0-15.0-1.37","a","16","<p style=""font-size: 48px;"">+</p>","null","2","","","","","","",""
"456.98499999940395","","image-keyboard-response","603","4291054","0.0-15.0-2.37","a","16","Images/cow_1.png","76","2","1581883849553","non-match","cow","car","label","test","true"
"null","","audio-keyboard-response","604","4293068","0.0-15.0-3.37","a","16","Sounds/correct.wav","null","2","","","","","","",""
"null","","audio-keyboard-response","605","4294143","0.0-15.0-0.38","a","16","Sounds/car_sound.wav","null","2","","","","","","",""
"null","","html-keyboard-response","606","4295146","0.0-15.0-1.38","a","16","<p style=""font-size: 48px;"">+</p>","null","2","","","","","","",""
"546.9500000001863","","image-keyboard-response","607","4295694","0.0-15.0-2.38","a","16","Images/car_2.png","65","2","1581883854104","match","car","car","sound","test","true"
"null","","audio-keyboard-response","608","4297702","0.0-15.0-3.38","a","16","Sounds/correct.wav","null","2","","","","","","",""
"null","","audio-keyboard-response","609","4298803","0.0-15.0-0.39","a","16","Sounds/motorcycle_sound.wav","null","2","","","","","","",""
"null","","html-keyboard-response","610","4299796","0.0-15.0-1.39","a","16","<p style=""font-size: 48px;"">+</p>","null","2","","","","","","",""
"496.8150000004098","","image-keyboard-response","611","4300294","0.0-15.0-2.39","a","16","Images/motorcycle_3.png","65","2","1581883858754","match","motorcycle","motorcycle","sound","test","true"
"null","","audio-keyboard-response","612","4302302","0.0-15.0-3.39","a","16","Sounds/correct.wav","null","2","","","","","","",""
"null","","audio-keyboard-response","613","4303203","0.0-15.0-0.40","a","16","Sounds/frog_label.wav","null","2","","","","","","",""
"null","","html-keyboard-response","614","4304196","0.0-15.0-1.40","a","16","<p style=""font-size: 48px;"">+</p>","null","2","","","","","","",""
"568.7350000003353","","image-keyboard-response","615","4304766","0.0-15.0-2.40","a","16","Images/motorcycle_orig.png","76","2","1581883863154","non-match","motorcycle","frog","label","test","true"
"null","","audio-keyboard-response","616","4306784","0.0-15.0-3.40","a","16","Sounds/correct.wav","null","2","","","","","","",""
"null","","audio-keyboard-response","617","4307363","0.0-15.0-0.41","a","16","Sounds/gun_sound.wav","null","2","","","","","","",""
"null","","html-keyboard-response","618","4308363","0.0-15.0-1.41","a","16","<p style=""font-size: 48px;"">+</p>","null","2","","","","","","",""
"898.285000000149","","image-keyboard-response","619","4309261","0.0-15.0-2.41","a","16","Images/whistle_cartoon.png","76","2","1581883867320","non-match","whistle","gun","sound","test","true"
"null","","audio-keyboard-response","620","4311267","0.0-15.0-3.41","a","16","Sounds/correct.wav","null","2","","","","","","",""
"null","","audio-keyboard-response","621","4311961","0.0-15.0-0.42","a","16","Sounds/whistle_label.wav","null","2","","","","","","",""
"null","","html-keyboard-response","622","4312962","0.0-15.0-1.42","a","16","<p style=""font-size: 48px;"">+</p>","null","2","","","","","","",""
"529.6500000003725","","image-keyboard-response","623","4313493","0.0-15.0-2.42","a","16","Images/dog_1.png","76","2","1581883871919","non-match","dog","whistle","label","test","true"
"null","","audio-keyboard-response","624","4315500","0.0-15.0-3.42","a","16","Sounds/correct.wav","null","2","","","","","","",""
"null","","audio-keyboard-response","625","4316521","0.0-15.0-0.43","a","16","Sounds/cow_label.wav","null","2","","","","","","",""
"null","","html-keyboard-response","626","4317512","0.0-15.0-1.43","a","16","<p style=""font-size: 48px;"">+</p>","null","2","","","","","","",""
"683.8250000001863","","image-keyboard-response","627","4318197","0.0-15.0-2.43","a","16","Images/car_orig.png","76","2","1581883876469","non-match","car","cow","label","test","true"
"null","","audio-keyboard-response","628","4320200","0.0-15.0-3.43","a","16","Sounds/correct.wav","null","2","","","","","","",""
"null","","audio-keyboard-response","629","4321501","0.0-15.0-0.44","a","16","Sounds/train_sound.wav","null","2","","","","","","",""
"null","","html-keyboard-response","630","4322495","0.0-15.0-1.44","a","16","<p style=""font-size: 48px;"">+</p>","null","2","","","","","","",""
"404.25499999988824","","image-keyboard-response","631","4322901","0.0-15.0-2.44","a","16","Images/train_3.png","65","2","1581883881452","match","train","train","sound","test","true"
"null","","audio-keyboard-response","632","4324918","0.0-15.0-3.44","a","16","Sounds/correct.wav","null","2","","","","","","",""
"null","","audio-keyboard-response","633","4325821","0.0-15.0-0.45","a","16","Sounds/frog_label.wav","null","2","","","","","","",""
"null","","html-keyboard-response","634","4326812","0.0-15.0-1.45","a","16","<p style=""font-size: 48px;"">+</p>","null","2","","","","","","",""
"1191.7200000006706","","image-keyboard-response","635","4328005","0.0-15.0-2.45","a","16","Images/frog_orig.png","65","2","1581883885769","match","frog","frog","label","test","true"
"null","","audio-keyboard-response","636","4330017","0.0-15.0-3.45","a","16","Sounds/correct.wav","null","2","","","","","","",""
"null","","audio-keyboard-response","637","4330881","0.0-15.0-0.46","a","16","Sounds/frog_label.wav","null","2","","","","","","",""
"null","","html-keyboard-response","638","4331879","0.0-15.0-1.46","a","16","<p style=""font-size: 48px;"">+</p>","null","2","","","","","","",""
"869.2199999988079","","image-keyboard-response","639","4332749","0.0-15.0-2.46","a","16","Images/frog_3.png","65","2","1581883890836","match","frog","frog","label","test","true"
"null","","audio-keyboard-response","640","4334766","0.0-15.0-3.46","a","16","Sounds/correct.wav","null","2","","","","","","",""
"null","","audio-keyboard-response","641","4335461","0.0-15.0-0.47","a","16","Sounds/whistle_sound.wav","null","2","","","","","","",""
"null","","html-keyboard-response","642","4336479","0.0-15.0-1.47","a","16","<p style=""font-size: 48px;"">+</p>","null","2","","","","","","",""
"733.375","","image-keyboard-response","643","4337213","0.0-15.0-2.47","a","16","Images/whistle_3.png","65","2","1581883895436","match","whistle","whistle","sound","test","true"
"null","","audio-keyboard-response","644","4339219","0.0-15.0-3.47","a","16","Sounds/correct.wav","null","2","","","","","","",""
"null","","audio-keyboard-response","645","4339801","0.0-15.0-0.48","a","16","Sounds/gun_label.wav","null","2","","","","","","",""
"null","","html-keyboard-response","646","4340795","0.0-15.0-1.48","a","16","<p style=""font-size: 48px;"">+</p>","null","2","","","","","","",""
"480.285000000149","","image-keyboard-response","647","4341277","0.0-15.0-2.48","a","16","Images/gun_orig.png","65","2","1581883899752","match","gun","gun","label","test","true"
"null","","audio-keyboard-response","648","4343280","0.0-15.0-3.48","a","16","Sounds/correct.wav","null","2","","","","","","",""
"null","","audio-keyboard-response","649","4344401","0.0-15.0-0.49","a","16","Sounds/motorcycle_sound.wav","null","2","","","","","","",""
"null","","html-keyboard-response","650","4345395","0.0-15.0-1.49","a","16","<p style=""font-size: 48px;"">+</p>","null","2","","","","","","",""
"663.8849999997765","","image-keyboard-response","651","4346061","0.0-15.0-2.49","a","16","Images/motorcycle_2.png","65","2","1581883904353","match","motorcycle","motorcycle","sound","test","true"
"null","","audio-keyboard-response","652","4348069","0.0-15.0-3.49","a","16","Sounds/correct.wav","null","2","","","","","","",""
"null","","audio-keyboard-response","653","4349081","0.0-15.0-0.50","a","16","Sounds/cow_label.wav","null","2","","","","","","",""
"null","","html-keyboard-response","654","4350079","0.0-15.0-1.50","a","16","<p style=""font-size: 48px;"">+</p>","null","2","","","","","","",""
"733.1750000007451","","image-keyboard-response","655","4350813","0.0-15.0-2.50","a","16","Images/rooster_cartoon.png","76","2","1581883909036","non-match","rooster","cow","label","test","true"
"null","","audio-keyboard-response","656","4352818","0.0-15.0-3.50","a","16","Sounds/correct.wav","null","2","","","","","","",""
"null","","audio-keyboard-response","657","4353721","0.0-15.0-0.51","a","16","Sounds/frog_sound.wav","null","2","","","","","","",""
