"rt","responses","trial_type","trial_index","time_elapsed","internal_node_id","match_key","participant_id","stimulus","key_press","block","stim_onset","match_type","image_category","sound_category","audio_type","phase","correct"
"21655.945000005886","{""Q0"":""COGS219_2020_03""}","survey-text","0","21701","0.0-0.0","l","COGS219_2020_03","","","","","","","","","",""
"124545.03999999724","","html-keyboard-response","1","146291","0.0-1.0","l","COGS219_2020_03","<p>Use KEYBOARD 1 (match RIGHT)</p><p>Press MATCH to continue.</p>","76","","","","","","","",""
"3535180.784999975","","html-keyboard-response","2","3681687","0.0-2.0","l","COGS219_2020_03","<p>Welcome to the experiment.</p>","32","","","","","","","",""
"12043.790000025183","","html-keyboard-response","3","3693735","0.0-3.0","l","COGS219_2020_03","<p>Thank you for agreeing to participate in this study.</p><p>If during any part of the procedure you must stop for any reason, please inform the researcher that you do not wish to continue.</p>","32","","","","","","","",""
"21647.35499996459","","html-keyboard-response","4","3715384","0.0-4.0","l","COGS219_2020_03","<p>In this experiment, you will hear various words or sounds and see pictures of various animals and objects.</p><p>Most of the images will be of common everyday objects, such as cars, cats, cows, firearms, frogs, chickens, whistles, trains, motorcycles, and dogs.</p><p>Some of the images will be real-life stills, while others will be cartoons.</p>","32","","","","","","","",""
"16030.05000000121","","html-keyboard-response","5","3731415","0.0-5.0","l","COGS219_2020_03","<p>Sometimes, the word/sound will match the picture, for example you'll hear a meowing sound and see a cat.</p><p>Other times, the picture will not match the sound or word.</p><p>Your task is to decide as quickly as possible if the word/sound matches the picture or not. </p>","32","","","","","","","",""
"13951.330000010785","","html-keyboard-response","6","3745357","0.0-6.0","l","COGS219_2020_03","<p>For example, if you hear the word ""cat"" or hear a meowing sound, and then see a picture of a cat, you should press the MATCH key.</p><p> If the sound and image do not match, press the NOT-MATCH key to indicate that there is not a match.</p>","32","","","","","","","",""
"12942.565000033937","","html-keyboard-response","7","3758301","0.0-7.0","l","COGS219_2020_03","<p>If you make a mistake, you will hear a buzzing sound instead of a more pleasant sound.</p><p> Try to respond as quickly as possible, while making as few errors as possible. If you are making mistakes, you are probably rushing.</p>","32","","","","","","","",""
"13070.739999995567","","html-keyboard-response","8","3771373","0.0-8.0","l","COGS219_2020_03","<p>Please try to not move or blink your eyes during the presentation of the images. You can move and blink between images.</p><p>During the experiment there will be some breaks during which you can rest your eyes.</p>","32","","","","","","","",""
"15247.180000005756","","html-keyboard-response","9","3786621","0.0-9.0","l","COGS219_2020_03","<p>We will begin with 10 practice trials. Please let the experimenter know if you have any questions.</p>","32","","","","","","","",""
"null","","audio-keyboard-response","10","3787274","0.0-10.0-0.0","l","COGS219_2020_03","Sounds/gun_label.wav","null","0","","","","","","",""
"null","","html-keyboard-response","11","3788265","0.0-10.0-1.0","l","COGS219_2020_03","<p style=""font-size: 48px;"">+</p>","null","0","","","","","","",""
"1713.4649999788962","","image-keyboard-response","12","3789980","0.0-10.0-2.0","l","COGS219_2020_03","Images/gun_orig.png","76","0","1581275184085","match","gun","gun","label","practice","true"
"null","","audio-keyboard-response","13","3791990","0.0-10.0-3.0","l","COGS219_2020_03","Sounds/correct.wav","null","0","","","","","","",""
"null","","audio-keyboard-response","14","3793114","0.0-10.0-0.1","l","COGS219_2020_03","Sounds/motorcycle_sound.wav","null","0","","","","","","",""
"null","","html-keyboard-response","15","3794115","0.0-10.0-1.1","l","COGS219_2020_03","<p style=""font-size: 48px;"">+</p>","null","0","","","","","","",""
"920.0399999972433","","image-keyboard-response","16","3795036","0.0-10.0-2.1","l","COGS219_2020_03","Images/frog_3.png","65","0","1581275189935","non-match","frog","motorcycle","sound","practice","true"
"null","","audio-keyboard-response","17","3797052","0.0-10.0-3.1","l","COGS219_2020_03","Sounds/correct.wav","null","0","","","","","","",""
"null","","audio-keyboard-response","18","3797754","0.0-10.0-0.2","l","COGS219_2020_03","Sounds/dog_sound.wav","null","0","","","","","","",""
"null","","html-keyboard-response","19","3798748","0.0-10.0-1.2","l","COGS219_2020_03","<p style=""font-size: 48px;"">+</p>","null","0","","","","","","",""
"479.0599999832921","","image-keyboard-response","20","3799228","0.0-10.0-2.2","l","COGS219_2020_03","Images/dog_2.png","76","0","1581275194568","match","dog","dog","sound","practice","true"
"null","","audio-keyboard-response","21","3801236","0.0-10.0-3.2","l","COGS219_2020_03","Sounds/correct.wav","null","0","","","","","","",""
"null","","audio-keyboard-response","22","3802314","0.0-10.0-0.3","l","COGS219_2020_03","Sounds/car_label.wav","null","0","","","","","","",""
"null","","html-keyboard-response","23","3803315","0.0-10.0-1.3","l","COGS219_2020_03","<p style=""font-size: 48px;"">+</p>","null","0","","","","","","",""
"632.1549999993294","","image-keyboard-response","24","3803948","0.0-10.0-2.3","l","COGS219_2020_03","Images/car_cartoon.png","76","0","1581275199135","match","car","car","label","practice","true"
"null","","audio-keyboard-response","25","3805964","0.0-10.0-3.3","l","COGS219_2020_03","Sounds/correct.wav","null","0","","","","","","",""
"null","","audio-keyboard-response","26","3806665","0.0-10.0-0.4","l","COGS219_2020_03","Sounds/dog_sound.wav","null","0","","","","","","",""
"null","","html-keyboard-response","27","3807659","0.0-10.0-1.4","l","COGS219_2020_03","<p style=""font-size: 48px;"">+</p>","null","0","","","","","","",""
"602.820000029169","","image-keyboard-response","28","3808263","0.0-10.0-2.4","l","COGS219_2020_03","Images/dog_1.png","76","0","1581275203479","match","dog","dog","sound","practice","true"
"null","","audio-keyboard-response","29","3810280","0.0-10.0-3.4","l","COGS219_2020_03","Sounds/correct.wav","null","0","","","","","","",""
"null","","audio-keyboard-response","30","3810985","0.0-10.0-0.5","l","COGS219_2020_03","Sounds/whistle_sound.wav","null","0","","","","","","",""
"null","","html-keyboard-response","31","3811976","0.0-10.0-1.5","l","COGS219_2020_03","<p style=""font-size: 48px;"">+</p>","null","0","","","","","","",""
"781.9449999951757","","image-keyboard-response","32","3812759","0.0-10.0-2.5","l","COGS219_2020_03","Images/car_3.png","65","0","1581275207796","non-match","car","whistle","sound","practice","true"
"null","","audio-keyboard-response","33","3814764","0.0-10.0-3.5","l","COGS219_2020_03","Sounds/correct.wav","null","0","","","","","","",""
"null","","audio-keyboard-response","34","3815785","0.0-10.0-0.6","l","COGS219_2020_03","Sounds/cow_sound.wav","null","0","","","","","","",""
"null","","html-keyboard-response","35","3816776","0.0-10.0-1.6","l","COGS219_2020_03","<p style=""font-size: 48px;"">+</p>","null","0","","","","","","",""
"509.9749999935739","","image-keyboard-response","36","3817287","0.0-10.0-2.6","l","COGS219_2020_03","Images/gun_orig.png","65","0","1581275212596","non-match","gun","cow","sound","practice","true"
"null","","audio-keyboard-response","37","3819296","0.0-10.0-3.6","l","COGS219_2020_03","Sounds/correct.wav","null","0","","","","","","",""
"null","","audio-keyboard-response","38","3819985","0.0-10.0-0.7","l","COGS219_2020_03","Sounds/rooster_label.wav","null","0","","","","","","",""
"null","","html-keyboard-response","39","3820976","0.0-10.0-1.7","l","COGS219_2020_03","<p style=""font-size: 48px;"">+</p>","null","0","","","","","","",""
"710.1499999989755","","image-keyboard-response","40","3821687","0.0-10.0-2.7","l","COGS219_2020_03","Images/rooster_orig.png","76","0","1581275216796","match","rooster","rooster","label","practice","true"
"null","","audio-keyboard-response","41","3823691","0.0-10.0-3.7","l","COGS219_2020_03","Sounds/correct.wav","null","0","","","","","","",""
"null","","audio-keyboard-response","42","3824765","0.0-10.0-0.8","l","COGS219_2020_03","Sounds/car_label.wav","null","0","","","","","","",""
"null","","html-keyboard-response","43","3825759","0.0-10.0-1.8","l","COGS219_2020_03","<p style=""font-size: 48px;"">+</p>","null","0","","","","","","",""
"502.7649999829009","","image-keyboard-response","44","3826263","0.0-10.0-2.8","l","COGS219_2020_03","Images/car_3.png","76","0","1581275221579","match","car","car","label","practice","true"
"null","","audio-keyboard-response","45","3828280","0.0-10.0-3.8","l","COGS219_2020_03","Sounds/correct.wav","null","0","","","","","","",""
"null","","audio-keyboard-response","46","3829185","0.0-10.0-0.9","l","COGS219_2020_03","Sounds/frog_sound.wav","null","0","","","","","","",""
"null","","html-keyboard-response","47","3830176","0.0-10.0-1.9","l","COGS219_2020_03","<p style=""font-size: 48px;"">+</p>","null","0","","","","","","",""
"486.0200000111945","","image-keyboard-response","48","3830663","0.0-10.0-2.9","l","COGS219_2020_03","Images/frog_3.png","65","0","1581275225996","match","frog","frog","sound","practice","false"
"null","","audio-keyboard-response","49","3832680","0.0-10.0-3.9","l","COGS219_2020_03","Sounds/incorrect.wav","null","0","","","","","","",""
"30655.320000019856","","html-keyboard-response","50","3863336","0.0-11.0","l","COGS219_2020_03","<p>The rest of the experiment is divided into five blocks with 100 trials in each block. It will take about 45 minutes to complete.</p><p>The experimenter will be in the outer room and you can communicate with them through the monitor if you have any questions or wish to stop the experiment.</p>","32","","","","","","","",""
"2845.644999993965","","html-keyboard-response","51","3866175","0.0-12.0","l","COGS219_2020_03","<p>Remember, please try not to move or blink your eyes during the presentation of the images. </p><p>At the end of the experiment, we will show you your scores on the task so you can see how you did.</p><p>The experiment will start on the next screen.</p>","32","","","","","","","",""
"null","","audio-keyboard-response","52","3868779","0.0-13.0-0.0","l","COGS219_2020_03","Sounds/gun_label.wav","null","1","","","","","","",""
"null","","html-keyboard-response","53","3869768","0.0-13.0-1.0","l","COGS219_2020_03","<p style=""font-size: 48px;"">+</p>","null","1","","","","","","",""
"453.4550000098534","","image-keyboard-response","54","3870223","0.0-13.0-2.0","l","COGS219_2020_03","Images/gun_2.png","76","1","1581275265588","match","gun","gun","label","test","true"
"null","","audio-keyboard-response","55","3872239","0.0-13.0-3.0","l","COGS219_2020_03","Sounds/correct.wav","null","1","","","","","","",""
"null","","audio-keyboard-response","56","3873360","0.0-13.0-0.1","l","COGS219_2020_03","Sounds/motorcycle_sound.wav","null","1","","","","","","",""
"null","","html-keyboard-response","57","3874351","0.0-13.0-1.1","l","COGS219_2020_03","<p style=""font-size: 48px;"">+</p>","null","1","","","","","","",""
"622.4949999595992","","image-keyboard-response","58","3874975","0.0-13.0-2.1","l","COGS219_2020_03","Images/motorcycle_2.png","76","1","1581275270172","match","motorcycle","motorcycle","sound","test","true"
"null","","audio-keyboard-response","59","3876993","0.0-13.0-3.1","l","COGS219_2020_03","Sounds/correct.wav","null","1","","","","","","",""
"null","","audio-keyboard-response","60","3878079","0.0-13.0-0.2","l","COGS219_2020_03","Sounds/car_sound.wav","null","1","","","","","","",""
"null","","html-keyboard-response","61","3879085","0.0-13.0-1.2","l","COGS219_2020_03","<p style=""font-size: 48px;"">+</p>","null","1","","","","","","",""
"560.5499999946915","","image-keyboard-response","62","3879647","0.0-13.0-2.2","l","COGS219_2020_03","Images/car_orig.png","76","1","1581275274905","match","car","car","sound","test","true"
"null","","audio-keyboard-response","63","3881657","0.0-13.0-3.2","l","COGS219_2020_03","Sounds/correct.wav","null","1","","","","","","",""
"null","","audio-keyboard-response","64","3882739","0.0-13.0-0.3","l","COGS219_2020_03","Sounds/motorcycle_sound.wav","null","1","","","","","","",""
"null","","html-keyboard-response","65","3883735","0.0-13.0-1.3","l","COGS219_2020_03","<p style=""font-size: 48px;"">+</p>","null","1","","","","","","",""
"566.6450000135228","","image-keyboard-response","66","3884303","0.0-13.0-2.3","l","COGS219_2020_03","Images/cat_cartoon.png","65","1","1581275279555","non-match","cat","motorcycle","sound","test","true"
"null","","audio-keyboard-response","67","3886308","0.0-13.0-3.3","l","COGS219_2020_03","Sounds/correct.wav","null","1","","","","","","",""
"null","","audio-keyboard-response","68","3887019","0.0-13.0-0.4","l","COGS219_2020_03","Sounds/dog_sound.wav","null","1","","","","","","",""
"null","","html-keyboard-response","69","3888019","0.0-13.0-1.4","l","COGS219_2020_03","<p style=""font-size: 48px;"">+</p>","null","1","","","","","","",""
"425.1149999909103","","image-keyboard-response","70","3888447","0.0-13.0-2.4","l","COGS219_2020_03","Images/dog_3.png","76","1","1581275283839","match","dog","dog","sound","test","true"
"null","","audio-keyboard-response","71","3890457","0.0-13.0-3.4","l","COGS219_2020_03","Sounds/correct.wav","null","1","","","","","","",""
"null","","audio-keyboard-response","72","3891119","0.0-13.0-0.5","l","COGS219_2020_03","Sounds/dog_label.wav","null","1","","","","","","",""
"null","","html-keyboard-response","73","3892118","0.0-13.0-1.5","l","COGS219_2020_03","<p style=""font-size: 48px;"">+</p>","null","1","","","","","","",""
"375.3199999919161","","image-keyboard-response","74","3892495","0.0-13.0-2.5","l","COGS219_2020_03","Images/dog_2.png","76","1","1581275287938","match","dog","dog","label","test","true"
"null","","audio-keyboard-response","75","3894506","0.0-13.0-3.5","l","COGS219_2020_03","Sounds/correct.wav","null","1","","","","","","",""
"null","","audio-keyboard-response","76","3895339","0.0-13.0-0.6","l","COGS219_2020_03","Sounds/cat_label.wav","null","1","","","","","","",""
"null","","html-keyboard-response","77","3896335","0.0-13.0-1.6","l","COGS219_2020_03","<p style=""font-size: 48px;"">+</p>","null","1","","","","","","",""
"590.4350000200793","","image-keyboard-response","78","3896926","0.0-13.0-2.6","l","COGS219_2020_03","Images/car_2.png","65","1","1581275292155","non-match","car","cat","label","test","true"
"null","","audio-keyboard-response","79","3898941","0.0-13.0-3.6","l","COGS219_2020_03","Sounds/correct.wav","null","1","","","","","","",""
"null","","audio-keyboard-response","80","3899519","0.0-13.0-0.7","l","COGS219_2020_03","Sounds/gun_label.wav","null","1","","","","","","",""
"null","","html-keyboard-response","81","3900519","0.0-13.0-1.7","l","COGS219_2020_03","<p style=""font-size: 48px;"">+</p>","null","1","","","","","","",""
"551.3499999651685","","image-keyboard-response","82","3901071","0.0-13.0-2.7","l","COGS219_2020_03","Images/gun_1.png","76","1","1581275296339","match","gun","gun","label","test","true"
"null","","audio-keyboard-response","83","3903076","0.0-13.0-3.7","l","COGS219_2020_03","Sounds/correct.wav","null","1","","","","","","",""
"null","","audio-keyboard-response","84","3903779","0.0-13.0-0.8","l","COGS219_2020_03","Sounds/rooster_label.wav","null","1","","","","","","",""
"null","","html-keyboard-response","85","3904768","0.0-13.0-1.8","l","COGS219_2020_03","<p style=""font-size: 48px;"">+</p>","null","1","","","","","","",""
"525.3549999906681","","image-keyboard-response","86","3905295","0.0-13.0-2.8","l","COGS219_2020_03","Images/cow_1.png","65","1","1581275300589","non-match","cow","rooster","label","test","true"
"null","","audio-keyboard-response","87","3907305","0.0-13.0-3.8","l","COGS219_2020_03","Sounds/correct.wav","null","1","","","","","","",""
"null","","audio-keyboard-response","88","3908319","0.0-13.0-0.9","l","COGS219_2020_03","Sounds/cow_label.wav","null","1","","","","","","",""
"null","","html-keyboard-response","89","3909319","0.0-13.0-1.9","l","COGS219_2020_03","<p style=""font-size: 48px;"">+</p>","null","1","","","","","","",""
"582.799999974668","","image-keyboard-response","90","3909903","0.0-13.0-2.9","l","COGS219_2020_03","Images/cow_orig.png","76","1","1581275305139","match","cow","cow","label","test","true"
"null","","audio-keyboard-response","91","3911907","0.0-13.0-3.9","l","COGS219_2020_03","Sounds/correct.wav","null","1","","","","","","",""
"null","","audio-keyboard-response","92","3912919","0.0-13.0-0.10","l","COGS219_2020_03","Sounds/cow_sound.wav","null","1","","","","","","",""
"null","","html-keyboard-response","93","3913919","0.0-13.0-1.10","l","COGS219_2020_03","<p style=""font-size: 48px;"">+</p>","null","1","","","","","","",""
"447.22000003093854","","image-keyboard-response","94","3914367","0.0-13.0-2.10","l","COGS219_2020_03","Images/rooster_orig.png","65","1","1581275309739","non-match","rooster","cow","sound","test","true"
"null","","audio-keyboard-response","95","3916374","0.0-13.0-3.10","l","COGS219_2020_03","Sounds/correct.wav","null","1","","","","","","",""
"null","","audio-keyboard-response","96","3917359","0.0-13.0-0.11","l","COGS219_2020_03","Sounds/cow_sound.wav","null","1","","","","","","",""
"null","","html-keyboard-response","97","3918352","0.0-13.0-1.11","l","COGS219_2020_03","<p style=""font-size: 48px;"">+</p>","null","1","","","","","","",""
"509.84000001335517","","image-keyboard-response","98","3918863","0.0-13.0-2.11","l","COGS219_2020_03","Images/dog_orig.png","76","1","1581275314172","non-match","dog","cow","sound","test","false"
"null","","audio-keyboard-response","99","3920872","0.0-13.0-3.11","l","COGS219_2020_03","Sounds/incorrect.wav","null","1","","","","","","",""
"null","","audio-keyboard-response","100","3921439","0.0-13.0-0.12","l","COGS219_2020_03","Sounds/gun_label.wav","null","1","","","","","","",""
"null","","html-keyboard-response","101","3922435","0.0-13.0-1.12","l","COGS219_2020_03","<p style=""font-size: 48px;"">+</p>","null","1","","","","","","",""
"506.24999997671694","","image-keyboard-response","102","3922943","0.0-13.0-2.12","l","COGS219_2020_03","Images/train_orig.png","65","1","1581275318255","non-match","train","gun","label","test","true"
"null","","audio-keyboard-response","103","3924944","0.0-13.0-3.12","l","COGS219_2020_03","Sounds/correct.wav","null","1","","","","","","",""
"null","","audio-keyboard-response","104","3925779","0.0-13.0-0.13","l","COGS219_2020_03","Sounds/cat_sound.wav","null","1","","","","","","",""
"null","","html-keyboard-response","105","3926778","0.0-13.0-1.13","l","COGS219_2020_03","<p style=""font-size: 48px;"">+</p>","null","1","","","","","","",""
"525.4100000020117","","image-keyboard-response","106","3927304","0.0-13.0-2.13","l","COGS219_2020_03","Images/cat_3.png","76","1","1581275322598","match","cat","cat","sound","test","true"
"null","","audio-keyboard-response","107","3929314","0.0-13.0-3.13","l","COGS219_2020_03","Sounds/correct.wav","null","1","","","","","","",""
"null","","audio-keyboard-response","108","3930128","0.0-13.0-0.14","l","COGS219_2020_03","Sounds/cat_sound.wav","null","1","","","","","","",""
"null","","html-keyboard-response","109","3931128","0.0-13.0-1.14","l","COGS219_2020_03","<p style=""font-size: 48px;"">+</p>","null","1","","","","","","",""
"431.26500002108514","","image-keyboard-response","110","3931560","0.0-13.0-2.14","l","COGS219_2020_03","Images/dog_2.png","65","1","1581275326948","non-match","dog","cat","sound","test","true"
"null","","audio-keyboard-response","111","3933567","0.0-13.0-3.14","l","COGS219_2020_03","Sounds/correct.wav","null","1","","","","","","",""
"null","","audio-keyboard-response","112","3934468","0.0-13.0-0.15","l","COGS219_2020_03","Sounds/frog_sound.wav","null","1","","","","","","",""
"null","","html-keyboard-response","113","3935461","0.0-13.0-1.15","l","COGS219_2020_03","<p style=""font-size: 48px;"">+</p>","null","1","","","","","","",""
"705.5099999997765","","image-keyboard-response","114","3936168","0.0-13.0-2.15","l","COGS219_2020_03","Images/frog_cartoon.png","76","1","1581275331282","match","frog","frog","sound","test","true"
"null","","audio-keyboard-response","115","3938182","0.0-13.0-3.15","l","COGS219_2020_03","Sounds/correct.wav","null","1","","","","","","",""
"null","","audio-keyboard-response","116","3939268","0.0-13.0-0.16","l","COGS219_2020_03","Sounds/car_label.wav","null","1","","","","","","",""
"null","","html-keyboard-response","117","3940261","0.0-13.0-1.16","l","COGS219_2020_03","<p style=""font-size: 48px;"">+</p>","null","1","","","","","","",""
"609.775000018999","","image-keyboard-response","118","3940872","0.0-13.0-2.16","l","COGS219_2020_03","Images/gun_3.png","65","1","1581275336082","non-match","gun","car","label","test","true"
"null","","audio-keyboard-response","119","3942883","0.0-13.0-3.16","l","COGS219_2020_03","Sounds/correct.wav","null","1","","","","","","",""
"null","","audio-keyboard-response","120","3944168","0.0-13.0-0.17","l","COGS219_2020_03","Sounds/train_label.wav","null","1","","","","","","",""
"null","","html-keyboard-response","121","3945161","0.0-13.0-1.17","l","COGS219_2020_03","<p style=""font-size: 48px;"">+</p>","null","1","","","","","","",""
"493.69500001193956","","image-keyboard-response","122","3945656","0.0-13.0-2.17","l","COGS219_2020_03","Images/car_3.png","65","1","1581275340982","non-match","car","train","label","test","true"
"null","","audio-keyboard-response","123","3947666","0.0-13.0-3.17","l","COGS219_2020_03","Sounds/correct.wav","null","1","","","","","","",""
"null","","audio-keyboard-response","124","3948368","0.0-13.0-0.18","l","COGS219_2020_03","Sounds/rooster_label.wav","null","1","","","","","","",""
"null","","html-keyboard-response","125","3949362","0.0-13.0-1.18","l","COGS219_2020_03","<p style=""font-size: 48px;"">+</p>","null","1","","","","","","",""
"531.3099999912083","","image-keyboard-response","126","3949896","0.0-13.0-2.18","l","COGS219_2020_03","Images/rooster_1.png","76","1","1581275345182","match","rooster","rooster","label","test","true"
"null","","audio-keyboard-response","127","3951900","0.0-13.0-3.18","l","COGS219_2020_03","Sounds/correct.wav","null","1","","","","","","",""
"null","","audio-keyboard-response","128","3952948","0.0-13.0-0.19","l","COGS219_2020_03","Sounds/car_label.wav","null","1","","","","","","",""
"null","","html-keyboard-response","129","3953945","0.0-13.0-1.19","l","COGS219_2020_03","<p style=""font-size: 48px;"">+</p>","null","1","","","","","","",""
"478.3149999566376","","image-keyboard-response","130","3954424","0.0-13.0-2.19","l","COGS219_2020_03","Images/dog_1.png","65","1","1581275349765","non-match","dog","car","label","test","true"
"null","","audio-keyboard-response","131","3956433","0.0-13.0-3.19","l","COGS219_2020_03","Sounds/correct.wav","null","1","","","","","","",""
"null","","audio-keyboard-response","132","3957268","0.0-13.0-0.20","l","COGS219_2020_03","Sounds/cat_label.wav","null","1","","","","","","",""
"null","","html-keyboard-response","133","3958262","0.0-13.0-1.20","l","COGS219_2020_03","<p style=""font-size: 48px;"">+</p>","null","1","","","","","","",""
"433.39999997988343","","image-keyboard-response","134","3958696","0.0-13.0-2.20","l","COGS219_2020_03","Images/cat_orig.png","76","1","1581275354082","match","cat","cat","label","test","true"
"null","","audio-keyboard-response","135","3960701","0.0-13.0-3.20","l","COGS219_2020_03","Sounds/correct.wav","null","1","","","","","","",""
"null","","audio-keyboard-response","136","3962008","0.0-13.0-0.21","l","COGS219_2020_03","Sounds/train_sound.wav","null","1","","","","","","",""
"null","","html-keyboard-response","137","3963012","0.0-13.0-1.21","l","COGS219_2020_03","<p style=""font-size: 48px;"">+</p>","null","1","","","","","","",""
"531.3800000003539","","image-keyboard-response","138","3963544","0.0-13.0-2.21","l","COGS219_2020_03","Images/whistle_2.png","65","1","1581275358832","non-match","whistle","train","sound","test","true"
"null","","audio-keyboard-response","139","3965553","0.0-13.0-3.21","l","COGS219_2020_03","Sounds/correct.wav","null","1","","","","","","",""
"null","","audio-keyboard-response","140","3966368","0.0-13.0-0.22","l","COGS219_2020_03","Sounds/cat_label.wav","null","1","","","","","","",""
"null","","html-keyboard-response","141","3967362","0.0-13.0-1.22","l","COGS219_2020_03","<p style=""font-size: 48px;"">+</p>","null","1","","","","","","",""
"437.54999997327104","","image-keyboard-response","142","3967800","0.0-13.0-2.22","l","COGS219_2020_03","Images/cat_1.png","76","1","1581275363182","match","cat","cat","label","test","true"
"null","","audio-keyboard-response","143","3969816","0.0-13.0-3.22","l","COGS219_2020_03","Sounds/correct.wav","null","1","","","","","","",""
"null","","audio-keyboard-response","144","3970948","0.0-13.0-0.23","l","COGS219_2020_03","Sounds/motorcycle_label.wav","null","1","","","","","","",""
"null","","html-keyboard-response","145","3971945","0.0-13.0-1.23","l","COGS219_2020_03","<p style=""font-size: 48px;"">+</p>","null","1","","","","","","",""
"477.8450000449084","","image-keyboard-response","146","3972424","0.0-13.0-2.23","l","COGS219_2020_03","Images/whistle_orig.png","65","1","1581275367765","non-match","whistle","motorcycle","label","test","true"
"null","","audio-keyboard-response","147","3974433","0.0-13.0-3.23","l","COGS219_2020_03","Sounds/correct.wav","null","1","","","","","","",""
"null","","audio-keyboard-response","148","3975128","0.0-13.0-0.24","l","COGS219_2020_03","Sounds/whistle_sound.wav","null","1","","","","","","",""
"null","","html-keyboard-response","149","3976128","0.0-13.0-1.24","l","COGS219_2020_03","<p style=""font-size: 48px;"">+</p>","null","1","","","","","","",""
"470.424999948591","","image-keyboard-response","150","3976600","0.0-13.0-2.24","l","COGS219_2020_03","Images/train_2.png","65","1","1581275371949","non-match","train","whistle","sound","test","true"
"null","","audio-keyboard-response","151","3978616","0.0-13.0-3.24","l","COGS219_2020_03","Sounds/correct.wav","null","1","","","","","","",""
"null","","audio-keyboard-response","152","3979288","0.0-13.0-0.25","l","COGS219_2020_03","Sounds/whistle_sound.wav","null","1","","","","","","",""
"null","","html-keyboard-response","153","3980279","0.0-13.0-1.25","l","COGS219_2020_03","<p style=""font-size: 48px;"">+</p>","null","1","","","","","","",""
"560.4999999632128","","image-keyboard-response","154","3980840","0.0-13.0-2.25","l","COGS219_2020_03","Images/gun_cartoon.png","65","1","1581275376099","non-match","gun","whistle","sound","test","true"
"null","","audio-keyboard-response","155","3982849","0.0-13.0-3.25","l","COGS219_2020_03","Sounds/correct.wav","null","1","","","","","","",""
"null","","audio-keyboard-response","156","3983768","0.0-13.0-0.26","l","COGS219_2020_03","Sounds/frog_sound.wav","null","1","","","","","","",""
"null","","html-keyboard-response","157","3984762","0.0-13.0-1.26","l","COGS219_2020_03","<p style=""font-size: 48px;"">+</p>","null","1","","","","","","",""
"493.0649999878369","","image-keyboard-response","158","3985256","0.0-13.0-2.26","l","COGS219_2020_03","Images/motorcycle_cartoon.png","65","1","1581275380582","non-match","motorcycle","frog","sound","test","true"
"null","","audio-keyboard-response","159","3987267","0.0-13.0-3.26","l","COGS219_2020_03","Sounds/correct.wav","null","1","","","","","","",""
"null","","audio-keyboard-response","160","3988150","0.0-13.0-0.27","l","COGS219_2020_03","Sounds/frog_sound.wav","null","1","","","","","","",""
"null","","html-keyboard-response","161","3989147","0.0-13.0-1.27","l","COGS219_2020_03","<p style=""font-size: 48px;"">+</p>","null","1","","","","","","",""
"558.214999968186","","image-keyboard-response","162","3989706","0.0-13.0-2.27","l","COGS219_2020_03","Images/dog_3.png","65","1","1581275384967","non-match","dog","frog","sound","test","true"
"null","","audio-keyboard-response","163","3991718","0.0-13.0-3.27","l","COGS219_2020_03","Sounds/correct.wav","null","1","","","","","","",""
"null","","audio-keyboard-response","164","3992370","0.0-13.0-0.28","l","COGS219_2020_03","Sounds/dog_label.wav","null","1","","","","","","",""
"null","","html-keyboard-response","165","3993364","0.0-13.0-1.28","l","COGS219_2020_03","<p style=""font-size: 48px;"">+</p>","null","1","","","","","","",""
"597.0199999865144","","image-keyboard-response","166","3993962","0.0-13.0-2.28","l","COGS219_2020_03","Images/frog_1.png","65","1","1581275389184","non-match","frog","dog","label","test","true"
"null","","audio-keyboard-response","167","3995969","0.0-13.0-3.28","l","COGS219_2020_03","Sounds/correct.wav","null","1","","","","","","",""
"null","","audio-keyboard-response","168","3997050","0.0-13.0-0.29","l","COGS219_2020_03","Sounds/car_label.wav","null","1","","","","","","",""
"null","","html-keyboard-response","169","3998047","0.0-13.0-1.29","l","COGS219_2020_03","<p style=""font-size: 48px;"">+</p>","null","1","","","","","","",""
"537.609999999404","","image-keyboard-response","170","3998586","0.0-13.0-2.29","l","COGS219_2020_03","Images/train_cartoon.png","65","1","1581275393867","non-match","train","car","label","test","true"
"null","","audio-keyboard-response","171","4000601","0.0-13.0-3.29","l","COGS219_2020_03","Sounds/correct.wav","null","1","","","","","","",""
"null","","audio-keyboard-response","172","4001290","0.0-13.0-0.30","l","COGS219_2020_03","Sounds/whistle_label.wav","null","1","","","","","","",""
"null","","html-keyboard-response","173","4002281","0.0-13.0-1.30","l","COGS219_2020_03","<p style=""font-size: 48px;"">+</p>","null","1","","","","","","",""
"448.06000002427027","","image-keyboard-response","174","4002730","0.0-13.0-2.30","l","COGS219_2020_03","Images/whistle_orig.png","76","1","1581275398101","match","whistle","whistle","label","test","true"
"null","","audio-keyboard-response","175","4004738","0.0-13.0-3.30","l","COGS219_2020_03","Sounds/correct.wav","null","1","","","","","","",""
"null","","audio-keyboard-response","176","4005310","0.0-13.0-0.31","l","COGS219_2020_03","Sounds/gun_label.wav","null","1","","","","","","",""
"null","","html-keyboard-response","177","4006314","0.0-13.0-1.31","l","COGS219_2020_03","<p style=""font-size: 48px;"">+</p>","null","1","","","","","","",""
"478.8549999939278","","image-keyboard-response","178","4006794","0.0-13.0-2.31","l","COGS219_2020_03","Images/gun_cartoon.png","76","1","1581275402134","match","gun","gun","label","test","true"
"null","","audio-keyboard-response","179","4008803","0.0-13.0-3.31","l","COGS219_2020_03","Sounds/correct.wav","null","1","","","","","","",""
"null","","audio-keyboard-response","180","4009870","0.0-13.0-0.32","l","COGS219_2020_03","Sounds/car_sound.wav","null","1","","","","","","",""
"null","","html-keyboard-response","181","4010864","0.0-13.0-1.32","l","COGS219_2020_03","<p style=""font-size: 48px;"">+</p>","null","1","","","","","","",""
"536.7500000284053","","image-keyboard-response","182","4011402","0.0-13.0-2.32","l","COGS219_2020_03","Images/car_2.png","76","1","1581275406684","match","car","car","sound","test","true"
"null","","audio-keyboard-response","183","4013404","0.0-13.0-3.32","l","COGS219_2020_03","Sounds/correct.wav","null","1","","","","","","",""
"null","","audio-keyboard-response","184","4014450","0.0-13.0-0.33","l","COGS219_2020_03","Sounds/car_label.wav","null","1","","","","","","",""
"null","","html-keyboard-response","185","4015448","0.0-13.0-1.33","l","COGS219_2020_03","<p style=""font-size: 48px;"">+</p>","null","1","","","","","","",""
"513.5299999965355","","image-keyboard-response","186","4015962","0.0-13.0-2.33","l","COGS219_2020_03","Images/whistle_3.png","65","1","1581275411268","non-match","whistle","car","label","test","true"
"null","","audio-keyboard-response","187","4017971","0.0-13.0-3.33","l","COGS219_2020_03","Sounds/correct.wav","null","1","","","","","","",""
"null","","audio-keyboard-response","188","4018650","0.0-13.0-0.34","l","COGS219_2020_03","Sounds/whistle_label.wav","null","1","","","","","","",""
"null","","html-keyboard-response","189","4019647","0.0-13.0-1.34","l","COGS219_2020_03","<p style=""font-size: 48px;"">+</p>","null","1","","","","","","",""
"489.6149999694899","","image-keyboard-response","190","4020138","0.0-13.0-2.34","l","COGS219_2020_03","Images/cat_orig.png","65","1","1581275415468","non-match","cat","whistle","label","test","true"
"null","","audio-keyboard-response","191","4022152","0.0-13.0-3.34","l","COGS219_2020_03","Sounds/correct.wav","null","1","","","","","","",""
"null","","audio-keyboard-response","192","4023290","0.0-13.0-0.35","l","COGS219_2020_03","Sounds/motorcycle_label.wav","null","1","","","","","","",""
"null","","html-keyboard-response","193","4024281","0.0-13.0-1.35","l","COGS219_2020_03","<p style=""font-size: 48px;"">+</p>","null","1","","","","","","",""
"640.0350000476465","","image-keyboard-response","194","4024922","0.0-13.0-2.35","l","COGS219_2020_03","Images/motorcycle_cartoon.png","76","1","1581275420101","match","motorcycle","motorcycle","label","test","true"
"null","","audio-keyboard-response","195","4026935","0.0-13.0-3.35","l","COGS219_2020_03","Sounds/correct.wav","null","1","","","","","","",""
"null","","audio-keyboard-response","196","4027830","0.0-13.0-0.36","l","COGS219_2020_03","Sounds/frog_label.wav","null","1","","","","","","",""
"null","","html-keyboard-response","197","4028831","0.0-13.0-1.36","l","COGS219_2020_03","<p style=""font-size: 48px;"">+</p>","null","1","","","","","","",""
"585.8750000479631","","image-keyboard-response","198","4029418","0.0-13.0-2.36","l","COGS219_2020_03","Images/frog_3.png","76","1","1581275424651","match","frog","frog","label","test","true"
"null","","audio-keyboard-response","199","4031433","0.0-13.0-3.36","l","COGS219_2020_03","Sounds/correct.wav","null","1","","","","","","",""
"null","","audio-keyboard-response","200","4032150","0.0-13.0-0.37","l","COGS219_2020_03","Sounds/dog_sound.wav","null","1","","","","","","",""
"null","","html-keyboard-response","201","4033148","0.0-13.0-1.37","l","COGS219_2020_03","<p style=""font-size: 48px;"">+</p>","null","1","","","","","","",""
"477.42499999003485","","image-keyboard-response","202","4033626","0.0-13.0-2.37","l","COGS219_2020_03","Images/dog_orig.png","76","1","1581275428968","match","dog","dog","sound","test","true"
"null","","audio-keyboard-response","203","4035635","0.0-13.0-3.37","l","COGS219_2020_03","Sounds/correct.wav","null","1","","","","","","",""
"null","","audio-keyboard-response","204","4036470","0.0-13.0-0.38","l","COGS219_2020_03","Sounds/cat_label.wav","null","1","","","","","","",""
"null","","html-keyboard-response","205","4037464","0.0-13.0-1.38","l","COGS219_2020_03","<p style=""font-size: 48px;"">+</p>","null","1","","","","","","",""
"448.2399999978952","","image-keyboard-response","206","4037914","0.0-13.0-2.38","l","COGS219_2020_03","Images/frog_3.png","65","1","1581275433284","non-match","frog","cat","label","test","true"
"null","","audio-keyboard-response","207","4039920","0.0-13.0-3.38","l","COGS219_2020_03","Sounds/correct.wav","null","1","","","","","","",""
"null","","audio-keyboard-response","208","4040610","0.0-13.0-0.39","l","COGS219_2020_03","Sounds/rooster_label.wav","null","1","","","","","","",""
"null","","html-keyboard-response","209","4041615","0.0-13.0-1.39","l","COGS219_2020_03","<p style=""font-size: 48px;"">+</p>","null","1","","","","","","",""
"442.30499997502193","","image-keyboard-response","210","4042058","0.0-13.0-2.39","l","COGS219_2020_03","Images/rooster_2.png","76","1","1581275437435","match","rooster","rooster","label","test","true"
"null","","audio-keyboard-response","211","4044067","0.0-13.0-3.39","l","COGS219_2020_03","Sounds/correct.wav","null","1","","","","","","",""
"null","","audio-keyboard-response","212","4044930","0.0-13.0-0.40","l","COGS219_2020_03","Sounds/frog_label.wav","null","1","","","","","","",""
"null","","html-keyboard-response","213","4045948","0.0-13.0-1.40","l","COGS219_2020_03","<p style=""font-size: 48px;"">+</p>","null","1","","","","","","",""
"413.1949999718927","","image-keyboard-response","214","4046362","0.0-13.0-2.40","l","COGS219_2020_03","Images/car_cartoon.png","65","1","1581275441768","non-match","car","frog","label","test","true"
"null","","audio-keyboard-response","215","4048373","0.0-13.0-3.40","l","COGS219_2020_03","Sounds/correct.wav","null","1","","","","","","",""
"null","","audio-keyboard-response","216","4049072","0.0-13.0-0.41","l","COGS219_2020_03","Sounds/dog_sound.wav","null","1","","","","","","",""
"null","","html-keyboard-response","217","4050066","0.0-13.0-1.41","l","COGS219_2020_03","<p style=""font-size: 48px;"">+</p>","null","1","","","","","","",""
"440.2750000008382","","image-keyboard-response","218","4050508","0.0-13.0-2.41","l","COGS219_2020_03","Images/cow_orig.png","65","1","1581275445887","non-match","cow","dog","sound","test","true"
"null","","audio-keyboard-response","219","4052518","0.0-13.0-3.41","l","COGS219_2020_03","Sounds/correct.wav","null","1","","","","","","",""
"null","","audio-keyboard-response","220","4053532","0.0-13.0-0.42","l","COGS219_2020_03","Sounds/cow_sound.wav","null","1","","","","","","",""
"null","","html-keyboard-response","221","4054550","0.0-13.0-1.42","l","COGS219_2020_03","<p style=""font-size: 48px;"">+</p>","null","1","","","","","","",""
"500.9800000116229","","image-keyboard-response","222","4055052","0.0-13.0-2.42","l","COGS219_2020_03","Images/cow_2.png","76","1","1581275450370","match","cow","cow","sound","test","true"
"null","","audio-keyboard-response","223","4057055","0.0-13.0-3.42","l","COGS219_2020_03","Sounds/correct.wav","null","1","","","","","","",""
"null","","audio-keyboard-response","224","4057632","0.0-13.0-0.43","l","COGS219_2020_03","Sounds/gun_sound.wav","null","1","","","","","","",""
"null","","html-keyboard-response","225","4058650","0.0-13.0-1.43","l","COGS219_2020_03","<p style=""font-size: 48px;"">+</p>","null","1","","","","","","",""
"496.964999998454","","image-keyboard-response","226","4059148","0.0-13.0-2.43","l","COGS219_2020_03","Images/whistle_1.png","65","1","1581275454470","non-match","whistle","gun","sound","test","true"
"null","","audio-keyboard-response","227","4061155","0.0-13.0-3.43","l","COGS219_2020_03","Sounds/correct.wav","null","1","","","","","","",""
"null","","audio-keyboard-response","228","4061712","0.0-13.0-0.44","l","COGS219_2020_03","Sounds/gun_sound.wav","null","1","","","","","","",""
"null","","html-keyboard-response","229","4062717","0.0-13.0-1.44","l","COGS219_2020_03","<p style=""font-size: 48px;"">+</p>","null","1","","","","","","",""
"413.98000001208857","","image-keyboard-response","230","4063132","0.0-13.0-2.44","l","COGS219_2020_03","Images/gun_3.png","76","1","1581275458537","match","gun","gun","sound","test","true"
"null","","audio-keyboard-response","231","4065139","0.0-13.0-3.44","l","COGS219_2020_03","Sounds/correct.wav","null","1","","","","","","",""
"null","","audio-keyboard-response","232","4065792","0.0-13.0-0.45","l","COGS219_2020_03","Sounds/dog_label.wav","null","1","","","","","","",""
"null","","html-keyboard-response","233","4066783","0.0-13.0-1.45","l","COGS219_2020_03","<p style=""font-size: 48px;"">+</p>","null","1","","","","","","",""
"539.4949999754317","","image-keyboard-response","234","4067324","0.0-13.0-2.45","l","COGS219_2020_03","Images/cat_2.png","65","1","1581275462603","non-match","cat","dog","label","test","true"
"null","","audio-keyboard-response","235","4069337","0.0-13.0-3.45","l","COGS219_2020_03","Sounds/correct.wav","null","1","","","","","","",""
"null","","audio-keyboard-response","236","4070032","0.0-13.0-0.46","l","COGS219_2020_03","Sounds/rooster_label.wav","null","1","","","","","","",""
"null","","html-keyboard-response","237","4071050","0.0-13.0-1.46","l","COGS219_2020_03","<p style=""font-size: 48px;"">+</p>","null","1","","","","","","",""
"417.03000001143664","","image-keyboard-response","238","4071468","0.0-13.0-2.46","l","COGS219_2020_03","Images/frog_orig.png","65","1","1581275466870","non-match","frog","rooster","label","test","true"
"null","","audio-keyboard-response","239","4073475","0.0-13.0-3.46","l","COGS219_2020_03","Sounds/correct.wav","null","1","","","","","","",""
"null","","audio-keyboard-response","240","4074032","0.0-13.0-0.47","l","COGS219_2020_03","Sounds/gun_sound.wav","null","1","","","","","","",""
"null","","html-keyboard-response","241","4075050","0.0-13.0-1.47","l","COGS219_2020_03","<p style=""font-size: 48px;"">+</p>","null","1","","","","","","",""
"400.72500001406297","","image-keyboard-response","242","4075452","0.0-13.0-2.47","l","COGS219_2020_03","Images/car_1.png","65","1","1581275470870","non-match","car","gun","sound","test","true"
"null","","audio-keyboard-response","243","4077457","0.0-13.0-3.47","l","COGS219_2020_03","Sounds/correct.wav","null","1","","","","","","",""
"null","","audio-keyboard-response","244","4078012","0.0-13.0-0.48","l","COGS219_2020_03","Sounds/gun_sound.wav","null","1","","","","","","",""
"null","","html-keyboard-response","245","4079017","0.0-13.0-1.48","l","COGS219_2020_03","<p style=""font-size: 48px;"">+</p>","null","1","","","","","","",""
"497.7500000386499","","image-keyboard-response","246","4079516","0.0-13.0-2.48","l","COGS219_2020_03","Images/cow_3.png","65","1","1581275474837","non-match","cow","gun","sound","test","true"
"null","","audio-keyboard-response","247","4081523","0.0-13.0-3.48","l","COGS219_2020_03","Sounds/correct.wav","null","1","","","","","","",""
"null","","audio-keyboard-response","248","4082232","0.0-13.0-0.49","l","COGS219_2020_03","Sounds/whistle_sound.wav","null","1","","","","","","",""
"null","","html-keyboard-response","249","4083250","0.0-13.0-1.49","l","COGS219_2020_03","<p style=""font-size: 48px;"">+</p>","null","1","","","","","","",""
"456.92999998573214","","image-keyboard-response","250","4083708","0.0-13.0-2.49","l","COGS219_2020_03","Images/cow_cartoon.png","65","1","1581275479070","non-match","cow","whistle","sound","test","true"
"null","","audio-keyboard-response","251","4085721","0.0-13.0-3.49","l","COGS219_2020_03","Sounds/correct.wav","null","1","","","","","","",""
"null","","audio-keyboard-response","252","4086432","0.0-13.0-0.50","l","COGS219_2020_03","Sounds/dog_sound.wav","null","1","","","","","","",""
"null","","html-keyboard-response","253","4087450","0.0-13.0-1.50","l","COGS219_2020_03","<p style=""font-size: 48px;"">+</p>","null","1","","","","","","",""
"464.76000000257045","","image-keyboard-response","254","4087916","0.0-13.0-2.50","l","COGS219_2020_03","Images/dog_cartoon.png","76","1","1581275483270","match","dog","dog","sound","test","true"
"null","","audio-keyboard-response","255","4089924","0.0-13.0-3.50","l","COGS219_2020_03","Sounds/correct.wav","null","1","","","","","","",""
"null","","audio-keyboard-response","256","4090632","0.0-13.0-0.51","l","COGS219_2020_03","Sounds/rooster_sound.wav","null","1","","","","","","",""
"null","","html-keyboard-response","257","4091650","0.0-13.0-1.51","l","COGS219_2020_03","<p style=""font-size: 48px;"">+</p>","null","1","","","","","","",""
"376.52500002877787","","image-keyboard-response","258","4092028","0.0-13.0-2.51","l","COGS219_2020_03","Images/rooster_cartoon.png","76","1","1581275487470","match","rooster","rooster","sound","test","true"
"null","","audio-keyboard-response","259","4094036","0.0-13.0-3.51","l","COGS219_2020_03","Sounds/correct.wav","null","1","","","","","","",""
"null","","audio-keyboard-response","260","4095332","0.0-13.0-0.52","l","COGS219_2020_03","Sounds/train_sound.wav","null","1","","","","","","",""
"null","","html-keyboard-response","261","4096350","0.0-13.0-1.52","l","COGS219_2020_03","<p style=""font-size: 48px;"">+</p>","null","1","","","","","","",""
"507.3149999952875","","image-keyboard-response","262","4096860","0.0-13.0-2.52","l","COGS219_2020_03","Images/train_orig.png","65","1","1581275492170","match","train","train","sound","test","false"
"null","","audio-keyboard-response","263","4098871","0.0-13.0-3.52","l","COGS219_2020_03","Sounds/incorrect.wav","null","1","","","","","","",""
"null","","audio-keyboard-response","264","4100152","0.0-13.0-0.53","l","COGS219_2020_03","Sounds/train_label.wav","null","1","","","","","","",""
"null","","html-keyboard-response","265","4101150","0.0-13.0-1.53","l","COGS219_2020_03","<p style=""font-size: 48px;"">+</p>","null","1","","","","","","",""
"412.46000002138317","","image-keyboard-response","266","4101564","0.0-13.0-2.53","l","COGS219_2020_03","Images/train_1.png","76","1","1581275496970","match","train","train","label","test","true"
"null","","audio-keyboard-response","267","4103573","0.0-13.0-3.53","l","COGS219_2020_03","Sounds/correct.wav","null","1","","","","","","",""
"null","","audio-keyboard-response","268","4104412","0.0-13.0-0.54","l","COGS219_2020_03","Sounds/cat_label.wav","null","1","","","","","","",""
"null","","html-keyboard-response","269","4105400","0.0-13.0-1.54","l","COGS219_2020_03","<p style=""font-size: 48px;"">+</p>","null","1","","","","","","",""
"514.5049999700859","","image-keyboard-response","270","4105916","0.0-13.0-2.54","l","COGS219_2020_03","Images/cat_cartoon.png","76","1","1581275501221","match","cat","cat","label","test","true"
"null","","audio-keyboard-response","271","4107923","0.0-13.0-3.54","l","COGS219_2020_03","Sounds/correct.wav","null","1","","","","","","",""
"null","","audio-keyboard-response","272","4108614","0.0-13.0-0.55","l","COGS219_2020_03","Sounds/rooster_sound.wav","null","1","","","","","","",""
"null","","html-keyboard-response","273","4109619","0.0-13.0-1.55","l","COGS219_2020_03","<p style=""font-size: 48px;"">+</p>","null","1","","","","","","",""
"472.8599999798462","","image-keyboard-response","274","4110094","0.0-13.0-2.55","l","COGS219_2020_03","Images/rooster_3.png","76","1","1581275505439","match","rooster","rooster","sound","test","true"
"null","","audio-keyboard-response","275","4112107","0.0-13.0-3.55","l","COGS219_2020_03","Sounds/correct.wav","null","1","","","","","","",""
"null","","audio-keyboard-response","276","4113194","0.0-13.0-0.56","l","COGS219_2020_03","Sounds/car_label.wav","null","1","","","","","","",""
"null","","html-keyboard-response","277","4114186","0.0-13.0-1.56","l","COGS219_2020_03","<p style=""font-size: 48px;"">+</p>","null","1","","","","","","",""
"435.01000001560897","","image-keyboard-response","278","4114622","0.0-13.0-2.56","l","COGS219_2020_03","Images/car_3.png","76","1","1581275510006","match","car","car","label","test","true"
"null","","audio-keyboard-response","279","4116634","0.0-13.0-3.56","l","COGS219_2020_03","Sounds/correct.wav","null","1","","","","","","",""
"null","","audio-keyboard-response","280","4117654","0.0-13.0-0.57","l","COGS219_2020_03","Sounds/cow_sound.wav","null","1","","","","","","",""
"null","","html-keyboard-response","281","4118652","0.0-13.0-1.57","l","COGS219_2020_03","<p style=""font-size: 48px;"">+</p>","null","1","","","","","","",""
"448.2500000158325","","image-keyboard-response","282","4119102","0.0-13.0-2.57","l","COGS219_2020_03","Images/cow_cartoon.png","76","1","1581275514472","match","cow","cow","sound","test","true"
"null","","audio-keyboard-response","283","4121109","0.0-13.0-3.57","l","COGS219_2020_03","Sounds/correct.wav","null","1","","","","","","",""
"null","","audio-keyboard-response","284","4121814","0.0-13.0-0.58","l","COGS219_2020_03","Sounds/dog_sound.wav","null","1","","","","","","",""
"null","","html-keyboard-response","285","4122802","0.0-13.0-1.58","l","COGS219_2020_03","<p style=""font-size: 48px;"">+</p>","null","1","","","","","","",""
"602.6449999772012","","image-keyboard-response","286","4123406","0.0-13.0-2.58","l","COGS219_2020_03","Images/rooster_3.png","65","1","1581275518623","non-match","rooster","dog","sound","test","true"
"null","","audio-keyboard-response","287","4125423","0.0-13.0-3.58","l","COGS219_2020_03","Sounds/correct.wav","null","1","","","","","","",""
"null","","audio-keyboard-response","288","4126334","0.0-13.0-0.59","l","COGS219_2020_03","Sounds/frog_sound.wav","null","1","","","","","","",""
"null","","html-keyboard-response","289","4127352","0.0-13.0-1.59","l","COGS219_2020_03","<p style=""font-size: 48px;"">+</p>","null","1","","","","","","",""
"436.45000003743917","","image-keyboard-response","290","4127790","0.0-13.0-2.59","l","COGS219_2020_03","Images/frog_2.png","76","1","1581275523173","match","frog","frog","sound","test","true"
"null","","audio-keyboard-response","291","4129807","0.0-13.0-3.59","l","COGS219_2020_03","Sounds/correct.wav","null","1","","","","","","",""
"null","","audio-keyboard-response","292","4130934","0.0-13.0-0.60","l","COGS219_2020_03","Sounds/motorcycle_sound.wav","null","1","","","","","","",""
"null","","html-keyboard-response","293","4131953","0.0-13.0-1.60","l","COGS219_2020_03","<p style=""font-size: 48px;"">+</p>","null","1","","","","","","",""
"492.1549999853596","","image-keyboard-response","294","4132446","0.0-13.0-2.60","l","COGS219_2020_03","Images/dog_cartoon.png","76","1","1581275527773","non-match","dog","motorcycle","sound","test","false"
"null","","audio-keyboard-response","295","4134456","0.0-13.0-3.60","l","COGS219_2020_03","Sounds/incorrect.wav","null","1","","","","","","",""
"null","","audio-keyboard-response","296","4135474","0.0-13.0-0.61","l","COGS219_2020_03","Sounds/cow_label.wav","null","1","","","","","","",""
"null","","html-keyboard-response","297","4136469","0.0-13.0-1.61","l","COGS219_2020_03","<p style=""font-size: 48px;"">+</p>","null","1","","","","","","",""
"423.62000001594424","","image-keyboard-response","298","4136894","0.0-13.0-2.61","l","COGS219_2020_03","Images/cow_1.png","76","1","1581275532289","match","cow","cow","label","test","true"
"null","","audio-keyboard-response","299","4138907","0.0-13.0-3.61","l","COGS219_2020_03","Sounds/correct.wav","null","1","","","","","","",""
"null","","audio-keyboard-response","300","4139614","0.0-13.0-0.62","l","COGS219_2020_03","Sounds/whistle_label.wav","null","1","","","","","","",""
"null","","html-keyboard-response","301","4140603","0.0-13.0-1.62","l","COGS219_2020_03","<p style=""font-size: 48px;"">+</p>","null","1","","","","","","",""
"465.94500000355765","","image-keyboard-response","302","4141070","0.0-13.0-2.62","l","COGS219_2020_03","Images/whistle_2.png","76","1","1581275536423","match","whistle","whistle","label","test","true"
"null","","audio-keyboard-response","303","4143074","0.0-13.0-3.62","l","COGS219_2020_03","Sounds/correct.wav","null","1","","","","","","",""
"null","","audio-keyboard-response","304","4143774","0.0-13.0-0.63","l","COGS219_2020_03","Sounds/dog_sound.wav","null","1","","","","","","",""
"null","","html-keyboard-response","305","4144769","0.0-13.0-1.63","l","COGS219_2020_03","<p style=""font-size: 48px;"">+</p>","null","1","","","","","","",""
"475.4550000070594","","image-keyboard-response","306","4145246","0.0-13.0-2.63","l","COGS219_2020_03","Images/motorcycle_2.png","65","1","1581275540590","non-match","motorcycle","dog","sound","test","true"
"null","","audio-keyboard-response","307","4147256","0.0-13.0-3.63","l","COGS219_2020_03","Sounds/correct.wav","null","1","","","","","","",""
"null","","audio-keyboard-response","308","4148254","0.0-13.0-0.64","l","COGS219_2020_03","Sounds/cow_label.wav","null","1","","","","","","",""
"null","","html-keyboard-response","309","4149253","0.0-13.0-1.64","l","COGS219_2020_03","<p style=""font-size: 48px;"">+</p>","null","1","","","","","","",""
"456.00499998545274","","image-keyboard-response","310","4149710","0.0-13.0-2.64","l","COGS219_2020_03","Images/motorcycle_1.png","65","1","1581275545073","non-match","motorcycle","cow","label","test","true"
"null","","audio-keyboard-response","311","4151724","0.0-13.0-3.64","l","COGS219_2020_03","Sounds/correct.wav","null","1","","","","","","",""
"null","","audio-keyboard-response","312","4152814","0.0-13.0-0.65","l","COGS219_2020_03","Sounds/car_label.wav","null","1","","","","","","",""
"null","","html-keyboard-response","313","4153820","0.0-13.0-1.65","l","COGS219_2020_03","<p style=""font-size: 48px;"">+</p>","null","1","","","","","","",""
"464.9349999963306","","image-keyboard-response","314","4154286","0.0-13.0-2.65","l","COGS219_2020_03","Images/cat_1.png","65","1","1581275549639","non-match","cat","car","label","test","true"
"null","","audio-keyboard-response","315","4156292","0.0-13.0-3.65","l","COGS219_2020_03","Sounds/correct.wav","null","1","","","","","","",""
"null","","audio-keyboard-response","316","4157354","0.0-13.0-0.66","l","COGS219_2020_03","Sounds/car_label.wav","null","1","","","","","","",""
"null","","html-keyboard-response","317","4158353","0.0-13.0-1.66","l","COGS219_2020_03","<p style=""font-size: 48px;"">+</p>","null","1","","","","","","",""
"538.7500000069849","","image-keyboard-response","318","4158894","0.0-13.0-2.66","l","COGS219_2020_03","Images/car_cartoon.png","76","1","1581275554173","match","car","car","label","test","true"
"null","","audio-keyboard-response","319","4160907","0.0-13.0-3.66","l","COGS219_2020_03","Sounds/correct.wav","null","1","","","","","","",""
"null","","audio-keyboard-response","320","4161754","0.0-13.0-0.67","l","COGS219_2020_03","Sounds/cat_label.wav","null","1","","","","","","",""
"null","","html-keyboard-response","321","4162753","0.0-13.0-1.67","l","COGS219_2020_03","<p style=""font-size: 48px;"">+</p>","null","1","","","","","","",""
"539.9999999790452","","image-keyboard-response","322","4163294","0.0-13.0-2.67","l","COGS219_2020_03","Images/rooster_1.png","65","1","1581275558573","non-match","rooster","cat","label","test","true"
"null","","audio-keyboard-response","323","4165307","0.0-13.0-3.67","l","COGS219_2020_03","Sounds/correct.wav","null","1","","","","","","",""
"null","","audio-keyboard-response","324","4166214","0.0-13.0-0.68","l","COGS219_2020_03","Sounds/frog_label.wav","null","1","","","","","","",""
"null","","html-keyboard-response","325","4167203","0.0-13.0-1.68","l","COGS219_2020_03","<p style=""font-size: 48px;"">+</p>","null","1","","","","","","",""
"425.79999996814877","","image-keyboard-response","326","4167630","0.0-13.0-2.68","l","COGS219_2020_03","Images/frog_orig.png","76","1","1581275563023","match","frog","frog","label","test","true"
"null","","audio-keyboard-response","327","4169643","0.0-13.0-3.68","l","COGS219_2020_03","Sounds/correct.wav","null","1","","","","","","",""
"null","","audio-keyboard-response","328","4170336","0.0-13.0-0.69","l","COGS219_2020_03","Sounds/whistle_label.wav","null","1","","","","","","",""
"null","","html-keyboard-response","329","4171338","0.0-13.0-1.69","l","COGS219_2020_03","<p style=""font-size: 48px;"">+</p>","null","1","","","","","","",""
"436.3149999990128","","image-keyboard-response","330","4171776","0.0-13.0-2.69","l","COGS219_2020_03","Images/whistle_cartoon.png","76","1","1581275567158","match","whistle","whistle","label","test","true"
"null","","audio-keyboard-response","331","4173779","0.0-13.0-3.69","l","COGS219_2020_03","Sounds/correct.wav","null","1","","","","","","",""
"null","","audio-keyboard-response","332","4175056","0.0-13.0-0.70","l","COGS219_2020_03","Sounds/train_label.wav","null","1","","","","","","",""
"null","","html-keyboard-response","333","4176055","0.0-13.0-1.70","l","COGS219_2020_03","<p style=""font-size: 48px;"">+</p>","null","1","","","","","","",""
"407.805000024382","","image-keyboard-response","334","4176464","0.0-13.0-2.70","l","COGS219_2020_03","Images/cow_2.png","65","1","1581275571875","non-match","cow","train","label","test","true"
"null","","audio-keyboard-response","335","4178476","0.0-13.0-3.70","l","COGS219_2020_03","Sounds/correct.wav","null","1","","","","","","",""
"null","","audio-keyboard-response","336","4179056","0.0-13.0-0.71","l","COGS219_2020_03","Sounds/gun_sound.wav","null","1","","","","","","",""
"null","","html-keyboard-response","337","4180055","0.0-13.0-1.71","l","COGS219_2020_03","<p style=""font-size: 48px;"">+</p>","null","1","","","","","","",""
"391.58999995561317","","image-keyboard-response","338","4180448","0.0-13.0-2.71","l","COGS219_2020_03","Images/motorcycle_orig.png","76","1","1581275575875","non-match","motorcycle","gun","sound","test","false"
"null","","audio-keyboard-response","339","4182465","0.0-13.0-3.71","l","COGS219_2020_03","Sounds/incorrect.wav","null","1","","","","","","",""
"null","","audio-keyboard-response","340","4183576","0.0-13.0-0.72","l","COGS219_2020_03","Sounds/motorcycle_sound.wav","null","1","","","","","","",""
"null","","html-keyboard-response","341","4184572","0.0-13.0-1.72","l","COGS219_2020_03","<p style=""font-size: 48px;"">+</p>","null","1","","","","","","",""
"483.01999998511747","","image-keyboard-response","342","4185056","0.0-13.0-2.72","l","COGS219_2020_03","Images/gun_1.png","65","1","1581275580392","non-match","gun","motorcycle","sound","test","true"
"null","","audio-keyboard-response","343","4187062","0.0-13.0-3.72","l","COGS219_2020_03","Sounds/correct.wav","null","1","","","","","","",""
"null","","audio-keyboard-response","344","4188356","0.0-13.0-0.73","l","COGS219_2020_03","Sounds/train_sound.wav","null","1","","","","","","",""
"null","","html-keyboard-response","345","4189355","0.0-13.0-1.73","l","COGS219_2020_03","<p style=""font-size: 48px;"">+</p>","null","1","","","","","","",""
"371.8150000204332","","image-keyboard-response","346","4189728","0.0-13.0-2.73","l","COGS219_2020_03","Images/train_cartoon.png","76","1","1581275585175","match","train","train","sound","test","true"
"null","","audio-keyboard-response","347","4191744","0.0-13.0-3.73","l","COGS219_2020_03","Sounds/correct.wav","null","1","","","","","","",""
"null","","audio-keyboard-response","348","4192636","0.0-13.0-0.74","l","COGS219_2020_03","Sounds/frog_label.wav","null","1","","","","","","",""
"null","","html-keyboard-response","349","4193638","0.0-13.0-1.74","l","COGS219_2020_03","<p style=""font-size: 48px;"">+</p>","null","1","","","","","","",""
"456.3150000171736","","image-keyboard-response","350","4194096","0.0-13.0-2.74","l","COGS219_2020_03","Images/rooster_2.png","65","1","1581275589459","non-match","rooster","frog","label","test","true"
"null","","audio-keyboard-response","351","4196109","0.0-13.0-3.74","l","COGS219_2020_03","Sounds/correct.wav","null","1","","","","","","",""
"null","","audio-keyboard-response","352","4196816","0.0-13.0-0.75","l","COGS219_2020_03","Sounds/rooster_label.wav","null","1","","","","","","",""
"null","","html-keyboard-response","353","4197822","0.0-13.0-1.75","l","COGS219_2020_03","<p style=""font-size: 48px;"">+</p>","null","1","","","","","","",""
"528.5250000301749","","image-keyboard-response","354","4198352","0.0-13.0-2.75","l","COGS219_2020_03","Images/whistle_cartoon.png","65","1","1581275593642","non-match","whistle","rooster","label","test","true"
"null","","audio-keyboard-response","355","4200360","0.0-13.0-3.75","l","COGS219_2020_03","Sounds/correct.wav","null","1","","","","","","",""
"null","","audio-keyboard-response","356","4201636","0.0-13.0-0.76","l","COGS219_2020_03","Sounds/train_label.wav","null","1","","","","","","",""
"null","","html-keyboard-response","357","4202639","0.0-13.0-1.76","l","COGS219_2020_03","<p style=""font-size: 48px;"">+</p>","null","1","","","","","","",""
"480.40000000037253","","image-keyboard-response","358","4203120","0.0-13.0-2.76","l","COGS219_2020_03","Images/rooster_cartoon.png","65","1","1581275598459","non-match","rooster","train","label","test","true"
"null","","audio-keyboard-response","359","4205127","0.0-13.0-3.76","l","COGS219_2020_03","Sounds/correct.wav","null","1","","","","","","",""
"null","","audio-keyboard-response","360","4206236","0.0-13.0-0.77","l","COGS219_2020_03","Sounds/motorcycle_sound.wav","null","1","","","","","","",""
"null","","html-keyboard-response","361","4207239","0.0-13.0-1.77","l","COGS219_2020_03","<p style=""font-size: 48px;"">+</p>","null","1","","","","","","",""
"440.07999997213483","","image-keyboard-response","362","4207680","0.0-13.0-2.77","l","COGS219_2020_03","Images/motorcycle_1.png","76","1","1581275603059","match","motorcycle","motorcycle","sound","test","true"
"null","","audio-keyboard-response","363","4209693","0.0-13.0-3.77","l","COGS219_2020_03","Sounds/correct.wav","null","1","","","","","","",""
"null","","audio-keyboard-response","364","4210996","0.0-13.0-0.78","l","COGS219_2020_03","Sounds/train_sound.wav","null","1","","","","","","",""
"null","","html-keyboard-response","365","4211989","0.0-13.0-1.78","l","COGS219_2020_03","<p style=""font-size: 48px;"">+</p>","null","1","","","","","","",""
"426.07500002440065","","image-keyboard-response","366","4212416","0.0-13.0-2.78","l","COGS219_2020_03","Images/train_3.png","76","1","1581275607809","match","train","train","sound","test","true"
"null","","audio-keyboard-response","367","4214425","0.0-13.0-3.78","l","COGS219_2020_03","Sounds/correct.wav","null","1","","","","","","",""
"null","","audio-keyboard-response","368","4215336","0.0-13.0-0.79","l","COGS219_2020_03","Sounds/frog_sound.wav","null","1","","","","","","",""
"null","","html-keyboard-response","369","4216339","0.0-13.0-1.79","l","COGS219_2020_03","<p style=""font-size: 48px;"">+</p>","null","1","","","","","","",""
"444.1650000521913","","image-keyboard-response","370","4216784","0.0-13.0-2.79","l","COGS219_2020_03","Images/gun_orig.png","65","1","1581275612159","non-match","gun","frog","sound","test","true"
"null","","audio-keyboard-response","371","4218794","0.0-13.0-3.79","l","COGS219_2020_03","Sounds/correct.wav","null","1","","","","","","",""
"null","","audio-keyboard-response","372","4219876","0.0-13.0-0.80","l","COGS219_2020_03","Sounds/car_sound.wav","null","1","","","","","","",""
"null","","html-keyboard-response","373","4220872","0.0-13.0-1.80","l","COGS219_2020_03","<p style=""font-size: 48px;"">+</p>","null","1","","","","","","",""
"454.57000000216067","","image-keyboard-response","374","4221328","0.0-13.0-2.80","l","COGS219_2020_03","Images/frog_2.png","65","1","1581275616692","non-match","frog","car","sound","test","true"
"null","","audio-keyboard-response","375","4223345","0.0-13.0-3.80","l","COGS219_2020_03","Sounds/correct.wav","null","1","","","","","","",""
"null","","audio-keyboard-response","376","4224056","0.0-13.0-0.81","l","COGS219_2020_03","Sounds/dog_sound.wav","null","1","","","","","","",""
"null","","html-keyboard-response","377","4225056","0.0-13.0-1.81","l","COGS219_2020_03","<p style=""font-size: 48px;"">+</p>","null","1","","","","","","",""
"495.18999998643994","","image-keyboard-response","378","4225552","0.0-13.0-2.81","l","COGS219_2020_03","Images/dog_1.png","76","1","1581275620876","match","dog","dog","sound","test","true"
"null","","audio-keyboard-response","379","4227561","0.0-13.0-3.81","l","COGS219_2020_03","Sounds/correct.wav","null","1","","","","","","",""
"null","","audio-keyboard-response","380","4228456","0.0-13.0-0.82","l","COGS219_2020_03","Sounds/frog_sound.wav","null","1","","","","","","",""
"null","","html-keyboard-response","381","4229456","0.0-13.0-1.82","l","COGS219_2020_03","<p style=""font-size: 48px;"">+</p>","null","1","","","","","","",""
"383.36000003572553","","image-keyboard-response","382","4229841","0.0-13.0-2.82","l","COGS219_2020_03","Images/frog_1.png","76","1","1581275625276","match","frog","frog","sound","test","true"
"null","","audio-keyboard-response","383","4231845","0.0-13.0-3.82","l","COGS219_2020_03","Sounds/correct.wav","null","1","","","","","","",""
"null","","audio-keyboard-response","384","4233137","0.0-13.0-0.83","l","COGS219_2020_03","Sounds/train_sound.wav","null","1","","","","","","",""
"null","","html-keyboard-response","385","4234140","0.0-13.0-1.83","l","COGS219_2020_03","<p style=""font-size: 48px;"">+</p>","null","1","","","","","","",""
"387.78499996941537","","image-keyboard-response","386","4234529","0.0-13.0-2.83","l","COGS219_2020_03","Images/train_2.png","76","1","1581275629960","match","train","train","sound","test","true"
"null","","audio-keyboard-response","387","4236544","0.0-13.0-3.83","l","COGS219_2020_03","Sounds/correct.wav","null","1","","","","","","",""
"null","","audio-keyboard-response","388","4237677","0.0-13.0-0.84","l","COGS219_2020_03","Sounds/motorcycle_label.wav","null","1","","","","","","",""
"null","","html-keyboard-response","389","4238674","0.0-13.0-1.84","l","COGS219_2020_03","<p style=""font-size: 48px;"">+</p>","null","1","","","","","","",""
"382.1699999971315","","image-keyboard-response","390","4239057","0.0-13.0-2.84","l","COGS219_2020_03","Images/motorcycle_orig.png","76","1","1581275634494","match","motorcycle","motorcycle","label","test","true"
"null","","audio-keyboard-response","391","4241062","0.0-13.0-3.84","l","COGS219_2020_03","Sounds/correct.wav","null","1","","","","","","",""
"null","","audio-keyboard-response","392","4242177","0.0-13.0-0.85","l","COGS219_2020_03","Sounds/motorcycle_sound.wav","null","1","","","","","","",""
"null","","html-keyboard-response","393","4243174","0.0-13.0-1.85","l","COGS219_2020_03","<p style=""font-size: 48px;"">+</p>","null","1","","","","","","",""
"424.2199999857694","","image-keyboard-response","394","4243601","0.0-13.0-2.85","l","COGS219_2020_03","Images/motorcycle_3.png","76","1","1581275638994","match","motorcycle","motorcycle","sound","test","true"
"null","","audio-keyboard-response","395","4245614","0.0-13.0-3.85","l","COGS219_2020_03","Sounds/correct.wav","null","1","","","","","","",""
"null","","audio-keyboard-response","396","4246317","0.0-13.0-0.86","l","COGS219_2020_03","Sounds/rooster_sound.wav","null","1","","","","","","",""
"null","","html-keyboard-response","397","4247307","0.0-13.0-1.86","l","COGS219_2020_03","<p style=""font-size: 48px;"">+</p>","null","1","","","","","","",""
"404.93000001925975","","image-keyboard-response","398","4247713","0.0-13.0-2.86","l","COGS219_2020_03","Images/rooster_orig.png","76","1","1581275643127","match","rooster","rooster","sound","test","true"
"null","","audio-keyboard-response","399","4249729","0.0-13.0-3.86","l","COGS219_2020_03","Sounds/correct.wav","null","1","","","","","","",""
"null","","audio-keyboard-response","400","4250577","0.0-13.0-0.87","l","COGS219_2020_03","Sounds/cat_label.wav","null","1","","","","","","",""
"null","","html-keyboard-response","401","4251574","0.0-13.0-1.87","l","COGS219_2020_03","<p style=""font-size: 48px;"">+</p>","null","1","","","","","","",""
"394.2650000099093","","image-keyboard-response","402","4251969","0.0-13.0-2.87","l","COGS219_2020_03","Images/cat_2.png","76","1","1581275647394","match","cat","cat","label","test","true"
"null","","audio-keyboard-response","403","4253979","0.0-13.0-3.87","l","COGS219_2020_03","Sounds/correct.wav","null","1","","","","","","",""
"null","","audio-keyboard-response","404","4254797","0.0-13.0-0.88","l","COGS219_2020_03","Sounds/cat_label.wav","null","1","","","","","","",""
"null","","html-keyboard-response","405","4255790","0.0-13.0-1.88","l","COGS219_2020_03","<p style=""font-size: 48px;"">+</p>","null","1","","","","","","",""
"417.71999996807426","","image-keyboard-response","406","4256209","0.0-13.0-2.88","l","COGS219_2020_03","Images/motorcycle_3.png","65","1","1581275651611","non-match","motorcycle","cat","label","test","true"
"null","","audio-keyboard-response","407","4258214","0.0-13.0-3.88","l","COGS219_2020_03","Sounds/correct.wav","null","1","","","","","","",""
"null","","audio-keyboard-response","408","4258917","0.0-13.0-0.89","l","COGS219_2020_03","Sounds/rooster_label.wav","null","1","","","","","","",""
"null","","html-keyboard-response","409","4259907","0.0-13.0-1.89","l","COGS219_2020_03","<p style=""font-size: 48px;"">+</p>","null","1","","","","","","",""
"460.8800000278279","","image-keyboard-response","410","4260369","0.0-13.0-2.89","l","COGS219_2020_03","Images/train_1.png","65","1","1581275655727","non-match","train","rooster","label","test","true"
"null","","audio-keyboard-response","411","4262379","0.0-13.0-3.89","l","COGS219_2020_03","Sounds/correct.wav","null","1","","","","","","",""
"null","","audio-keyboard-response","412","4263057","0.0-13.0-0.90","l","COGS219_2020_03","Sounds/rooster_sound.wav","null","1","","","","","","",""
"null","","html-keyboard-response","413","4264057","0.0-13.0-1.90","l","COGS219_2020_03","<p style=""font-size: 48px;"">+</p>","null","1","","","","","","",""
"485.50999996997416","","image-keyboard-response","414","4264545","0.0-13.0-2.90","l","COGS219_2020_03","Images/cat_3.png","65","1","1581275659877","non-match","cat","rooster","sound","test","true"
"null","","audio-keyboard-response","415","4266561","0.0-13.0-3.90","l","COGS219_2020_03","Sounds/correct.wav","null","1","","","","","","",""
"null","","audio-keyboard-response","416","4267577","0.0-13.0-0.91","l","COGS219_2020_03","Sounds/cow_sound.wav","null","1","","","","","","",""
"null","","html-keyboard-response","417","4268574","0.0-13.0-1.91","l","COGS219_2020_03","<p style=""font-size: 48px;"">+</p>","null","1","","","","","","",""
"562.280000012368","","image-keyboard-response","418","4269137","0.0-13.0-2.91","l","COGS219_2020_03","Images/car_orig.png","65","1","1581275664394","non-match","car","cow","sound","test","true"
"null","","audio-keyboard-response","419","4271147","0.0-13.0-3.91","l","COGS219_2020_03","Sounds/correct.wav","null","1","","","","","","",""
"null","","audio-keyboard-response","420","4271837","0.0-13.0-0.92","l","COGS219_2020_03","Sounds/whistle_sound.wav","null","1","","","","","","",""
"null","","html-keyboard-response","421","4272841","0.0-13.0-1.92","l","COGS219_2020_03","<p style=""font-size: 48px;"">+</p>","null","1","","","","","","",""
"567.3499999688938","","image-keyboard-response","422","4273409","0.0-13.0-2.92","l","COGS219_2020_03","Images/whistle_3.png","76","1","1581275668661","match","whistle","whistle","sound","test","true"
"null","","audio-keyboard-response","423","4275412","0.0-13.0-3.92","l","COGS219_2020_03","Sounds/correct.wav","null","1","","","","","","",""
"null","","audio-keyboard-response","424","4276397","0.0-13.0-0.93","l","COGS219_2020_03","Sounds/cow_sound.wav","null","1","","","","","","",""
"null","","html-keyboard-response","425","4277391","0.0-13.0-1.93","l","COGS219_2020_03","<p style=""font-size: 48px;"">+</p>","null","1","","","","","","",""
"481.25499999150634","","image-keyboard-response","426","4277873","0.0-13.0-2.93","l","COGS219_2020_03","Images/gun_2.png","65","1","1581275673211","non-match","gun","cow","sound","test","true"
"null","","audio-keyboard-response","427","4279880","0.0-13.0-3.93","l","COGS219_2020_03","Sounds/correct.wav","null","1","","","","","","",""
"null","","audio-keyboard-response","428","4281017","0.0-13.0-0.94","l","COGS219_2020_03","Sounds/motorcycle_label.wav","null","1","","","","","","",""
"null","","html-keyboard-response","429","4282007","0.0-13.0-1.94","l","COGS219_2020_03","<p style=""font-size: 48px;"">+</p>","null","1","","","","","","",""
"424.75999996531755","","image-keyboard-response","430","4282433","0.0-13.0-2.94","l","COGS219_2020_03","Images/train_3.png","65","1","1581275677827","non-match","train","motorcycle","label","test","true"
"null","","audio-keyboard-response","431","4284444","0.0-13.0-3.94","l","COGS219_2020_03","Sounds/correct.wav","null","1","","","","","","",""
"null","","audio-keyboard-response","432","4285517","0.0-13.0-0.95","l","COGS219_2020_03","Sounds/car_label.wav","null","1","","","","","","",""
"null","","html-keyboard-response","433","4286507","0.0-13.0-1.95","l","COGS219_2020_03","<p style=""font-size: 48px;"">+</p>","null","1","","","","","","",""
"371.4250000193715","","image-keyboard-response","434","4286881","0.0-13.0-2.95","l","COGS219_2020_03","Images/car_1.png","76","1","1581275682328","match","car","car","label","test","true"
"null","","audio-keyboard-response","435","4288895","0.0-13.0-3.95","l","COGS219_2020_03","Sounds/correct.wav","null","1","","","","","","",""
"null","","audio-keyboard-response","436","4289918","0.0-13.0-0.96","l","COGS219_2020_03","Sounds/cow_label.wav","null","1","","","","","","",""
"null","","html-keyboard-response","437","4290908","0.0-13.0-1.96","l","COGS219_2020_03","<p style=""font-size: 48px;"">+</p>","null","1","","","","","","",""
"404.51500000152737","","image-keyboard-response","438","4291314","0.0-13.0-2.96","l","COGS219_2020_03","Images/cow_3.png","76","1","1581275686728","match","cow","cow","label","test","true"
"null","","audio-keyboard-response","439","4293329","0.0-13.0-3.96","l","COGS219_2020_03","Sounds/correct.wav","null","1","","","","","","",""
"null","","audio-keyboard-response","440","4294038","0.0-13.0-0.97","l","COGS219_2020_03","Sounds/whistle_sound.wav","null","1","","","","","","",""
"null","","html-keyboard-response","441","4295042","0.0-13.0-1.97","l","COGS219_2020_03","<p style=""font-size: 48px;"">+</p>","null","1","","","","","","",""
"415.3199999704957","","image-keyboard-response","442","4295458","0.0-13.0-2.97","l","COGS219_2020_03","Images/whistle_1.png","76","1","1581275690862","match","whistle","whistle","sound","test","true"
"null","","audio-keyboard-response","443","4297463","0.0-13.0-3.97","l","COGS219_2020_03","Sounds/correct.wav","null","1","","","","","","",""
"null","","audio-keyboard-response","444","4298758","0.0-13.0-0.98","l","COGS219_2020_03","Sounds/train_sound.wav","null","1","","","","","","",""
"null","","html-keyboard-response","445","4299758","0.0-13.0-1.98","l","COGS219_2020_03","<p style=""font-size: 48px;"">+</p>","null","1","","","","","","",""
"466.4299999717623","","image-keyboard-response","446","4300226","0.0-13.0-2.98","l","COGS219_2020_03","Images/frog_cartoon.png","65","1","1581275695578","non-match","frog","train","sound","test","true"
"null","","audio-keyboard-response","447","4302230","0.0-13.0-3.98","l","COGS219_2020_03","Sounds/correct.wav","null","1","","","","","","",""
"null","","audio-keyboard-response","448","4302798","0.0-13.0-0.99","l","COGS219_2020_03","Sounds/gun_label.wav","null","1","","","","","","",""
"null","","html-keyboard-response","449","4303792","0.0-13.0-1.99","l","COGS219_2020_03","<p style=""font-size: 48px;"">+</p>","null","1","","","","","","",""
"384.9650000333786","","image-keyboard-response","450","4304178","0.0-13.0-2.99","l","COGS219_2020_03","Images/gun_orig.png","76","1","1581275699612","match","gun","gun","label","test","true"
"null","","audio-keyboard-response","451","4306180","0.0-13.0-3.99","l","COGS219_2020_03","Sounds/correct.wav","null","1","","","","","","",""
"33676.930000016466","","html-keyboard-response","452","4339858","0.0-14.0","l","COGS219_2020_03","<p>Please take this opportunity to rest your eyes before proceeding.</p><p>When ready, press the enter key to continue to the next set of trials.</p>","13","","","","","","","",""
"null","","audio-keyboard-response","453","4342799","0.0-15.0-0.0","l","COGS219_2020_03","Sounds/frog_sound.wav","null","2","","","","","","",""
"null","","html-keyboard-response","454","4343792","0.0-15.0-1.0","l","COGS219_2020_03","<p style=""font-size: 48px;"">+</p>","null","2","","","","","","",""
"384.61000000778586","","image-keyboard-response","455","4344178","0.0-15.0-2.0","l","COGS219_2020_03","Images/frog_2.png","76","2","1581275739612","match","frog","frog","sound","test","true"
"null","","audio-keyboard-response","456","4346181","0.0-15.0-3.0","l","COGS219_2020_03","Sounds/correct.wav","null","2","","","","","","",""
"null","","audio-keyboard-response","457","4346879","0.0-15.0-0.1","l","COGS219_2020_03","Sounds/whistle_label.wav","null","2","","","","","","",""
"null","","html-keyboard-response","458","4347875","0.0-15.0-1.1","l","COGS219_2020_03","<p style=""font-size: 48px;"">+</p>","null","2","","","","","","",""
"349.1250000083819","","image-keyboard-response","459","4348226","0.0-15.0-2.1","l","COGS219_2020_03","Images/whistle_orig.png","76","2","1581275743696","match","whistle","whistle","label","test","true"
"null","","audio-keyboard-response","460","4350240","0.0-15.0-3.1","l","COGS219_2020_03","Sounds/correct.wav","null","2","","","","","","",""
"null","","audio-keyboard-response","461","4351320","0.0-15.0-0.2","l","COGS219_2020_03","Sounds/car_label.wav","null","2","","","","","","",""
"null","","html-keyboard-response","462","4352310","0.0-15.0-1.2","l","COGS219_2020_03","<p style=""font-size: 48px;"">+</p>","null","2","","","","","","",""
"539.989999961108","","image-keyboard-response","463","4352851","0.0-15.0-2.2","l","COGS219_2020_03","Images/motorcycle_3.png","65","2","1581275748130","non-match","motorcycle","car","label","test","true"
"null","","audio-keyboard-response","464","4354862","0.0-15.0-3.2","l","COGS219_2020_03","Sounds/correct.wav","null","2","","","","","","",""
"null","","audio-keyboard-response","465","4355860","0.0-15.0-0.3","l","COGS219_2020_03","Sounds/cow_sound.wav","null","2","","","","","","",""
"null","","html-keyboard-response","466","4356860","0.0-15.0-1.3","l","COGS219_2020_03","<p style=""font-size: 48px;"">+</p>","null","2","","","","","","",""
"437.7899999972433","","image-keyboard-response","467","4357299","0.0-15.0-2.3","l","COGS219_2020_03","Images/frog_2.png","65","2","1581275752680","non-match","frog","cow","sound","test","true"
"null","","audio-keyboard-response","468","4359314","0.0-15.0-3.3","l","COGS219_2020_03","Sounds/correct.wav","null","2","","","","","","",""
"null","","audio-keyboard-response","469","4360220","0.0-15.0-0.4","l","COGS219_2020_03","Sounds/frog_label.wav","null","2","","","","","","",""
"null","","html-keyboard-response","470","4361210","0.0-15.0-1.4","l","COGS219_2020_03","<p style=""font-size: 48px;"">+</p>","null","2","","","","","","",""
"374.38499997369945","","image-keyboard-response","471","4361587","0.0-15.0-2.4","l","COGS219_2020_03","Images/frog_cartoon.png","76","2","1581275757030","match","frog","frog","label","test","true"
"null","","audio-keyboard-response","472","4363599","0.0-15.0-3.4","l","COGS219_2020_03","Sounds/correct.wav","null","2","","","","","","",""
"null","","audio-keyboard-response","473","4364880","0.0-15.0-0.5","l","COGS219_2020_03","Sounds/train_label.wav","null","2","","","","","","",""
"null","","html-keyboard-response","474","4365876","0.0-15.0-1.5","l","COGS219_2020_03","<p style=""font-size: 48px;"">+</p>","null","2","","","","","","",""
"397.2749999947846","","image-keyboard-response","475","4366275","0.0-15.0-2.5","l","COGS219_2020_03","Images/train_2.png","76","2","1581275761697","match","train","train","label","test","true"
"null","","audio-keyboard-response","476","4368282","0.0-15.0-3.5","l","COGS219_2020_03","Sounds/correct.wav","null","2","","","","","","",""
"null","","audio-keyboard-response","477","4368980","0.0-15.0-0.6","l","COGS219_2020_03","Sounds/rooster_sound.wav","null","2","","","","","","",""
"null","","html-keyboard-response","478","4369977","0.0-15.0-1.6","l","COGS219_2020_03","<p style=""font-size: 48px;"">+</p>","null","2","","","","","","",""
"441.0999999959022","","image-keyboard-response","479","4370419","0.0-15.0-2.6","l","COGS219_2020_03","Images/rooster_2.png","76","2","1581275765797","match","rooster","rooster","sound","test","true"
"null","","audio-keyboard-response","480","4372430","0.0-15.0-3.6","l","COGS219_2020_03","Sounds/correct.wav","null","2","","","","","","",""
"null","","audio-keyboard-response","481","4373560","0.0-15.0-0.7","l","COGS219_2020_03","Sounds/motorcycle_label.wav","null","2","","","","","","",""
"null","","html-keyboard-response","482","4374560","0.0-15.0-1.7","l","COGS219_2020_03","<p style=""font-size: 48px;"">+</p>","null","2","","","","","","",""
"337.6950000524521","","image-keyboard-response","483","4374899","0.0-15.0-2.7","l","COGS219_2020_03","Images/motorcycle_orig.png","76","2","1581275770380","match","motorcycle","motorcycle","label","test","true"
"null","","audio-keyboard-response","484","4376914","0.0-15.0-3.7","l","COGS219_2020_03","Sounds/correct.wav","null","2","","","","","","",""
"null","","audio-keyboard-response","485","4377620","0.0-15.0-0.8","l","COGS219_2020_03","Sounds/dog_sound.wav","null","2","","","","","","",""
"null","","html-keyboard-response","486","4378610","0.0-15.0-1.8","l","COGS219_2020_03","<p style=""font-size: 48px;"">+</p>","null","2","","","","","","",""
"399.78999999631196","","image-keyboard-response","487","4379011","0.0-15.0-2.8","l","COGS219_2020_03","Images/dog_orig.png","76","2","1581275774430","match","dog","dog","sound","test","true"
"null","","audio-keyboard-response","488","4381015","0.0-15.0-3.8","l","COGS219_2020_03","Sounds/correct.wav","null","2","","","","","","",""
"null","","audio-keyboard-response","489","4381680","0.0-15.0-0.9","l","COGS219_2020_03","Sounds/dog_label.wav","null","2","","","","","","",""
"null","","html-keyboard-response","490","4382677","0.0-15.0-1.9","l","COGS219_2020_03","<p style=""font-size: 48px;"">+</p>","null","2","","","","","","",""
"396.9550000037998","","image-keyboard-response","491","4383075","0.0-15.0-2.9","l","COGS219_2020_03","Images/dog_2.png","76","2","1581275778497","match","dog","dog","label","test","true"
"null","","audio-keyboard-response","492","4385082","0.0-15.0-3.9","l","COGS219_2020_03","Sounds/correct.wav","null","2","","","","","","",""
"null","","audio-keyboard-response","493","4386000","0.0-15.0-0.10","l","COGS219_2020_03","Sounds/frog_sound.wav","null","2","","","","","","",""
"null","","html-keyboard-response","494","4386993","0.0-15.0-1.10","l","COGS219_2020_03","<p style=""font-size: 48px;"">+</p>","null","2","","","","","","",""
"400.40000004228204","","image-keyboard-response","495","4387395","0.0-15.0-2.10","l","COGS219_2020_03","Images/frog_orig.png","76","2","1581275782814","match","frog","frog","sound","test","true"
"null","","audio-keyboard-response","496","4389399","0.0-15.0-3.10","l","COGS219_2020_03","Sounds/correct.wav","null","2","","","","","","",""
"null","","audio-keyboard-response","497","4390240","0.0-15.0-0.11","l","COGS219_2020_03","Sounds/cat_sound.wav","null","2","","","","","","",""
"null","","html-keyboard-response","498","4391244","0.0-15.0-1.11","l","COGS219_2020_03","<p style=""font-size: 48px;"">+</p>","null","2","","","","","","",""
"501.56000000424683","","image-keyboard-response","499","4391747","0.0-15.0-2.11","l","COGS219_2020_03","Images/cow_orig.png","65","2","1581275787065","non-match","cow","cat","sound","test","true"
"null","","audio-keyboard-response","500","4393764","0.0-15.0-3.11","l","COGS219_2020_03","Sounds/correct.wav","null","2","","","","","","",""
"null","","audio-keyboard-response","501","4394400","0.0-15.0-0.12","l","COGS219_2020_03","Sounds/dog_label.wav","null","2","","","","","","",""
"null","","html-keyboard-response","502","4395394","0.0-15.0-1.12","l","COGS219_2020_03","<p style=""font-size: 48px;"">+</p>","null","2","","","","","","",""
"560.0700000068173","","image-keyboard-response","503","4395955","0.0-15.0-2.12","l","COGS219_2020_03","Images/cow_cartoon.png","65","2","1581275791214","non-match","cow","dog","label","test","true"
"null","","audio-keyboard-response","504","4397964","0.0-15.0-3.12","l","COGS219_2020_03","Sounds/correct.wav","null","2","","","","","","",""
"null","","audio-keyboard-response","505","4398540","0.0-15.0-0.13","l","COGS219_2020_03","Sounds/gun_sound.wav","null","2","","","","","","",""
"null","","html-keyboard-response","506","4399544","0.0-15.0-1.13","l","COGS219_2020_03","<p style=""font-size: 48px;"">+</p>","null","2","","","","","","",""
"409.9849999761209","","image-keyboard-response","507","4399955","0.0-15.0-2.13","l","COGS219_2020_03","Images/gun_cartoon.png","76","2","1581275795364","match","gun","gun","sound","test","true"
"null","","audio-keyboard-response","508","4401964","0.0-15.0-3.13","l","COGS219_2020_03","Sounds/correct.wav","null","2","","","","","","",""
"null","","audio-keyboard-response","509","4402860","0.0-15.0-0.14","l","COGS219_2020_03","Sounds/frog_sound.wav","null","2","","","","","","",""
"null","","html-keyboard-response","510","4403860","0.0-15.0-1.14","l","COGS219_2020_03","<p style=""font-size: 48px;"">+</p>","null","2","","","","","","",""
"478.01500000059605","","image-keyboard-response","511","4404339","0.0-15.0-2.14","l","COGS219_2020_03","Images/gun_cartoon.png","65","2","1581275799680","non-match","gun","frog","sound","test","true"
"null","","audio-keyboard-response","512","4406349","0.0-15.0-3.14","l","COGS219_2020_03","Sounds/correct.wav","null","2","","","","","","",""
"null","","audio-keyboard-response","513","4407500","0.0-15.0-0.15","l","COGS219_2020_03","Sounds/motorcycle_label.wav","null","2","","","","","","",""
"null","","html-keyboard-response","514","4408494","0.0-15.0-1.15","l","COGS219_2020_03","<p style=""font-size: 48px;"">+</p>","null","2","","","","","","",""
"435.95499999355525","","image-keyboard-response","515","4408931","0.0-15.0-2.15","l","COGS219_2020_03","Images/dog_1.png","65","2","1581275804314","non-match","dog","motorcycle","label","test","true"
"null","","audio-keyboard-response","516","4410949","0.0-15.0-3.15","l","COGS219_2020_03","Sounds/correct.wav","null","2","","","","","","",""
"null","","audio-keyboard-response","517","4411640","0.0-15.0-0.16","l","COGS219_2020_03","Sounds/whistle_sound.wav","null","2","","","","","","",""
"null","","html-keyboard-response","518","4412645","0.0-15.0-1.16","l","COGS219_2020_03","<p style=""font-size: 48px;"">+</p>","null","2","","","","","","",""
"445.585000038147","","image-keyboard-response","519","4413091","0.0-15.0-2.16","l","COGS219_2020_03","Images/car_orig.png","65","2","1581275808465","non-match","car","whistle","sound","test","true"
"null","","audio-keyboard-response","520","4415100","0.0-15.0-3.16","l","COGS219_2020_03","Sounds/correct.wav","null","2","","","","","","",""
"null","","audio-keyboard-response","521","4415680","0.0-15.0-0.17","l","COGS219_2020_03","Sounds/gun_label.wav","null","2","","","","","","",""
"null","","html-keyboard-response","522","4416678","0.0-15.0-1.17","l","COGS219_2020_03","<p style=""font-size: 48px;"">+</p>","null","2","","","","","","",""
"475.2200000230223","","image-keyboard-response","523","4417155","0.0-15.0-2.17","l","COGS219_2020_03","Images/whistle_cartoon.png","76","2","1581275812498","non-match","whistle","gun","label","test","false"
"null","","audio-keyboard-response","524","4419164","0.0-15.0-3.17","l","COGS219_2020_03","Sounds/incorrect.wav","null","2","","","","","","",""
"null","","audio-keyboard-response","525","4420000","0.0-15.0-0.18","l","COGS219_2020_03","Sounds/cat_label.wav","null","2","","","","","","",""
"null","","html-keyboard-response","526","4420994","0.0-15.0-1.18","l","COGS219_2020_03","<p style=""font-size: 48px;"">+</p>","null","2","","","","","","",""
"415.9199999989942","","image-keyboard-response","527","4421411","0.0-15.0-2.18","l","COGS219_2020_03","Images/rooster_cartoon.png","65","2","1581275816815","non-match","rooster","cat","label","test","true"
"null","","audio-keyboard-response","528","4423417","0.0-15.0-3.18","l","COGS219_2020_03","Sounds/correct.wav","null","2","","","","","","",""
"null","","audio-keyboard-response","529","4424540","0.0-15.0-0.19","l","COGS219_2020_03","Sounds/motorcycle_sound.wav","null","2","","","","","","",""
"null","","html-keyboard-response","530","4425545","0.0-15.0-1.19","l","COGS219_2020_03","<p style=""font-size: 48px;"">+</p>","null","2","","","","","","",""
"521.8599999789149","","image-keyboard-response","531","4426067","0.0-15.0-2.19","l","COGS219_2020_03","Images/motorcycle_3.png","65","2","1581275821365","match","motorcycle","motorcycle","sound","test","false"
"null","","audio-keyboard-response","532","4428082","0.0-15.0-3.19","l","COGS219_2020_03","Sounds/incorrect.wav","null","2","","","","","","",""
"null","","audio-keyboard-response","533","4429360","0.0-15.0-0.20","l","COGS219_2020_03","Sounds/train_label.wav","null","2","","","","","","",""
"null","","html-keyboard-response","534","4430378","0.0-15.0-1.20","l","COGS219_2020_03","<p style=""font-size: 48px;"">+</p>","null","2","","","","","","",""
"568.7700000125915","","image-keyboard-response","535","4430948","0.0-15.0-2.20","l","COGS219_2020_03","Images/train_orig.png","76","2","1581275826198","match","train","train","label","test","true"
"null","","audio-keyboard-response","536","4432950","0.0-15.0-3.20","l","COGS219_2020_03","Sounds/correct.wav","null","2","","","","","","",""
"null","","audio-keyboard-response","537","4434040","0.0-15.0-0.21","l","COGS219_2020_03","Sounds/motorcycle_sound.wav","null","2","","","","","","",""
"null","","html-keyboard-response","538","4435045","0.0-15.0-1.21","l","COGS219_2020_03","<p style=""font-size: 48px;"">+</p>","null","2","","","","","","",""
"493.79999999608845","","image-keyboard-response","539","4435539","0.0-15.0-2.21","l","COGS219_2020_03","Images/car_2.png","76","2","1581275830865","non-match","car","motorcycle","sound","test","false"
"null","","audio-keyboard-response","540","4437548","0.0-15.0-3.21","l","COGS219_2020_03","Sounds/incorrect.wav","null","2","","","","","","",""
"null","","audio-keyboard-response","541","4438240","0.0-15.0-0.22","l","COGS219_2020_03","Sounds/rooster_sound.wav","null","2","","","","","","",""
"null","","html-keyboard-response","542","4439245","0.0-15.0-1.22","l","COGS219_2020_03","<p style=""font-size: 48px;"">+</p>","null","2","","","","","","",""
"517.5550000276417","","image-keyboard-response","543","4439764","0.0-15.0-2.22","l","COGS219_2020_03","Images/dog_3.png","65","2","1581275835065","non-match","dog","rooster","sound","test","true"
"null","","audio-keyboard-response","544","4441766","0.0-15.0-3.22","l","COGS219_2020_03","Sounds/correct.wav","null","2","","","","","","",""
"null","","audio-keyboard-response","545","4442480","0.0-15.0-0.23","l","COGS219_2020_03","Sounds/dog_sound.wav","null","2","","","","","","",""
"null","","html-keyboard-response","546","4443478","0.0-15.0-1.23","l","COGS219_2020_03","<p style=""font-size: 48px;"">+</p>","null","2","","","","","","",""
"460.45000001229346","","image-keyboard-response","547","4443940","0.0-15.0-2.23","l","COGS219_2020_03","Images/dog_3.png","76","2","1581275839298","match","dog","dog","sound","test","true"
"null","","audio-keyboard-response","548","4445950","0.0-15.0-3.23","l","COGS219_2020_03","Sounds/correct.wav","null","2","","","","","","",""
"null","","audio-keyboard-response","549","4446780","0.0-15.0-0.24","l","COGS219_2020_03","Sounds/cat_label.wav","null","2","","","","","","",""
"null","","html-keyboard-response","550","4447778","0.0-15.0-1.24","l","COGS219_2020_03","<p style=""font-size: 48px;"">+</p>","null","2","","","","","","",""
"416.13499994855374","","image-keyboard-response","551","4448195","0.0-15.0-2.24","l","COGS219_2020_03","Images/cat_1.png","76","2","1581275843598","match","cat","cat","label","test","true"
"null","","audio-keyboard-response","552","4450202","0.0-15.0-3.24","l","COGS219_2020_03","Sounds/correct.wav","null","2","","","","","","",""
"null","","audio-keyboard-response","553","4450900","0.0-15.0-0.25","l","COGS219_2020_03","Sounds/rooster_label.wav","null","2","","","","","","",""
"null","","html-keyboard-response","554","4451895","0.0-15.0-1.25","l","COGS219_2020_03","<p style=""font-size: 48px;"">+</p>","null","2","","","","","","",""
"507.4599999934435","","image-keyboard-response","555","4452403","0.0-15.0-2.25","l","COGS219_2020_03","Images/rooster_1.png","76","2","1581275847715","match","rooster","rooster","label","test","true"
"null","","audio-keyboard-response","556","4454414","0.0-15.0-3.25","l","COGS219_2020_03","Sounds/correct.wav","null","2","","","","","","",""
"null","","audio-keyboard-response","557","4455000","0.0-15.0-0.26","l","COGS219_2020_03","Sounds/gun_label.wav","null","2","","","","","","",""
"null","","html-keyboard-response","558","4455995","0.0-15.0-1.26","l","COGS219_2020_03","<p style=""font-size: 48px;"">+</p>","null","2","","","","","","",""
"535.6499999761581","","image-keyboard-response","559","4456532","0.0-15.0-2.26","l","COGS219_2020_03","Images/train_3.png","65","2","1581275851815","non-match","train","gun","label","test","true"
"null","","audio-keyboard-response","560","4458534","0.0-15.0-3.26","l","COGS219_2020_03","Sounds/correct.wav","null","2","","","","","","",""
"null","","audio-keyboard-response","561","4459560","0.0-15.0-0.27","l","COGS219_2020_03","Sounds/cow_sound.wav","null","2","","","","","","",""
"null","","html-keyboard-response","562","4460578","0.0-15.0-1.27","l","COGS219_2020_03","<p style=""font-size: 48px;"">+</p>","null","2","","","","","","",""
"496.2599999848753","","image-keyboard-response","563","4461076","0.0-15.0-2.27","l","COGS219_2020_03","Images/car_3.png","65","2","1581275856398","non-match","car","cow","sound","test","true"
"null","","audio-keyboard-response","564","4463083","0.0-15.0-3.27","l","COGS219_2020_03","Sounds/correct.wav","null","2","","","","","","",""
"null","","audio-keyboard-response","565","4464360","0.0-15.0-0.28","l","COGS219_2020_03","Sounds/train_label.wav","null","2","","","","","","",""
"null","","html-keyboard-response","566","4465378","0.0-15.0-1.28","l","COGS219_2020_03","<p style=""font-size: 48px;"">+</p>","null","2","","","","","","",""
"384.0350000541657","","image-keyboard-response","567","4465763","0.0-15.0-2.28","l","COGS219_2020_03","Images/whistle_1.png","65","2","1581275861198","non-match","whistle","train","label","test","true"
"null","","audio-keyboard-response","568","4467767","0.0-15.0-3.28","l","COGS219_2020_03","Sounds/correct.wav","null","2","","","","","","",""
"null","","audio-keyboard-response","569","4468480","0.0-15.0-0.29","l","COGS219_2020_03","Sounds/dog_sound.wav","null","2","","","","","","",""
"null","","html-keyboard-response","570","4469478","0.0-15.0-1.29","l","COGS219_2020_03","<p style=""font-size: 48px;"">+</p>","null","2","","","","","","",""
"444.23500000312924","","image-keyboard-response","571","4469924","0.0-15.0-2.29","l","COGS219_2020_03","Images/rooster_2.png","65","2","1581275865298","non-match","rooster","dog","sound","test","true"
"null","","audio-keyboard-response","572","4471934","0.0-15.0-3.29","l","COGS219_2020_03","Sounds/correct.wav","null","2","","","","","","",""
"null","","audio-keyboard-response","573","4473061","0.0-15.0-0.30","l","COGS219_2020_03","Sounds/motorcycle_sound.wav","null","2","","","","","","",""
"null","","html-keyboard-response","574","4474079","0.0-15.0-1.30","l","COGS219_2020_03","<p style=""font-size: 48px;"">+</p>","null","2","","","","","","",""
"499.97000000439584","","image-keyboard-response","575","4474580","0.0-15.0-2.30","l","COGS219_2020_03","Images/motorcycle_2.png","76","2","1581275869900","match","motorcycle","motorcycle","sound","test","true"
"null","","audio-keyboard-response","576","4476585","0.0-15.0-3.30","l","COGS219_2020_03","Sounds/correct.wav","null","2","","","","","","",""
"null","","audio-keyboard-response","577","4477161","0.0-15.0-0.31","l","COGS219_2020_03","Sounds/gun_label.wav","null","2","","","","","","",""
"null","","html-keyboard-response","578","4478179","0.0-15.0-1.31","l","COGS219_2020_03","<p style=""font-size: 48px;"">+</p>","null","2","","","","","","",""
"367.89499997440726","","image-keyboard-response","579","4478548","0.0-15.0-2.31","l","COGS219_2020_03","Images/gun_orig.png","76","2","1581275874000","match","gun","gun","label","test","true"
"null","","audio-keyboard-response","580","4480564","0.0-15.0-3.31","l","COGS219_2020_03","Sounds/correct.wav","null","2","","","","","","",""
"null","","audio-keyboard-response","581","4481481","0.0-15.0-0.32","l","COGS219_2020_03","Sounds/frog_sound.wav","null","2","","","","","","",""
"null","","html-keyboard-response","582","4482479","0.0-15.0-1.32","l","COGS219_2020_03","<p style=""font-size: 48px;"">+</p>","null","2","","","","","","",""
"484.1299999970943","","image-keyboard-response","583","4482965","0.0-15.0-2.32","l","COGS219_2020_03","Images/whistle_orig.png","65","2","1581275878300","non-match","whistle","frog","sound","test","true"
"null","","audio-keyboard-response","584","4484968","0.0-15.0-3.32","l","COGS219_2020_03","Sounds/correct.wav","null","2","","","","","","",""
"null","","audio-keyboard-response","585","4485981","0.0-15.0-0.33","l","COGS219_2020_03","Sounds/cow_sound.wav","null","2","","","","","","",""
"null","","html-keyboard-response","586","4486979","0.0-15.0-1.33","l","COGS219_2020_03","<p style=""font-size: 48px;"">+</p>","null","2","","","","","","",""
"399.94999999180436","","image-keyboard-response","587","4487380","0.0-15.0-2.33","l","COGS219_2020_03","Images/cow_2.png","76","2","1581275882800","match","cow","cow","sound","test","true"
"null","","audio-keyboard-response","588","4489385","0.0-15.0-3.33","l","COGS219_2020_03","Sounds/correct.wav","null","2","","","","","","",""
"null","","audio-keyboard-response","589","4490081","0.0-15.0-0.34","l","COGS219_2020_03","Sounds/rooster_label.wav","null","2","","","","","","",""
"null","","html-keyboard-response","590","4491080","0.0-15.0-1.34","l","COGS219_2020_03","<p style=""font-size: 48px;"">+</p>","null","2","","","","","","",""
"347.6750000268221","","image-keyboard-response","591","4491428","0.0-15.0-2.34","l","COGS219_2020_03","Images/rooster_cartoon.png","76","2","1581275886900","match","rooster","rooster","label","test","true"
"null","","audio-keyboard-response","592","4493438","0.0-15.0-3.34","l","COGS219_2020_03","Sounds/correct.wav","null","2","","","","","","",""
"null","","audio-keyboard-response","593","4494281","0.0-15.0-0.35","l","COGS219_2020_03","Sounds/cat_label.wav","null","2","","","","","","",""
"null","","html-keyboard-response","594","4495280","0.0-15.0-1.35","l","COGS219_2020_03","<p style=""font-size: 48px;"">+</p>","null","2","","","","","","",""
"403.9899999629706","","image-keyboard-response","595","4495685","0.0-15.0-2.35","l","COGS219_2020_03","Images/cat_3.png","76","2","1581275891100","match","cat","cat","label","test","true"
"null","","audio-keyboard-response","596","4497702","0.0-15.0-3.35","l","COGS219_2020_03","Sounds/correct.wav","null","2","","","","","","",""
"null","","audio-keyboard-response","597","4498821","0.0-15.0-0.36","l","COGS219_2020_03","Sounds/motorcycle_sound.wav","null","2","","","","","","",""
"null","","html-keyboard-response","598","4499813","0.0-15.0-1.36","l","COGS219_2020_03","<p style=""font-size: 48px;"">+</p>","null","2","","","","","","",""
"414.33500003721565","","image-keyboard-response","599","4500228","0.0-15.0-2.36","l","COGS219_2020_03","Images/motorcycle_cartoon.png","76","2","1581275895633","match","motorcycle","motorcycle","sound","test","true"
"null","","audio-keyboard-response","600","4502234","0.0-15.0-3.36","l","COGS219_2020_03","Sounds/correct.wav","null","2","","","","","","",""
"null","","audio-keyboard-response","601","4502881","0.0-15.0-0.37","l","COGS219_2020_03","Sounds/dog_label.wav","null","2","","","","","","",""
"null","","html-keyboard-response","602","4503880","0.0-15.0-1.37","l","COGS219_2020_03","<p style=""font-size: 48px;"">+</p>","null","2","","","","","","",""
"427.48000001348555","","image-keyboard-response","603","4504308","0.0-15.0-2.37","l","COGS219_2020_03","Images/frog_cartoon.png","65","2","1581275899700","non-match","frog","dog","label","test","true"
"null","","audio-keyboard-response","604","4506316","0.0-15.0-3.37","l","COGS219_2020_03","Sounds/correct.wav","null","2","","","","","","",""
