[{"rt":28298.12499997206,"responses":"{\"Q0\":\"COGS219_2020_07\"}","trial_type":"survey-text","trial_index":0,"time_elapsed":28332,"internal_node_id":"0.0-0.0","match_key":"l","participant_id":"COGS219_2020_07"},{"rt":34709.6550000133,"stimulus":"<p>Use KEYBOARD 1 (match RIGHT)</p><p>Press MATCH to continue.</p>","key_press":76,"trial_type":"html-keyboard-response","trial_index":1,"time_elapsed":63044,"internal_node_id":"0.0-1.0","match_key":"l","participant_id":"COGS219_2020_07"},{"rt":1979648.290000041,"stimulus":"<p>Welcome to the experiment.</p>","key_press":13,"trial_type":"html-keyboard-response","trial_index":2,"time_elapsed":2041868,"internal_node_id":"0.0-2.0","match_key":"l","participant_id":"COGS219_2020_07"},{"rt":10044.485000078566,"stimulus":"<p>Thank you for agreeing to participate in this study.</p><p>If during any part of the procedure you must stop for any reason, please inform the researcher that you do not wish to continue.</p>","key_press":13,"trial_type":"html-keyboard-response","trial_index":3,"time_elapsed":2051915,"internal_node_id":"0.0-3.0","match_key":"l","participant_id":"COGS219_2020_07"},{"rt":19423.64500008989,"stimulus":"<p>In this experiment, you will hear various words or sounds and see pictures of various animals and objects.</p><p>Most of the images will be of common everyday objects, such as cars, cats, cows, firearms, frogs, chickens, whistles, trains, motorcycles, and dogs.</p><p>Some of the images will be real-life stills, while others will be cartoons.</p>","key_press":13,"trial_type":"html-keyboard-response","trial_index":4,"time_elapsed":2071348,"internal_node_id":"0.0-4.0","match_key":"l","participant_id":"COGS219_2020_07"},{"rt":25407.264999928884,"stimulus":"<p>Sometimes, the word/sound will match the picture, for example you'll hear a meowing sound and see a cat.</p><p>Other times, the picture will not match the sound or word.</p><p>Your task is to decide as quickly as possible if the word/sound matches the picture or not. </p>","key_press":13,"trial_type":"html-keyboard-response","trial_index":5,"time_elapsed":2096756,"internal_node_id":"0.0-5.0","match_key":"l","participant_id":"COGS219_2020_07"},{"rt":14479.099999996834,"stimulus":"<p>For example, if you hear the word \"cat\" or hear a meowing sound, and then see a picture of a cat, you should press the MATCH key.</p><p> If the sound and image do not match, press the NOT-MATCH key to indicate that there is not a match.</p>","key_press":13,"trial_type":"html-keyboard-response","trial_index":6,"time_elapsed":2111236,"internal_node_id":"0.0-6.0","match_key":"l","participant_id":"COGS219_2020_07"},{"rt":12143.284999998286,"stimulus":"<p>If you make a mistake, you will hear a buzzing sound instead of a more pleasant sound.</p><p> Try to respond as quickly as possible, while making as few errors as possible. If you are making mistakes, you are probably rushing.</p>","key_press":13,"trial_type":"html-keyboard-response","trial_index":7,"time_elapsed":2123380,"internal_node_id":"0.0-7.0","match_key":"l","participant_id":"COGS219_2020_07"},{"rt":11823.205000022426,"stimulus":"<p>Please try to not move or blink your eyes during the presentation of the images. You can move and blink between images.</p><p>During the experiment there will be some breaks during which you can rest your eyes.</p>","key_press":13,"trial_type":"html-keyboard-response","trial_index":8,"time_elapsed":2135209,"internal_node_id":"0.0-8.0","match_key":"l","participant_id":"COGS219_2020_07"},{"rt":11151.979999965988,"stimulus":"<p>We will begin with 10 practice trials. Please let the experimenter know if you have any questions.</p>","key_press":13,"trial_type":"html-keyboard-response","trial_index":9,"time_elapsed":2146362,"internal_node_id":"0.0-9.0","match_key":"l","participant_id":"COGS219_2020_07"},{"rt":null,"stimulus":"Sounds/dog_sound.wav","key_press":null,"block":0,"trial_type":"audio-keyboard-response","trial_index":10,"time_elapsed":2147137,"internal_node_id":"0.0-10.0-0.0","match_key":"l","participant_id":"COGS219_2020_07"},{"rt":null,"stimulus":"<p style=\"font-size: 48px;\">+</p>","key_press":null,"block":0,"trial_type":"html-keyboard-response","trial_index":11,"time_elapsed":2148133,"internal_node_id":"0.0-10.0-1.0","match_key":"l","participant_id":"COGS219_2020_07"},{"rt":546.3349999627098,"stimulus":"Images/dog_3.png","key_press":76,"stim_onset":1581468264937,"block":0,"match_type":"match","image_category":"dog","sound_category":"dog","audio_type":"sound","phase":"practice","trial_type":"image-keyboard-response","trial_index":12,"time_elapsed":2148681,"internal_node_id":"0.0-10.0-2.0","match_key":"l","participant_id":"COGS219_2020_07","correct":true},{"rt":null,"stimulus":"Sounds/correct.wav","key_press":null,"block":0,"trial_type":"audio-keyboard-response","trial_index":13,"time_elapsed":2150691,"internal_node_id":"0.0-10.0-3.0","match_key":"l","participant_id":"COGS219_2020_07"},{"rt":null,"stimulus":"Sounds/whistle_label.wav","key_press":null,"block":0,"trial_type":"audio-keyboard-response","trial_index":14,"time_elapsed":2151396,"internal_node_id":"0.0-10.0-0.1","match_key":"l","participant_id":"COGS219_2020_07"},{"rt":null,"stimulus":"<p style=\"font-size: 48px;\">+</p>","key_press":null,"block":0,"trial_type":"html-keyboard-response","trial_index":15,"time_elapsed":2152399,"internal_node_id":"0.0-10.0-1.1","match_key":"l","participant_id":"COGS219_2020_07"},{"rt":792.1499999938533,"stimulus":"Images/gun_3.png","key_press":65,"stim_onset":1581468269203,"block":0,"match_type":"non-match","image_category":"gun","sound_category":"whistle","audio_type":"label","phase":"practice","trial_type":"image-keyboard-response","trial_index":16,"time_elapsed":2153193,"internal_node_id":"0.0-10.0-2.1","match_key":"l","participant_id":"COGS219_2020_07","correct":true},{"rt":null,"stimulus":"Sounds/correct.wav","key_press":null,"block":0,"trial_type":"audio-keyboard-response","trial_index":17,"time_elapsed":2155205,"internal_node_id":"0.0-10.0-3.1","match_key":"l","participant_id":"COGS219_2020_07"},{"rt":null,"stimulus":"Sounds/frog_sound.wav","key_press":null,"block":0,"trial_type":"audio-keyboard-response","trial_index":18,"time_elapsed":2156116,"internal_node_id":"0.0-10.0-0.2","match_key":"l","participant_id":"COGS219_2020_07"},{"rt":null,"stimulus":"<p style=\"font-size: 48px;\">+</p>","key_press":null,"block":0,"trial_type":"html-keyboard-response","trial_index":19,"time_elapsed":2157116,"internal_node_id":"0.0-10.0-1.2","match_key":"l","participant_id":"COGS219_2020_07"},{"rt":459.8900000564754,"stimulus":"Images/frog_2.png","key_press":76,"stim_onset":1581468273920,"block":0,"match_type":"match","image_category":"frog","sound_category":"frog","audio_type":"sound","phase":"practice","trial_type":"image-keyboard-response","trial_index":20,"time_elapsed":2157577,"internal_node_id":"0.0-10.0-2.2","match_key":"l","participant_id":"COGS219_2020_07","correct":true},{"rt":null,"stimulus":"Sounds/correct.wav","key_press":null,"block":0,"trial_type":"audio-keyboard-response","trial_index":21,"time_elapsed":2159586,"internal_node_id":"0.0-10.0-3.2","match_key":"l","participant_id":"COGS219_2020_07"},{"rt":null,"stimulus":"Sounds/rooster_sound.wav","key_press":null,"block":0,"trial_type":"audio-keyboard-response","trial_index":22,"time_elapsed":2160276,"internal_node_id":"0.0-10.0-0.3","match_key":"l","participant_id":"COGS219_2020_07"},{"rt":null,"stimulus":"<p style=\"font-size: 48px;\">+</p>","key_press":null,"block":0,"trial_type":"html-keyboard-response","trial_index":23,"time_elapsed":2161266,"internal_node_id":"0.0-10.0-1.3","match_key":"l","participant_id":"COGS219_2020_07"},{"rt":1109.6050000051036,"stimulus":"Images/whistle_3.png","key_press":65,"stim_onset":1581468278070,"block":0,"match_type":"non-match","image_category":"whistle","sound_category":"rooster","audio_type":"sound","phase":"practice","trial_type":"image-keyboard-response","trial_index":24,"time_elapsed":2162377,"internal_node_id":"0.0-10.0-2.3","match_key":"l","participant_id":"COGS219_2020_07","correct":true},{"rt":null,"stimulus":"Sounds/correct.wav","key_press":null,"block":0,"trial_type":"audio-keyboard-response","trial_index":25,"time_elapsed":2164383,"internal_node_id":"0.0-10.0-3.3","match_key":"l","participant_id":"COGS219_2020_07"},{"rt":null,"stimulus":"Sounds/train_label.wav","key_press":null,"block":0,"trial_type":"audio-keyboard-response","trial_index":26,"time_elapsed":2165656,"internal_node_id":"0.0-10.0-0.4","match_key":"l","participant_id":"COGS219_2020_07"},{"rt":null,"stimulus":"<p style=\"font-size: 48px;\">+</p>","key_press":null,"block":0,"trial_type":"html-keyboard-response","trial_index":27,"time_elapsed":2166649,"internal_node_id":"0.0-10.0-1.4","match_key":"l","participant_id":"COGS219_2020_07"},{"rt":574.0950000472367,"stimulus":"Images/train_1.png","key_press":76,"stim_onset":1581468283454,"block":0,"match_type":"match","image_category":"train","sound_category":"train","audio_type":"label","phase":"practice","trial_type":"image-keyboard-response","trial_index":28,"time_elapsed":2167225,"internal_node_id":"0.0-10.0-2.4","match_key":"l","participant_id":"COGS219_2020_07","correct":true},{"rt":null,"stimulus":"Sounds/correct.wav","key_press":null,"block":0,"trial_type":"audio-keyboard-response","trial_index":29,"time_elapsed":2169239,"internal_node_id":"0.0-10.0-3.4","match_key":"l","participant_id":"COGS219_2020_07"},{"rt":null,"stimulus":"Sounds/whistle_label.wav","key_press":null,"block":0,"trial_type":"audio-keyboard-response","trial_index":30,"time_elapsed":2169936,"internal_node_id":"0.0-10.0-0.5","match_key":"l","participant_id":"COGS219_2020_07"},{"rt":null,"stimulus":"<p style=\"font-size: 48px;\">+</p>","key_press":null,"block":0,"trial_type":"html-keyboard-response","trial_index":31,"time_elapsed":2170933,"internal_node_id":"0.0-10.0-1.5","match_key":"l","participant_id":"COGS219_2020_07"},{"rt":531.1499999370426,"stimulus":"Images/whistle_3.png","key_press":65,"stim_onset":1581468287737,"block":0,"match_type":"match","image_category":"whistle","sound_category":"whistle","audio_type":"label","phase":"practice","trial_type":"image-keyboard-response","trial_index":32,"time_elapsed":2171465,"internal_node_id":"0.0-10.0-2.5","match_key":"l","participant_id":"COGS219_2020_07","correct":false},{"rt":null,"stimulus":"Sounds/incorrect.wav","key_press":null,"block":0,"trial_type":"audio-keyboard-response","trial_index":33,"time_elapsed":2173476,"internal_node_id":"0.0-10.0-3.5","match_key":"l","participant_id":"COGS219_2020_07"},{"rt":null,"stimulus":"Sounds/dog_sound.wav","key_press":null,"block":0,"trial_type":"audio-keyboard-response","trial_index":34,"time_elapsed":2174176,"internal_node_id":"0.0-10.0-0.6","match_key":"l","participant_id":"COGS219_2020_07"},{"rt":null,"stimulus":"<p style=\"font-size: 48px;\">+</p>","key_press":null,"block":0,"trial_type":"html-keyboard-response","trial_index":35,"time_elapsed":2175166,"internal_node_id":"0.0-10.0-1.6","match_key":"l","participant_id":"COGS219_2020_07"},{"rt":857.3449999094009,"stimulus":"Images/gun_orig.png","key_press":65,"stim_onset":1581468291970,"block":0,"match_type":"non-match","image_category":"gun","sound_category":"dog","audio_type":"sound","phase":"practice","trial_type":"image-keyboard-response","trial_index":36,"time_elapsed":2176025,"internal_node_id":"0.0-10.0-2.6","match_key":"l","participant_id":"COGS219_2020_07","correct":true},{"rt":null,"stimulus":"Sounds/correct.wav","key_press":null,"block":0,"trial_type":"audio-keyboard-response","trial_index":37,"time_elapsed":2178035,"internal_node_id":"0.0-10.0-3.6","match_key":"l","participant_id":"COGS219_2020_07"},{"rt":null,"stimulus":"Sounds/gun_sound.wav","key_press":null,"block":0,"trial_type":"audio-keyboard-response","trial_index":38,"time_elapsed":2178616,"internal_node_id":"0.0-10.0-0.7","match_key":"l","participant_id":"COGS219_2020_07"},{"rt":null,"stimulus":"<p style=\"font-size: 48px;\">+</p>","key_press":null,"block":0,"trial_type":"html-keyboard-response","trial_index":39,"time_elapsed":2179616,"internal_node_id":"0.0-10.0-1.7","match_key":"l","participant_id":"COGS219_2020_07"},{"rt":487.3399999924004,"stimulus":"Images/gun_cartoon.png","key_press":76,"stim_onset":1581468296420,"block":0,"match_type":"match","image_category":"gun","sound_category":"gun","audio_type":"sound","phase":"practice","trial_type":"image-keyboard-response","trial_index":40,"time_elapsed":2180105,"internal_node_id":"0.0-10.0-2.7","match_key":"l","participant_id":"COGS219_2020_07","correct":true},{"rt":null,"stimulus":"Sounds/correct.wav","key_press":null,"block":0,"trial_type":"audio-keyboard-response","trial_index":41,"time_elapsed":2182111,"internal_node_id":"0.0-10.0-3.7","match_key":"l","participant_id":"COGS219_2020_07"},{"rt":null,"stimulus":"Sounds/cow_sound.wav","key_press":null,"block":0,"trial_type":"audio-keyboard-response","trial_index":42,"time_elapsed":2183136,"internal_node_id":"0.0-10.0-0.8","match_key":"l","participant_id":"COGS219_2020_07"},{"rt":null,"stimulus":"<p style=\"font-size: 48px;\">+</p>","key_press":null,"block":0,"trial_type":"html-keyboard-response","trial_index":43,"time_elapsed":2184133,"internal_node_id":"0.0-10.0-1.8","match_key":"l","participant_id":"COGS219_2020_07"},{"rt":515.0249999715015,"stimulus":"Images/train_3.png","key_press":65,"stim_onset":1581468300937,"block":0,"match_type":"non-match","image_category":"train","sound_category":"cow","audio_type":"sound","phase":"practice","trial_type":"image-keyboard-response","trial_index":44,"time_elapsed":2184649,"internal_node_id":"0.0-10.0-2.8","match_key":"l","participant_id":"COGS219_2020_07","correct":true},{"rt":null,"stimulus":"Sounds/correct.wav","key_press":null,"block":0,"trial_type":"audio-keyboard-response","trial_index":45,"time_elapsed":2186659,"internal_node_id":"0.0-10.0-3.8","match_key":"l","participant_id":"COGS219_2020_07"},{"rt":null,"stimulus":"Sounds/cat_label.wav","key_press":null,"block":0,"trial_type":"audio-keyboard-response","trial_index":46,"time_elapsed":2187516,"internal_node_id":"0.0-10.0-0.9","match_key":"l","participant_id":"COGS219_2020_07"},{"rt":null,"stimulus":"<p style=\"font-size: 48px;\">+</p>","key_press":null,"block":0,"trial_type":"html-keyboard-response","trial_index":47,"time_elapsed":2188516,"internal_node_id":"0.0-10.0-1.9","match_key":"l","participant_id":"COGS219_2020_07"},{"rt":563.2900000782683,"stimulus":"Images/rooster_1.png","key_press":65,"stim_onset":1581468305320,"block":0,"match_type":"non-match","image_category":"rooster","sound_category":"cat","audio_type":"label","phase":"practice","trial_type":"image-keyboard-response","trial_index":48,"time_elapsed":2189081,"internal_node_id":"0.0-10.0-2.9","match_key":"l","participant_id":"COGS219_2020_07","correct":true},{"rt":null,"stimulus":"Sounds/correct.wav","key_press":null,"block":0,"trial_type":"audio-keyboard-response","trial_index":49,"time_elapsed":2191089,"internal_node_id":"0.0-10.0-3.9","match_key":"l","participant_id":"COGS219_2020_07"},{"rt":20263.78499995917,"stimulus":"<p>The rest of the experiment is divided into five blocks with 100 trials in each block. It will take about 45 minutes to complete.</p><p>The experimenter will be in the outer room and you can communicate with them through the monitor if you have any questions or wish to stop the experiment.</p>","key_press":13,"trial_type":"html-keyboard-response","trial_index":50,"time_elapsed":2211370,"internal_node_id":"0.0-11.0","match_key":"l","participant_id":"COGS219_2020_07"},{"rt":49439.510000054725,"stimulus":"<p>Remember, please try not to move or blink your eyes during the presentation of the images. </p><p>At the end of the experiment, we will show you your scores on the task so you can see how you did.</p><p>The experiment will start on the next screen.</p>","key_press":76,"trial_type":"html-keyboard-response","trial_index":51,"time_elapsed":2260810,"internal_node_id":"0.0-12.0","match_key":"l","participant_id":"COGS219_2020_07"},{"rt":null,"stimulus":"Sounds/dog_label.wav","key_press":null,"block":1,"trial_type":"audio-keyboard-response","trial_index":52,"time_elapsed":2263502,"internal_node_id":"0.0-13.0-0.0","match_key":"l","participant_id":"COGS219_2020_07"},{"rt":null,"stimulus":"<p style=\"font-size: 48px;\">+</p>","key_press":null,"block":1,"trial_type":"html-keyboard-response","trial_index":53,"time_elapsed":2264506,"internal_node_id":"0.0-13.0-1.0","match_key":"l","participant_id":"COGS219_2020_07"},{"rt":595.6799999112263,"stimulus":"Images/cow_3.png","key_press":65,"stim_onset":1581468381310,"block":1,"match_type":"non-match","image_category":"cow","sound_category":"dog","audio_type":"label","phase":"test","trial_type":"image-keyboard-response","trial_index":54,"time_elapsed":2265103,"internal_node_id":"0.0-13.0-2.0","match_key":"l","participant_id":"COGS219_2020_07","correct":true},{"rt":null,"stimulus":"Sounds/correct.wav","key_press":null,"block":1,"trial_type":"audio-keyboard-response","trial_index":55,"time_elapsed":2267110,"internal_node_id":"0.0-13.0-3.0","match_key":"l","participant_id":"COGS219_2020_07"},{"rt":null,"stimulus":"Sounds/car_sound.wav","key_press":null,"block":1,"trial_type":"audio-keyboard-response","trial_index":56,"time_elapsed":2268183,"internal_node_id":"0.0-13.0-0.1","match_key":"l","participant_id":"COGS219_2020_07"},{"rt":null,"stimulus":"<p style=\"font-size: 48px;\">+</p>","key_press":null,"block":1,"trial_type":"html-keyboard-response","trial_index":57,"time_elapsed":2269173,"internal_node_id":"0.0-13.0-1.1","match_key":"l","participant_id":"COGS219_2020_07"},{"rt":617.0949999941513,"stimulus":"Images/car_1.png","key_press":76,"stim_onset":1581468385976,"block":1,"match_type":"match","image_category":"car","sound_category":"car","audio_type":"sound","phase":"test","trial_type":"image-keyboard-response","trial_index":58,"time_elapsed":2269791,"internal_node_id":"0.0-13.0-2.1","match_key":"l","participant_id":"COGS219_2020_07","correct":true},{"rt":null,"stimulus":"Sounds/correct.wav","key_press":null,"block":1,"trial_type":"audio-keyboard-response","trial_index":59,"time_elapsed":2271794,"internal_node_id":"0.0-13.0-3.1","match_key":"l","participant_id":"COGS219_2020_07"},{"rt":null,"stimulus":"Sounds/train_sound.wav","key_press":null,"block":1,"trial_type":"audio-keyboard-response","trial_index":60,"time_elapsed":2273102,"internal_node_id":"0.0-13.0-0.2","match_key":"l","participant_id":"COGS219_2020_07"},{"rt":null,"stimulus":"<p style=\"font-size: 48px;\">+</p>","key_press":null,"block":1,"trial_type":"html-keyboard-response","trial_index":61,"time_elapsed":2274106,"internal_node_id":"0.0-13.0-1.2","match_key":"l","participant_id":"COGS219_2020_07"},{"rt":740.0299999862909,"stimulus":"Images/car_2.png","key_press":65,"stim_onset":1581468390910,"block":1,"match_type":"non-match","image_category":"car","sound_category":"train","audio_type":"sound","phase":"test","trial_type":"image-keyboard-response","trial_index":62,"time_elapsed":2274847,"internal_node_id":"0.0-13.0-2.2","match_key":"l","participant_id":"COGS219_2020_07","correct":true},{"rt":null,"stimulus":"Sounds/correct.wav","key_press":null,"block":1,"trial_type":"audio-keyboard-response","trial_index":63,"time_elapsed":2276863,"internal_node_id":"0.0-13.0-3.2","match_key":"l","participant_id":"COGS219_2020_07"},{"rt":null,"stimulus":"Sounds/car_sound.wav","key_press":null,"block":1,"trial_type":"audio-keyboard-response","trial_index":64,"time_elapsed":2277922,"internal_node_id":"0.0-13.0-0.3","match_key":"l","participant_id":"COGS219_2020_07"},{"rt":null,"stimulus":"<p style=\"font-size: 48px;\">+</p>","key_press":null,"block":1,"trial_type":"html-keyboard-response","trial_index":65,"time_elapsed":2278922,"internal_node_id":"0.0-13.0-1.3","match_key":"l","participant_id":"COGS219_2020_07"},{"rt":659.1449999250472,"stimulus":"Images/train_1.png","key_press":65,"stim_onset":1581468395727,"block":1,"match_type":"non-match","image_category":"train","sound_category":"car","audio_type":"sound","phase":"test","trial_type":"image-keyboard-response","trial_index":66,"time_elapsed":2279583,"internal_node_id":"0.0-13.0-2.3","match_key":"l","participant_id":"COGS219_2020_07","correct":true},{"rt":null,"stimulus":"Sounds/correct.wav","key_press":null,"block":1,"trial_type":"audio-keyboard-response","trial_index":67,"time_elapsed":2281588,"internal_node_id":"0.0-13.0-3.3","match_key":"l","participant_id":"COGS219_2020_07"},{"rt":null,"stimulus":"Sounds/whistle_label.wav","key_press":null,"block":1,"trial_type":"audio-keyboard-response","trial_index":68,"time_elapsed":2282282,"internal_node_id":"0.0-13.0-0.4","match_key":"l","participant_id":"COGS219_2020_07"},{"rt":null,"stimulus":"<p style=\"font-size: 48px;\">+</p>","key_press":null,"block":1,"trial_type":"html-keyboard-response","trial_index":69,"time_elapsed":2283289,"internal_node_id":"0.0-13.0-1.4","match_key":"l","participant_id":"COGS219_2020_07"},{"rt":596.155000035651,"stimulus":"Images/gun_cartoon.png","key_press":65,"stim_onset":1581468400093,"block":1,"match_type":"non-match","image_category":"gun","sound_category":"whistle","audio_type":"label","phase":"test","trial_type":"image-keyboard-response","trial_index":70,"time_elapsed":2283887,"internal_node_id":"0.0-13.0-2.4","match_key":"l","participant_id":"COGS219_2020_07","correct":true},{"rt":null,"stimulus":"Sounds/correct.wav","key_press":null,"block":1,"trial_type":"audio-keyboard-response","trial_index":71,"time_elapsed":2285893,"internal_node_id":"0.0-13.0-3.4","match_key":"l","participant_id":"COGS219_2020_07"},{"rt":null,"stimulus":"Sounds/car_label.wav","key_press":null,"block":1,"trial_type":"audio-keyboard-response","trial_index":72,"time_elapsed":2286962,"internal_node_id":"0.0-13.0-0.5","match_key":"l","participant_id":"COGS219_2020_07"},{"rt":null,"stimulus":"<p style=\"font-size: 48px;\">+</p>","key_press":null,"block":1,"trial_type":"html-keyboard-response","trial_index":73,"time_elapsed":2287956,"internal_node_id":"0.0-13.0-1.5","match_key":"l","participant_id":"COGS219_2020_07"},{"rt":489.99000003095716,"stimulus":"Images/cow_1.png","key_press":65,"stim_onset":1581468404760,"block":1,"match_type":"non-match","image_category":"cow","sound_category":"car","audio_type":"label","phase":"test","trial_type":"image-keyboard-response","trial_index":74,"time_elapsed":2288447,"internal_node_id":"0.0-13.0-2.5","match_key":"l","participant_id":"COGS219_2020_07","correct":true},{"rt":null,"stimulus":"Sounds/correct.wav","key_press":null,"block":1,"trial_type":"audio-keyboard-response","trial_index":75,"time_elapsed":2290451,"internal_node_id":"0.0-13.0-3.5","match_key":"l","participant_id":"COGS219_2020_07"},{"rt":null,"stimulus":"Sounds/car_sound.wav","key_press":null,"block":1,"trial_type":"audio-keyboard-response","trial_index":76,"time_elapsed":2291502,"internal_node_id":"0.0-13.0-0.6","match_key":"l","participant_id":"COGS219_2020_07"},{"rt":null,"stimulus":"<p style=\"font-size: 48px;\">+</p>","key_press":null,"block":1,"trial_type":"html-keyboard-response","trial_index":77,"time_elapsed":2292506,"internal_node_id":"0.0-13.0-1.6","match_key":"l","participant_id":"COGS219_2020_07"},{"rt":531.6400000592694,"stimulus":"Images/whistle_orig.png","key_press":65,"stim_onset":1581468409310,"block":1,"match_type":"non-match","image_category":"whistle","sound_category":"car","audio_type":"sound","phase":"test","trial_type":"image-keyboard-response","trial_index":78,"time_elapsed":2293039,"internal_node_id":"0.0-13.0-2.6","match_key":"l","participant_id":"COGS219_2020_07","correct":true},{"rt":null,"stimulus":"Sounds/correct.wav","key_press":null,"block":1,"trial_type":"audio-keyboard-response","trial_index":79,"time_elapsed":2295049,"internal_node_id":"0.0-13.0-3.6","match_key":"l","participant_id":"COGS219_2020_07"},{"rt":null,"stimulus":"Sounds/train_label.wav","key_press":null,"block":1,"trial_type":"audio-keyboard-response","trial_index":80,"time_elapsed":2296322,"internal_node_id":"0.0-13.0-0.7","match_key":"l","participant_id":"COGS219_2020_07"},{"rt":null,"stimulus":"<p style=\"font-size: 48px;\">+</p>","key_press":null,"block":1,"trial_type":"html-keyboard-response","trial_index":81,"time_elapsed":2297339,"internal_node_id":"0.0-13.0-1.7","match_key":"l","participant_id":"COGS219_2020_07"},{"rt":722.1099999733269,"stimulus":"Images/train_orig.png","key_press":76,"stim_onset":1581468414144,"block":1,"match_type":"match","image_category":"train","sound_category":"train","audio_type":"label","phase":"test","trial_type":"image-keyboard-response","trial_index":82,"time_elapsed":2298063,"internal_node_id":"0.0-13.0-2.7","match_key":"l","participant_id":"COGS219_2020_07","correct":true},{"rt":null,"stimulus":"Sounds/correct.wav","key_press":null,"block":1,"trial_type":"audio-keyboard-response","trial_index":83,"time_elapsed":2300066,"internal_node_id":"0.0-13.0-3.7","match_key":"l","participant_id":"COGS219_2020_07"},{"rt":null,"stimulus":"Sounds/train_sound.wav","key_press":null,"block":1,"trial_type":"audio-keyboard-response","trial_index":84,"time_elapsed":2301362,"internal_node_id":"0.0-13.0-0.8","match_key":"l","participant_id":"COGS219_2020_07"},{"rt":null,"stimulus":"<p style=\"font-size: 48px;\">+</p>","key_press":null,"block":1,"trial_type":"html-keyboard-response","trial_index":85,"time_elapsed":2302356,"internal_node_id":"0.0-13.0-1.8","match_key":"l","participant_id":"COGS219_2020_07"},{"rt":441.5949999820441,"stimulus":"Images/train_2.png","key_press":76,"stim_onset":1581468419160,"block":1,"match_type":"match","image_category":"train","sound_category":"train","audio_type":"sound","phase":"test","trial_type":"image-keyboard-response","trial_index":86,"time_elapsed":2302799,"internal_node_id":"0.0-13.0-2.8","match_key":"l","participant_id":"COGS219_2020_07","correct":true},{"rt":null,"stimulus":"Sounds/correct.wav","key_press":null,"block":1,"trial_type":"audio-keyboard-response","trial_index":87,"time_elapsed":2304805,"internal_node_id":"0.0-13.0-3.8","match_key":"l","participant_id":"COGS219_2020_07"},{"rt":null,"stimulus":"Sounds/train_label.wav","key_press":null,"block":1,"trial_type":"audio-keyboard-response","trial_index":88,"time_elapsed":2306062,"internal_node_id":"0.0-13.0-0.9","match_key":"l","participant_id":"COGS219_2020_07"},{"rt":null,"stimulus":"<p style=\"font-size: 48px;\">+</p>","key_press":null,"block":1,"trial_type":"html-keyboard-response","trial_index":89,"time_elapsed":2307056,"internal_node_id":"0.0-13.0-1.9","match_key":"l","participant_id":"COGS219_2020_07"},{"rt":444.6999999927357,"stimulus":"Images/frog_orig.png","key_press":65,"stim_onset":1581468423860,"block":1,"match_type":"non-match","image_category":"frog","sound_category":"train","audio_type":"label","phase":"test","trial_type":"image-keyboard-response","trial_index":90,"time_elapsed":2307503,"internal_node_id":"0.0-13.0-2.9","match_key":"l","participant_id":"COGS219_2020_07","correct":true},{"rt":null,"stimulus":"Sounds/correct.wav","key_press":null,"block":1,"trial_type":"audio-keyboard-response","trial_index":91,"time_elapsed":2309520,"internal_node_id":"0.0-13.0-3.9","match_key":"l","participant_id":"COGS219_2020_07"},{"rt":null,"stimulus":"Sounds/cow_sound.wav","key_press":null,"block":1,"trial_type":"audio-keyboard-response","trial_index":92,"time_elapsed":2310542,"internal_node_id":"0.0-13.0-0.10","match_key":"l","participant_id":"COGS219_2020_07"},{"rt":null,"stimulus":"<p style=\"font-size: 48px;\">+</p>","key_press":null,"block":1,"trial_type":"html-keyboard-response","trial_index":93,"time_elapsed":2311540,"internal_node_id":"0.0-13.0-1.10","match_key":"l","participant_id":"COGS219_2020_07"},{"rt":426.1549999937415,"stimulus":"Images/motorcycle_orig.png","key_press":65,"stim_onset":1581468428344,"block":1,"match_type":"non-match","image_category":"motorcycle","sound_category":"cow","audio_type":"sound","phase":"test","trial_type":"image-keyboard-response","trial_index":94,"time_elapsed":2311967,"internal_node_id":"0.0-13.0-2.10","match_key":"l","participant_id":"COGS219_2020_07","correct":true},{"rt":null,"stimulus":"Sounds/correct.wav","key_press":null,"block":1,"trial_type":"audio-keyboard-response","trial_index":95,"time_elapsed":2313974,"internal_node_id":"0.0-13.0-3.10","match_key":"l","participant_id":"COGS219_2020_07"},{"rt":null,"stimulus":"Sounds/whistle_sound.wav","key_press":null,"block":1,"trial_type":"audio-keyboard-response","trial_index":96,"time_elapsed":2314662,"internal_node_id":"0.0-13.0-0.11","match_key":"l","participant_id":"COGS219_2020_07"},{"rt":null,"stimulus":"<p style=\"font-size: 48px;\">+</p>","key_press":null,"block":1,"trial_type":"html-keyboard-response","trial_index":97,"time_elapsed":2315656,"internal_node_id":"0.0-13.0-1.11","match_key":"l","participant_id":"COGS219_2020_07"},{"rt":389.62499995250255,"stimulus":"Images/dog_cartoon.png","key_press":65,"stim_onset":1581468432460,"block":1,"match_type":"non-match","image_category":"dog","sound_category":"whistle","audio_type":"sound","phase":"test","trial_type":"image-keyboard-response","trial_index":98,"time_elapsed":2316047,"internal_node_id":"0.0-13.0-2.11","match_key":"l","participant_id":"COGS219_2020_07","correct":true},{"rt":null,"stimulus":"Sounds/correct.wav","key_press":null,"block":1,"trial_type":"audio-keyboard-response","trial_index":99,"time_elapsed":2318059,"internal_node_id":"0.0-13.0-3.11","match_key":"l","participant_id":"COGS219_2020_07"},{"rt":null,"stimulus":"Sounds/rooster_sound.wav","key_press":null,"block":1,"trial_type":"audio-keyboard-response","trial_index":100,"time_elapsed":2318762,"internal_node_id":"0.0-13.0-0.12","match_key":"l","participant_id":"COGS219_2020_07"},{"rt":null,"stimulus":"<p style=\"font-size: 48px;\">+</p>","key_press":null,"block":1,"trial_type":"html-keyboard-response","trial_index":101,"time_elapsed":2319756,"internal_node_id":"0.0-13.0-1.12","match_key":"l","participant_id":"COGS219_2020_07"},{"rt":385.32999996095896,"stimulus":"Images/rooster_1.png","key_press":76,"stim_onset":1581468436560,"block":1,"match_type":"match","image_category":"rooster","sound_category":"rooster","audio_type":"sound","phase":"test","trial_type":"image-keyboard-response","trial_index":102,"time_elapsed":2320143,"internal_node_id":"0.0-13.0-2.12","match_key":"l","participant_id":"COGS219_2020_07","correct":true},{"rt":null,"stimulus":"Sounds/correct.wav","key_press":null,"block":1,"trial_type":"audio-keyboard-response","trial_index":103,"time_elapsed":2322160,"internal_node_id":"0.0-13.0-3.12","match_key":"l","participant_id":"COGS219_2020_07"},{"rt":null,"stimulus":"Sounds/frog_sound.wav","key_press":null,"block":1,"trial_type":"audio-keyboard-response","trial_index":104,"time_elapsed":2323062,"internal_node_id":"0.0-13.0-0.13","match_key":"l","participant_id":"COGS219_2020_07"},{"rt":null,"stimulus":"<p style=\"font-size: 48px;\">+</p>","key_press":null,"block":1,"trial_type":"html-keyboard-response","trial_index":105,"time_elapsed":2324057,"internal_node_id":"0.0-13.0-1.13","match_key":"l","participant_id":"COGS219_2020_07"},{"rt":405.48499999567866,"stimulus":"Images/frog_2.png","key_press":76,"stim_onset":1581468440861,"block":1,"match_type":"match","image_category":"frog","sound_category":"frog","audio_type":"sound","phase":"test","trial_type":"image-keyboard-response","trial_index":106,"time_elapsed":2324463,"internal_node_id":"0.0-13.0-2.13","match_key":"l","participant_id":"COGS219_2020_07","correct":true},{"rt":null,"stimulus":"Sounds/correct.wav","key_press":null,"block":1,"trial_type":"audio-keyboard-response","trial_index":107,"time_elapsed":2326475,"internal_node_id":"0.0-13.0-3.13","match_key":"l","participant_id":"COGS219_2020_07"},{"rt":null,"stimulus":"Sounds/train_sound.wav","key_press":null,"block":1,"trial_type":"audio-keyboard-response","trial_index":108,"time_elapsed":2327782,"internal_node_id":"0.0-13.0-0.14","match_key":"l","participant_id":"COGS219_2020_07"},{"rt":null,"stimulus":"<p style=\"font-size: 48px;\">+</p>","key_press":null,"block":1,"trial_type":"html-keyboard-response","trial_index":109,"time_elapsed":2328773,"internal_node_id":"0.0-13.0-1.14","match_key":"l","participant_id":"COGS219_2020_07"},{"rt":632.9000000841916,"stimulus":"Images/rooster_1.png","key_press":65,"stim_onset":1581468445578,"block":1,"match_type":"non-match","image_category":"rooster","sound_category":"train","audio_type":"sound","phase":"test","trial_type":"image-keyboard-response","trial_index":110,"time_elapsed":2329407,"internal_node_id":"0.0-13.0-2.14","match_key":"l","participant_id":"COGS219_2020_07","correct":true},{"rt":null,"stimulus":"Sounds/correct.wav","key_press":null,"block":1,"trial_type":"audio-keyboard-response","trial_index":111,"time_elapsed":2331425,"internal_node_id":"0.0-13.0-3.14","match_key":"l","participant_id":"COGS219_2020_07"},{"rt":null,"stimulus":"Sounds/frog_sound.wav","key_press":null,"block":1,"trial_type":"audio-keyboard-response","trial_index":112,"time_elapsed":2332322,"internal_node_id":"0.0-13.0-0.15","match_key":"l","participant_id":"COGS219_2020_07"},{"rt":null,"stimulus":"<p style=\"font-size: 48px;\">+</p>","key_press":null,"block":1,"trial_type":"html-keyboard-response","trial_index":113,"time_elapsed":2333340,"internal_node_id":"0.0-13.0-1.15","match_key":"l","participant_id":"COGS219_2020_07"},{"rt":385.92999998945743,"stimulus":"Images/frog_cartoon.png","key_press":76,"stim_onset":1581468450144,"block":1,"match_type":"match","image_category":"frog","sound_category":"frog","audio_type":"sound","phase":"test","trial_type":"image-keyboard-response","trial_index":114,"time_elapsed":2333727,"internal_node_id":"0.0-13.0-2.15","match_key":"l","participant_id":"COGS219_2020_07","correct":true},{"rt":null,"stimulus":"Sounds/correct.wav","key_press":null,"block":1,"trial_type":"audio-keyboard-response","trial_index":115,"time_elapsed":2335741,"internal_node_id":"0.0-13.0-3.15","match_key":"l","participant_id":"COGS219_2020_07"},{"rt":null,"stimulus":"Sounds/cat_sound.wav","key_press":null,"block":1,"trial_type":"audio-keyboard-response","trial_index":116,"time_elapsed":2336582,"internal_node_id":"0.0-13.0-0.16","match_key":"l","participant_id":"COGS219_2020_07"},{"rt":null,"stimulus":"<p style=\"font-size: 48px;\">+</p>","key_press":null,"block":1,"trial_type":"html-keyboard-response","trial_index":117,"time_elapsed":2337574,"internal_node_id":"0.0-13.0-1.16","match_key":"l","participant_id":"COGS219_2020_07"},{"rt":456.19499997701496,"stimulus":"Images/motorcycle_2.png","key_press":65,"stim_onset":1581468454377,"block":1,"match_type":"non-match","image_category":"motorcycle","sound_category":"cat","audio_type":"sound","phase":"test","trial_type":"image-keyboard-response","trial_index":118,"time_elapsed":2338031,"internal_node_id":"0.0-13.0-2.16","match_key":"l","participant_id":"COGS219_2020_07","correct":true},{"rt":null,"stimulus":"Sounds/correct.wav","key_press":null,"block":1,"trial_type":"audio-keyboard-response","trial_index":119,"time_elapsed":2340037,"internal_node_id":"0.0-13.0-3.16","match_key":"l","participant_id":"COGS219_2020_07"},{"rt":null,"stimulus":"Sounds/dog_label.wav","key_press":null,"block":1,"trial_type":"audio-keyboard-response","trial_index":120,"time_elapsed":2340702,"internal_node_id":"0.0-13.0-0.17","match_key":"l","participant_id":"COGS219_2020_07"},{"rt":null,"stimulus":"<p style=\"font-size: 48px;\">+</p>","key_press":null,"block":1,"trial_type":"html-keyboard-response","trial_index":121,"time_elapsed":2341690,"internal_node_id":"0.0-13.0-1.17","match_key":"l","participant_id":"COGS219_2020_07"},{"rt":499.9499999685213,"stimulus":"Images/motorcycle_3.png","key_press":65,"stim_onset":1581468458494,"block":1,"match_type":"non-match","image_category":"motorcycle","sound_category":"dog","audio_type":"label","phase":"test","trial_type":"image-keyboard-response","trial_index":122,"time_elapsed":2342191,"internal_node_id":"0.0-13.0-2.17","match_key":"l","participant_id":"COGS219_2020_07","correct":true},{"rt":null,"stimulus":"Sounds/correct.wav","key_press":null,"block":1,"trial_type":"audio-keyboard-response","trial_index":123,"time_elapsed":2344201,"internal_node_id":"0.0-13.0-3.17","match_key":"l","participant_id":"COGS219_2020_07"},{"rt":null,"stimulus":"Sounds/frog_label.wav","key_press":null,"block":1,"trial_type":"audio-keyboard-response","trial_index":124,"time_elapsed":2345102,"internal_node_id":"0.0-13.0-0.18","match_key":"l","participant_id":"COGS219_2020_07"},{"rt":null,"stimulus":"<p style=\"font-size: 48px;\">+</p>","key_press":null,"block":1,"trial_type":"html-keyboard-response","trial_index":125,"time_elapsed":2346090,"internal_node_id":"0.0-13.0-1.18","match_key":"l","participant_id":"COGS219_2020_07"},{"rt":435.8400000492111,"stimulus":"Images/gun_3.png","key_press":65,"stim_onset":1581468462895,"block":1,"match_type":"non-match","image_category":"gun","sound_category":"frog","audio_type":"label","phase":"test","trial_type":"image-keyboard-response","trial_index":126,"time_elapsed":2346527,"internal_node_id":"0.0-13.0-2.18","match_key":"l","participant_id":"COGS219_2020_07","correct":true},{"rt":null,"stimulus":"Sounds/correct.wav","key_press":null,"block":1,"trial_type":"audio-keyboard-response","trial_index":127,"time_elapsed":2348540,"internal_node_id":"0.0-13.0-3.18","match_key":"l","participant_id":"COGS219_2020_07"},{"rt":null,"stimulus":"Sounds/rooster_sound.wav","key_press":null,"block":1,"trial_type":"audio-keyboard-response","trial_index":128,"time_elapsed":2349242,"internal_node_id":"0.0-13.0-0.19","match_key":"l","participant_id":"COGS219_2020_07"},{"rt":null,"stimulus":"<p style=\"font-size: 48px;\">+</p>","key_press":null,"block":1,"trial_type":"html-keyboard-response","trial_index":129,"time_elapsed":2350240,"internal_node_id":"0.0-13.0-1.19","match_key":"l","participant_id":"COGS219_2020_07"},{"rt":621.8700000317767,"stimulus":"Images/whistle_2.png","key_press":65,"stim_onset":1581468467044,"block":1,"match_type":"non-match","image_category":"whistle","sound_category":"rooster","audio_type":"sound","phase":"test","trial_type":"image-keyboard-response","trial_index":130,"time_elapsed":2350863,"internal_node_id":"0.0-13.0-2.19","match_key":"l","participant_id":"COGS219_2020_07","correct":true},{"rt":null,"stimulus":"Sounds/correct.wav","key_press":null,"block":1,"trial_type":"audio-keyboard-response","trial_index":131,"time_elapsed":2352875,"internal_node_id":"0.0-13.0-3.19","match_key":"l","participant_id":"COGS219_2020_07"},{"rt":null,"stimulus":"Sounds/cat_label.wav","key_press":null,"block":1,"trial_type":"audio-keyboard-response","trial_index":132,"time_elapsed":2353702,"internal_node_id":"0.0-13.0-0.20","match_key":"l","participant_id":"COGS219_2020_07"},{"rt":null,"stimulus":"<p style=\"font-size: 48px;\">+</p>","key_press":null,"block":1,"trial_type":"html-keyboard-response","trial_index":133,"time_elapsed":2354707,"internal_node_id":"0.0-13.0-1.20","match_key":"l","participant_id":"COGS219_2020_07"},{"rt":667.1249999199063,"stimulus":"Images/cat_orig.png","key_press":76,"stim_onset":1581468471511,"block":1,"match_type":"match","image_category":"cat","sound_category":"cat","audio_type":"label","phase":"test","trial_type":"image-keyboard-response","trial_index":134,"time_elapsed":2355375,"internal_node_id":"0.0-13.0-2.20","match_key":"l","participant_id":"COGS219_2020_07","correct":true},{"rt":null,"stimulus":"Sounds/correct.wav","key_press":null,"block":1,"trial_type":"audio-keyboard-response","trial_index":135,"time_elapsed":2357379,"internal_node_id":"0.0-13.0-3.20","match_key":"l","participant_id":"COGS219_2020_07"},{"rt":null,"stimulus":"Sounds/train_sound.wav","key_press":null,"block":1,"trial_type":"audio-keyboard-response","trial_index":136,"time_elapsed":2358682,"internal_node_id":"0.0-13.0-0.21","match_key":"l","participant_id":"COGS219_2020_07"},{"rt":null,"stimulus":"<p style=\"font-size: 48px;\">+</p>","key_press":null,"block":1,"trial_type":"html-keyboard-response","trial_index":137,"time_elapsed":2359674,"internal_node_id":"0.0-13.0-1.21","match_key":"l","participant_id":"COGS219_2020_07"},{"rt":564.3400000408292,"stimulus":"Images/train_cartoon.png","key_press":76,"stim_onset":1581468476478,"block":1,"match_type":"match","image_category":"train","sound_category":"train","audio_type":"sound","phase":"test","trial_type":"image-keyboard-response","trial_index":138,"time_elapsed":2360239,"internal_node_id":"0.0-13.0-2.21","match_key":"l","participant_id":"COGS219_2020_07","correct":true},{"rt":null,"stimulus":"Sounds/correct.wav","key_press":null,"block":1,"trial_type":"audio-keyboard-response","trial_index":139,"time_elapsed":2362247,"internal_node_id":"0.0-13.0-3.21","match_key":"l","participant_id":"COGS219_2020_07"},{"rt":null,"stimulus":"Sounds/frog_label.wav","key_press":null,"block":1,"trial_type":"audio-keyboard-response","trial_index":140,"time_elapsed":2363142,"internal_node_id":"0.0-13.0-0.22","match_key":"l","participant_id":"COGS219_2020_07"},{"rt":null,"stimulus":"<p style=\"font-size: 48px;\">+</p>","key_press":null,"block":1,"trial_type":"html-keyboard-response","trial_index":141,"time_elapsed":2364140,"internal_node_id":"0.0-13.0-1.22","match_key":"l","participant_id":"COGS219_2020_07"},{"rt":609.7250001039356,"stimulus":"Images/frog_3.png","key_press":76,"stim_onset":1581468480945,"block":1,"match_type":"match","image_category":"frog","sound_category":"frog","audio_type":"label","phase":"test","trial_type":"image-keyboard-response","trial_index":142,"time_elapsed":2364751,"internal_node_id":"0.0-13.0-2.22","match_key":"l","participant_id":"COGS219_2020_07","correct":true},{"rt":null,"stimulus":"Sounds/correct.wav","key_press":null,"block":1,"trial_type":"audio-keyboard-response","trial_index":143,"time_elapsed":2366761,"internal_node_id":"0.0-13.0-3.22","match_key":"l","participant_id":"COGS219_2020_07"},{"rt":null,"stimulus":"Sounds/motorcycle_label.wav","key_press":null,"block":1,"trial_type":"audio-keyboard-response","trial_index":144,"time_elapsed":2367902,"internal_node_id":"0.0-13.0-0.23","match_key":"l","participant_id":"COGS219_2020_07"},{"rt":null,"stimulus":"<p style=\"font-size: 48px;\">+</p>","key_press":null,"block":1,"trial_type":"html-keyboard-response","trial_index":145,"time_elapsed":2368907,"internal_node_id":"0.0-13.0-1.23","match_key":"l","participant_id":"COGS219_2020_07"},{"rt":386.8800000054762,"stimulus":"Images/motorcycle_orig.png","key_press":76,"stim_onset":1581468485711,"block":1,"match_type":"match","image_category":"motorcycle","sound_category":"motorcycle","audio_type":"label","phase":"test","trial_type":"image-keyboard-response","trial_index":146,"time_elapsed":2369295,"internal_node_id":"0.0-13.0-2.23","match_key":"l","participant_id":"COGS219_2020_07","correct":true},{"rt":null,"stimulus":"Sounds/correct.wav","key_press":null,"block":1,"trial_type":"audio-keyboard-response","trial_index":147,"time_elapsed":2371309,"internal_node_id":"0.0-13.0-3.23","match_key":"l","participant_id":"COGS219_2020_07"},{"rt":null,"stimulus":"Sounds/rooster_sound.wav","key_press":null,"block":1,"trial_type":"audio-keyboard-response","trial_index":148,"time_elapsed":2372002,"internal_node_id":"0.0-13.0-0.24","match_key":"l","participant_id":"COGS219_2020_07"},{"rt":null,"stimulus":"<p style=\"font-size: 48px;\">+</p>","key_press":null,"block":1,"trial_type":"html-keyboard-response","trial_index":149,"time_elapsed":2372990,"internal_node_id":"0.0-13.0-1.24","match_key":"l","participant_id":"COGS219_2020_07"},{"rt":893.999999971129,"stimulus":"Images/rooster_3.png","key_press":76,"stim_onset":1581468489795,"block":1,"match_type":"match","image_category":"rooster","sound_category":"rooster","audio_type":"sound","phase":"test","trial_type":"image-keyboard-response","trial_index":150,"time_elapsed":2373887,"internal_node_id":"0.0-13.0-2.24","match_key":"l","participant_id":"COGS219_2020_07","correct":true},{"rt":null,"stimulus":"Sounds/correct.wav","key_press":null,"block":1,"trial_type":"audio-keyboard-response","trial_index":151,"time_elapsed":2375890,"internal_node_id":"0.0-13.0-3.24","match_key":"l","participant_id":"COGS219_2020_07"},{"rt":null,"stimulus":"Sounds/cow_sound.wav","key_press":null,"block":1,"trial_type":"audio-keyboard-response","trial_index":152,"time_elapsed":2376902,"internal_node_id":"0.0-13.0-0.25","match_key":"l","participant_id":"COGS219_2020_07"},{"rt":null,"stimulus":"<p style=\"font-size: 48px;\">+</p>","key_press":null,"block":1,"trial_type":"html-keyboard-response","trial_index":153,"time_elapsed":2377907,"internal_node_id":"0.0-13.0-1.25","match_key":"l","participant_id":"COGS219_2020_07"},{"rt":362.5200000824407,"stimulus":"Images/cow_1.png","key_press":76,"stim_onset":1581468494711,"block":1,"match_type":"match","image_category":"cow","sound_category":"cow","audio_type":"sound","phase":"test","trial_type":"image-keyboard-response","trial_index":154,"time_elapsed":2378271,"internal_node_id":"0.0-13.0-2.25","match_key":"l","participant_id":"COGS219_2020_07","correct":true},{"rt":null,"stimulus":"Sounds/correct.wav","key_press":null,"block":1,"trial_type":"audio-keyboard-response","trial_index":155,"time_elapsed":2380278,"internal_node_id":"0.0-13.0-3.25","match_key":"l","participant_id":"COGS219_2020_07"},{"rt":null,"stimulus":"Sounds/car_label.wav","key_press":null,"block":1,"trial_type":"audio-keyboard-response","trial_index":156,"time_elapsed":2381362,"internal_node_id":"0.0-13.0-0.26","match_key":"l","participant_id":"COGS219_2020_07"},{"rt":null,"stimulus":"<p style=\"font-size: 48px;\">+</p>","key_press":null,"block":1,"trial_type":"html-keyboard-response","trial_index":157,"time_elapsed":2382357,"internal_node_id":"0.0-13.0-1.26","match_key":"l","participant_id":"COGS219_2020_07"},{"rt":488.8749999227002,"stimulus":"Images/cat_orig.png","key_press":65,"stim_onset":1581468499162,"block":1,"match_type":"non-match","image_category":"cat","sound_category":"car","audio_type":"label","phase":"test","trial_type":"image-keyboard-response","trial_index":158,"time_elapsed":2382847,"internal_node_id":"0.0-13.0-2.26","match_key":"l","participant_id":"COGS219_2020_07","correct":true},{"rt":null,"stimulus":"Sounds/correct.wav","key_press":null,"block":1,"trial_type":"audio-keyboard-response","trial_index":159,"time_elapsed":2384852,"internal_node_id":"0.0-13.0-3.26","match_key":"l","participant_id":"COGS219_2020_07"},{"rt":null,"stimulus":"Sounds/rooster_label.wav","key_press":null,"block":1,"trial_type":"audio-keyboard-response","trial_index":160,"time_elapsed":2385542,"internal_node_id":"0.0-13.0-0.27","match_key":"l","participant_id":"COGS219_2020_07"},{"rt":null,"stimulus":"<p style=\"font-size: 48px;\">+</p>","key_press":null,"block":1,"trial_type":"html-keyboard-response","trial_index":161,"time_elapsed":2386540,"internal_node_id":"0.0-13.0-1.27","match_key":"l","participant_id":"COGS219_2020_07"},{"rt":433.30000003334135,"stimulus":"Images/rooster_orig.png","key_press":76,"stim_onset":1581468503345,"block":1,"match_type":"match","image_category":"rooster","sound_category":"rooster","audio_type":"label","phase":"test","trial_type":"image-keyboard-response","trial_index":162,"time_elapsed":2386975,"internal_node_id":"0.0-13.0-2.27","match_key":"l","participant_id":"COGS219_2020_07","correct":true},{"rt":null,"stimulus":"Sounds/correct.wav","key_press":null,"block":1,"trial_type":"audio-keyboard-response","trial_index":163,"time_elapsed":2388990,"internal_node_id":"0.0-13.0-3.27","match_key":"l","participant_id":"COGS219_2020_07"},{"rt":null,"stimulus":"Sounds/frog_label.wav","key_press":null,"block":1,"trial_type":"audio-keyboard-response","trial_index":164,"time_elapsed":2389882,"internal_node_id":"0.0-13.0-0.28","match_key":"l","participant_id":"COGS219_2020_07"},{"rt":null,"stimulus":"<p style=\"font-size: 48px;\">+</p>","key_press":null,"block":1,"trial_type":"html-keyboard-response","trial_index":165,"time_elapsed":2390874,"internal_node_id":"0.0-13.0-1.28","match_key":"l","participant_id":"COGS219_2020_07"},{"rt":531.7250000080094,"stimulus":"Images/rooster_2.png","key_press":65,"stim_onset":1581468507678,"block":1,"match_type":"non-match","image_category":"rooster","sound_category":"frog","audio_type":"label","phase":"test","trial_type":"image-keyboard-response","trial_index":166,"time_elapsed":2391407,"internal_node_id":"0.0-13.0-2.28","match_key":"l","participant_id":"COGS219_2020_07","correct":true},{"rt":null,"stimulus":"Sounds/correct.wav","key_press":null,"block":1,"trial_type":"audio-keyboard-response","trial_index":167,"time_elapsed":2393415,"internal_node_id":"0.0-13.0-3.28","match_key":"l","participant_id":"COGS219_2020_07"},{"rt":null,"stimulus":"Sounds/dog_label.wav","key_press":null,"block":1,"trial_type":"audio-keyboard-response","trial_index":168,"time_elapsed":2394082,"internal_node_id":"0.0-13.0-0.29","match_key":"l","participant_id":"COGS219_2020_07"},{"rt":null,"stimulus":"<p style=\"font-size: 48px;\">+</p>","key_press":null,"block":1,"trial_type":"html-keyboard-response","trial_index":169,"time_elapsed":2395074,"internal_node_id":"0.0-13.0-1.29","match_key":"l","participant_id":"COGS219_2020_07"},{"rt":412.03000000678,"stimulus":"Images/dog_1.png","key_press":76,"stim_onset":1581468511878,"block":1,"match_type":"match","image_category":"dog","sound_category":"dog","audio_type":"label","phase":"test","trial_type":"image-keyboard-response","trial_index":170,"time_elapsed":2395487,"internal_node_id":"0.0-13.0-2.29","match_key":"l","participant_id":"COGS219_2020_07","correct":true},{"rt":null,"stimulus":"Sounds/correct.wav","key_press":null,"block":1,"trial_type":"audio-keyboard-response","trial_index":171,"time_elapsed":2397494,"internal_node_id":"0.0-13.0-3.29","match_key":"l","participant_id":"COGS219_2020_07"},{"rt":null,"stimulus":"Sounds/rooster_label.wav","key_press":null,"block":1,"trial_type":"audio-keyboard-response","trial_index":172,"time_elapsed":2398162,"internal_node_id":"0.0-13.0-0.30","match_key":"l","participant_id":"COGS219_2020_07"},{"rt":null,"stimulus":"<p style=\"font-size: 48px;\">+</p>","key_press":null,"block":1,"trial_type":"html-keyboard-response","trial_index":173,"time_elapsed":2399157,"internal_node_id":"0.0-13.0-1.30","match_key":"l","participant_id":"COGS219_2020_07"},{"rt":472.66499989200383,"stimulus":"Images/dog_orig.png","key_press":65,"stim_onset":1581468515961,"block":1,"match_type":"non-match","image_category":"dog","sound_category":"rooster","audio_type":"label","phase":"test","trial_type":"image-keyboard-response","trial_index":174,"time_elapsed":2399631,"internal_node_id":"0.0-13.0-2.30","match_key":"l","participant_id":"COGS219_2020_07","correct":true},{"rt":null,"stimulus":"Sounds/correct.wav","key_press":null,"block":1,"trial_type":"audio-keyboard-response","trial_index":175,"time_elapsed":2401644,"internal_node_id":"0.0-13.0-3.30","match_key":"l","participant_id":"COGS219_2020_07"},{"rt":null,"stimulus":"Sounds/gun_sound.wav","key_press":null,"block":1,"trial_type":"audio-keyboard-response","trial_index":176,"time_elapsed":2402222,"internal_node_id":"0.0-13.0-0.31","match_key":"l","participant_id":"COGS219_2020_07"},{"rt":null,"stimulus":"<p style=\"font-size: 48px;\">+</p>","key_press":null,"block":1,"trial_type":"html-keyboard-response","trial_index":177,"time_elapsed":2403224,"internal_node_id":"0.0-13.0-1.31","match_key":"l","participant_id":"COGS219_2020_07"},{"rt":405.9400000842288,"stimulus":"Images/gun_3.png","key_press":76,"stim_onset":1581468520028,"block":1,"match_type":"match","image_category":"gun","sound_category":"gun","audio_type":"sound","phase":"test","trial_type":"image-keyboard-response","trial_index":178,"time_elapsed":2403631,"internal_node_id":"0.0-13.0-2.31","match_key":"l","participant_id":"COGS219_2020_07","correct":true},{"rt":null,"stimulus":"Sounds/correct.wav","key_press":null,"block":1,"trial_type":"audio-keyboard-response","trial_index":179,"time_elapsed":2405642,"internal_node_id":"0.0-13.0-3.31","match_key":"l","participant_id":"COGS219_2020_07"},{"rt":null,"stimulus":"Sounds/train_label.wav","key_press":null,"block":1,"trial_type":"audio-keyboard-response","trial_index":180,"time_elapsed":2406922,"internal_node_id":"0.0-13.0-0.32","match_key":"l","participant_id":"COGS219_2020_07"},{"rt":null,"stimulus":"<p style=\"font-size: 48px;\">+</p>","key_press":null,"block":1,"trial_type":"html-keyboard-response","trial_index":181,"time_elapsed":2407924,"internal_node_id":"0.0-13.0-1.32","match_key":"l","participant_id":"COGS219_2020_07"},{"rt":554.1100000264123,"stimulus":"Images/whistle_cartoon.png","key_press":65,"stim_onset":1581468524728,"block":1,"match_type":"non-match","image_category":"whistle","sound_category":"train","audio_type":"label","phase":"test","trial_type":"image-keyboard-response","trial_index":182,"time_elapsed":2408479,"internal_node_id":"0.0-13.0-2.32","match_key":"l","participant_id":"COGS219_2020_07","correct":true},{"rt":null,"stimulus":"Sounds/correct.wav","key_press":null,"block":1,"trial_type":"audio-keyboard-response","trial_index":183,"time_elapsed":2410497,"internal_node_id":"0.0-13.0-3.32","match_key":"l","participant_id":"COGS219_2020_07"},{"rt":null,"stimulus":"Sounds/car_sound.wav","key_press":null,"block":1,"trial_type":"audio-keyboard-response","trial_index":184,"time_elapsed":2411582,"internal_node_id":"0.0-13.0-0.33","match_key":"l","participant_id":"COGS219_2020_07"},{"rt":null,"stimulus":"<p style=\"font-size: 48px;\">+</p>","key_press":null,"block":1,"trial_type":"html-keyboard-response","trial_index":185,"time_elapsed":2412574,"internal_node_id":"0.0-13.0-1.33","match_key":"l","participant_id":"COGS219_2020_07"},{"rt":447.6400000276044,"stimulus":"Images/gun_orig.png","key_press":65,"stim_onset":1581468529378,"block":1,"match_type":"non-match","image_category":"gun","sound_category":"car","audio_type":"sound","phase":"test","trial_type":"image-keyboard-response","trial_index":186,"time_elapsed":2413023,"internal_node_id":"0.0-13.0-2.33","match_key":"l","participant_id":"COGS219_2020_07","correct":true},{"rt":null,"stimulus":"Sounds/correct.wav","key_press":null,"block":1,"trial_type":"audio-keyboard-response","trial_index":187,"time_elapsed":2415038,"internal_node_id":"0.0-13.0-3.33","match_key":"l","participant_id":"COGS219_2020_07"},{"rt":null,"stimulus":"Sounds/motorcycle_label.wav","key_press":null,"block":1,"trial_type":"audio-keyboard-response","trial_index":188,"time_elapsed":2416182,"internal_node_id":"0.0-13.0-0.34","match_key":"l","participant_id":"COGS219_2020_07"},{"rt":null,"stimulus":"<p style=\"font-size: 48px;\">+</p>","key_press":null,"block":1,"trial_type":"html-keyboard-response","trial_index":189,"time_elapsed":2417174,"internal_node_id":"0.0-13.0-1.34","match_key":"l","participant_id":"COGS219_2020_07"},{"rt":471.69999999459833,"stimulus":"Images/motorcycle_3.png","key_press":76,"stim_onset":1581468533978,"block":1,"match_type":"match","image_category":"motorcycle","sound_category":"motorcycle","audio_type":"label","phase":"test","trial_type":"image-keyboard-response","trial_index":190,"time_elapsed":2417647,"internal_node_id":"0.0-13.0-2.34","match_key":"l","participant_id":"COGS219_2020_07","correct":true},{"rt":null,"stimulus":"Sounds/correct.wav","key_press":null,"block":1,"trial_type":"audio-keyboard-response","trial_index":191,"time_elapsed":2419654,"internal_node_id":"0.0-13.0-3.34","match_key":"l","participant_id":"COGS219_2020_07"},{"rt":null,"stimulus":"Sounds/cow_sound.wav","key_press":null,"block":1,"trial_type":"audio-keyboard-response","trial_index":192,"time_elapsed":2420662,"internal_node_id":"0.0-13.0-0.35","match_key":"l","participant_id":"COGS219_2020_07"},{"rt":null,"stimulus":"<p style=\"font-size: 48px;\">+</p>","key_press":null,"block":1,"trial_type":"html-keyboard-response","trial_index":193,"time_elapsed":2421657,"internal_node_id":"0.0-13.0-1.35","match_key":"l","participant_id":"COGS219_2020_07"},{"rt":740.4699999606237,"stimulus":"Images/cow_cartoon.png","key_press":76,"stim_onset":1581468538461,"block":1,"match_type":"match","image_category":"cow","sound_category":"cow","audio_type":"sound","phase":"test","trial_type":"image-keyboard-response","trial_index":194,"time_elapsed":2422399,"internal_node_id":"0.0-13.0-2.35","match_key":"l","participant_id":"COGS219_2020_07","correct":true},{"rt":null,"stimulus":"Sounds/correct.wav","key_press":null,"block":1,"trial_type":"audio-keyboard-response","trial_index":195,"time_elapsed":2424416,"internal_node_id":"0.0-13.0-3.35","match_key":"l","participant_id":"COGS219_2020_07"},{"rt":null,"stimulus":"Sounds/cow_sound.wav","key_press":null,"block":1,"trial_type":"audio-keyboard-response","trial_index":196,"time_elapsed":2425402,"internal_node_id":"0.0-13.0-0.36","match_key":"l","participant_id":"COGS219_2020_07"},{"rt":null,"stimulus":"<p style=\"font-size: 48px;\">+</p>","key_press":null,"block":1,"trial_type":"html-keyboard-response","trial_index":197,"time_elapsed":2426407,"internal_node_id":"0.0-13.0-1.36","match_key":"l","participant_id":"COGS219_2020_07"},{"rt":518.1899999734014,"stimulus":"Images/cat_2.png","key_press":65,"stim_onset":1581468543212,"block":1,"match_type":"non-match","image_category":"cat","sound_category":"cow","audio_type":"sound","phase":"test","trial_type":"image-keyboard-response","trial_index":198,"time_elapsed":2426927,"internal_node_id":"0.0-13.0-2.36","match_key":"l","participant_id":"COGS219_2020_07","correct":true},{"rt":null,"stimulus":"Sounds/correct.wav","key_press":null,"block":1,"trial_type":"audio-keyboard-response","trial_index":199,"time_elapsed":2428933,"internal_node_id":"0.0-13.0-3.36","match_key":"l","participant_id":"COGS219_2020_07"},{"rt":null,"stimulus":"Sounds/car_sound.wav","key_press":null,"block":1,"trial_type":"audio-keyboard-response","trial_index":200,"time_elapsed":2430002,"internal_node_id":"0.0-13.0-0.37","match_key":"l","participant_id":"COGS219_2020_07"},{"rt":null,"stimulus":"<p style=\"font-size: 48px;\">+</p>","key_press":null,"block":1,"trial_type":"html-keyboard-response","trial_index":201,"time_elapsed":2431008,"internal_node_id":"0.0-13.0-1.37","match_key":"l","participant_id":"COGS219_2020_07"},{"rt":574.1249999264255,"stimulus":"Images/car_cartoon.png","key_press":65,"stim_onset":1581468547812,"block":1,"match_type":"match","image_category":"car","sound_category":"car","audio_type":"sound","phase":"test","trial_type":"image-keyboard-response","trial_index":202,"time_elapsed":2431583,"internal_node_id":"0.0-13.0-2.37","match_key":"l","participant_id":"COGS219_2020_07","correct":false},{"rt":null,"stimulus":"Sounds/incorrect.wav","key_press":null,"block":1,"trial_type":"audio-keyboard-response","trial_index":203,"time_elapsed":2433595,"internal_node_id":"0.0-13.0-3.37","match_key":"l","participant_id":"COGS219_2020_07"},{"rt":null,"stimulus":"Sounds/dog_label.wav","key_press":null,"block":1,"trial_type":"audio-keyboard-response","trial_index":204,"time_elapsed":2434262,"internal_node_id":"0.0-13.0-0.38","match_key":"l","participant_id":"COGS219_2020_07"},{"rt":null,"stimulus":"<p style=\"font-size: 48px;\">+</p>","key_press":null,"block":1,"trial_type":"html-keyboard-response","trial_index":205,"time_elapsed":2435257,"internal_node_id":"0.0-13.0-1.38","match_key":"l","participant_id":"COGS219_2020_07"},{"rt":580.3900000173599,"stimulus":"Images/rooster_cartoon.png","key_press":65,"stim_onset":1581468552062,"block":1,"match_type":"non-match","image_category":"rooster","sound_category":"dog","audio_type":"label","phase":"test","trial_type":"image-keyboard-response","trial_index":206,"time_elapsed":2435839,"internal_node_id":"0.0-13.0-2.38","match_key":"l","participant_id":"COGS219_2020_07","correct":true},{"rt":null,"stimulus":"Sounds/correct.wav","key_press":null,"block":1,"trial_type":"audio-keyboard-response","trial_index":207,"time_elapsed":2437846,"internal_node_id":"0.0-13.0-3.38","match_key":"l","participant_id":"COGS219_2020_07"},{"rt":null,"stimulus":"Sounds/whistle_sound.wav","key_press":null,"block":1,"trial_type":"audio-keyboard-response","trial_index":208,"time_elapsed":2438542,"internal_node_id":"0.0-13.0-0.39","match_key":"l","participant_id":"COGS219_2020_07"},{"rt":null,"stimulus":"<p style=\"font-size: 48px;\">+</p>","key_press":null,"block":1,"trial_type":"html-keyboard-response","trial_index":209,"time_elapsed":2439541,"internal_node_id":"0.0-13.0-1.39","match_key":"l","participant_id":"COGS219_2020_07"},{"rt":840.749999973923,"stimulus":"Images/train_3.png","key_press":76,"stim_onset":1581468556345,"block":1,"match_type":"non-match","image_category":"train","sound_category":"whistle","audio_type":"sound","phase":"test","trial_type":"image-keyboard-response","trial_index":210,"time_elapsed":2440383,"internal_node_id":"0.0-13.0-2.39","match_key":"l","participant_id":"COGS219_2020_07","correct":false},{"rt":null,"stimulus":"Sounds/incorrect.wav","key_press":null,"block":1,"trial_type":"audio-keyboard-response","trial_index":211,"time_elapsed":2442393,"internal_node_id":"0.0-13.0-3.39","match_key":"l","participant_id":"COGS219_2020_07"},{"rt":null,"stimulus":"Sounds/rooster_label.wav","key_press":null,"block":1,"trial_type":"audio-keyboard-response","trial_index":212,"time_elapsed":2443102,"internal_node_id":"0.0-13.0-0.40","match_key":"l","participant_id":"COGS219_2020_07"},{"rt":null,"stimulus":"<p style=\"font-size: 48px;\">+</p>","key_press":null,"block":1,"trial_type":"html-keyboard-response","trial_index":213,"time_elapsed":2444091,"internal_node_id":"0.0-13.0-1.40","match_key":"l","participant_id":"COGS219_2020_07"},{"rt":450.51500003319234,"stimulus":"Images/rooster_2.png","key_press":76,"stim_onset":1581468560895,"block":1,"match_type":"match","image_category":"rooster","sound_category":"rooster","audio_type":"label","phase":"test","trial_type":"image-keyboard-response","trial_index":214,"time_elapsed":2444543,"internal_node_id":"0.0-13.0-2.40","match_key":"l","participant_id":"COGS219_2020_07","correct":true},{"rt":null,"stimulus":"Sounds/correct.wav","key_press":null,"block":1,"trial_type":"audio-keyboard-response","trial_index":215,"time_elapsed":2446556,"internal_node_id":"0.0-13.0-3.40","match_key":"l","participant_id":"COGS219_2020_07"},{"rt":null,"stimulus":"Sounds/cat_label.wav","key_press":null,"block":1,"trial_type":"audio-keyboard-response","trial_index":216,"time_elapsed":2447402,"internal_node_id":"0.0-13.0-0.41","match_key":"l","participant_id":"COGS219_2020_07"},{"rt":null,"stimulus":"<p style=\"font-size: 48px;\">+</p>","key_press":null,"block":1,"trial_type":"html-keyboard-response","trial_index":217,"time_elapsed":2448391,"internal_node_id":"0.0-13.0-1.41","match_key":"l","participant_id":"COGS219_2020_07"},{"rt":438.8749999925494,"stimulus":"Images/cat_1.png","key_press":76,"stim_onset":1581468565195,"block":1,"match_type":"match","image_category":"cat","sound_category":"cat","audio_type":"label","phase":"test","trial_type":"image-keyboard-response","trial_index":218,"time_elapsed":2448831,"internal_node_id":"0.0-13.0-2.41","match_key":"l","participant_id":"COGS219_2020_07","correct":true},{"rt":null,"stimulus":"Sounds/correct.wav","key_press":null,"block":1,"trial_type":"audio-keyboard-response","trial_index":219,"time_elapsed":2450845,"internal_node_id":"0.0-13.0-3.41","match_key":"l","participant_id":"COGS219_2020_07"},{"rt":null,"stimulus":"Sounds/dog_sound.wav","key_press":null,"block":1,"trial_type":"audio-keyboard-response","trial_index":220,"time_elapsed":2451562,"internal_node_id":"0.0-13.0-0.42","match_key":"l","participant_id":"COGS219_2020_07"},{"rt":null,"stimulus":"<p style=\"font-size: 48px;\">+</p>","key_press":null,"block":1,"trial_type":"html-keyboard-response","trial_index":221,"time_elapsed":2452558,"internal_node_id":"0.0-13.0-1.42","match_key":"l","participant_id":"COGS219_2020_07"},{"rt":464.05499998945743,"stimulus":"Images/dog_2.png","key_press":76,"stim_onset":1581468569362,"block":1,"match_type":"match","image_category":"dog","sound_category":"dog","audio_type":"sound","phase":"test","trial_type":"image-keyboard-response","trial_index":222,"time_elapsed":2453023,"internal_node_id":"0.0-13.0-2.42","match_key":"l","participant_id":"COGS219_2020_07","correct":true},{"rt":null,"stimulus":"Sounds/correct.wav","key_press":null,"block":1,"trial_type":"audio-keyboard-response","trial_index":223,"time_elapsed":2455037,"internal_node_id":"0.0-13.0-3.42","match_key":"l","participant_id":"COGS219_2020_07"},{"rt":null,"stimulus":"Sounds/train_label.wav","key_press":null,"block":1,"trial_type":"audio-keyboard-response","trial_index":224,"time_elapsed":2456322,"internal_node_id":"0.0-13.0-0.43","match_key":"l","participant_id":"COGS219_2020_07"},{"rt":null,"stimulus":"<p style=\"font-size: 48px;\">+</p>","key_press":null,"block":1,"trial_type":"html-keyboard-response","trial_index":225,"time_elapsed":2457324,"internal_node_id":"0.0-13.0-1.43","match_key":"l","participant_id":"COGS219_2020_07"},{"rt":481.20499996002764,"stimulus":"Images/train_3.png","key_press":76,"stim_onset":1581468574129,"block":1,"match_type":"match","image_category":"train","sound_category":"train","audio_type":"label","phase":"test","trial_type":"image-keyboard-response","trial_index":226,"time_elapsed":2457807,"internal_node_id":"0.0-13.0-2.43","match_key":"l","participant_id":"COGS219_2020_07","correct":true},{"rt":null,"stimulus":"Sounds/correct.wav","key_press":null,"block":1,"trial_type":"audio-keyboard-response","trial_index":227,"time_elapsed":2459820,"internal_node_id":"0.0-13.0-3.43","match_key":"l","participant_id":"COGS219_2020_07"},{"rt":null,"stimulus":"Sounds/dog_label.wav","key_press":null,"block":1,"trial_type":"audio-keyboard-response","trial_index":228,"time_elapsed":2460482,"internal_node_id":"0.0-13.0-0.44","match_key":"l","participant_id":"COGS219_2020_07"},{"rt":null,"stimulus":"<p style=\"font-size: 48px;\">+</p>","key_press":null,"block":1,"trial_type":"html-keyboard-response","trial_index":229,"time_elapsed":2461475,"internal_node_id":"0.0-13.0-1.44","match_key":"l","participant_id":"COGS219_2020_07"},{"rt":603.4450000151992,"stimulus":"Images/frog_cartoon.png","key_press":65,"stim_onset":1581468578279,"block":1,"match_type":"non-match","image_category":"frog","sound_category":"dog","audio_type":"label","phase":"test","trial_type":"image-keyboard-response","trial_index":230,"time_elapsed":2462079,"internal_node_id":"0.0-13.0-2.44","match_key":"l","participant_id":"COGS219_2020_07","correct":true},{"rt":null,"stimulus":"Sounds/correct.wav","key_press":null,"block":1,"trial_type":"audio-keyboard-response","trial_index":231,"time_elapsed":2464095,"internal_node_id":"0.0-13.0-3.44","match_key":"l","participant_id":"COGS219_2020_07"},{"rt":null,"stimulus":"Sounds/gun_label.wav","key_press":null,"block":1,"trial_type":"audio-keyboard-response","trial_index":232,"time_elapsed":2464682,"internal_node_id":"0.0-13.0-0.45","match_key":"l","participant_id":"COGS219_2020_07"},{"rt":null,"stimulus":"<p style=\"font-size: 48px;\">+</p>","key_press":null,"block":1,"trial_type":"html-keyboard-response","trial_index":233,"time_elapsed":2465675,"internal_node_id":"0.0-13.0-1.45","match_key":"l","participant_id":"COGS219_2020_07"},{"rt":675.1699999440461,"stimulus":"Images/gun_2.png","key_press":76,"stim_onset":1581468582479,"block":1,"match_type":"match","image_category":"gun","sound_category":"gun","audio_type":"label","phase":"test","trial_type":"image-keyboard-response","trial_index":234,"time_elapsed":2466351,"internal_node_id":"0.0-13.0-2.45","match_key":"l","participant_id":"COGS219_2020_07","correct":true},{"rt":null,"stimulus":"Sounds/correct.wav","key_press":null,"block":1,"trial_type":"audio-keyboard-response","trial_index":235,"time_elapsed":2468355,"internal_node_id":"0.0-13.0-3.45","match_key":"l","participant_id":"COGS219_2020_07"},{"rt":null,"stimulus":"Sounds/gun_label.wav","key_press":null,"block":1,"trial_type":"audio-keyboard-response","trial_index":236,"time_elapsed":2468902,"internal_node_id":"0.0-13.0-0.46","match_key":"l","participant_id":"COGS219_2020_07"},{"rt":null,"stimulus":"<p style=\"font-size: 48px;\">+</p>","key_press":null,"block":1,"trial_type":"html-keyboard-response","trial_index":237,"time_elapsed":2469891,"internal_node_id":"0.0-13.0-1.46","match_key":"l","participant_id":"COGS219_2020_07"},{"rt":458.50499998778105,"stimulus":"Images/gun_1.png","key_press":76,"stim_onset":1581468586695,"block":1,"match_type":"match","image_category":"gun","sound_category":"gun","audio_type":"label","phase":"test","trial_type":"image-keyboard-response","trial_index":238,"time_elapsed":2470351,"internal_node_id":"0.0-13.0-2.46","match_key":"l","participant_id":"COGS219_2020_07","correct":true},{"rt":null,"stimulus":"Sounds/correct.wav","key_press":null,"block":1,"trial_type":"audio-keyboard-response","trial_index":239,"time_elapsed":2472358,"internal_node_id":"0.0-13.0-3.46","match_key":"l","participant_id":"COGS219_2020_07"},{"rt":null,"stimulus":"Sounds/motorcycle_sound.wav","key_press":null,"block":1,"trial_type":"audio-keyboard-response","trial_index":240,"time_elapsed":2473482,"internal_node_id":"0.0-13.0-0.47","match_key":"l","participant_id":"COGS219_2020_07"},{"rt":null,"stimulus":"<p style=\"font-size: 48px;\">+</p>","key_press":null,"block":1,"trial_type":"html-keyboard-response","trial_index":241,"time_elapsed":2474475,"internal_node_id":"0.0-13.0-1.47","match_key":"l","participant_id":"COGS219_2020_07"},{"rt":563.4999999310821,"stimulus":"Images/motorcycle_2.png","key_press":76,"stim_onset":1581468591279,"block":1,"match_type":"match","image_category":"motorcycle","sound_category":"motorcycle","audio_type":"sound","phase":"test","trial_type":"image-keyboard-response","trial_index":242,"time_elapsed":2475039,"internal_node_id":"0.0-13.0-2.47","match_key":"l","participant_id":"COGS219_2020_07","correct":true},{"rt":null,"stimulus":"Sounds/correct.wav","key_press":null,"block":1,"trial_type":"audio-keyboard-response","trial_index":243,"time_elapsed":2477048,"internal_node_id":"0.0-13.0-3.47","match_key":"l","participant_id":"COGS219_2020_07"},{"rt":null,"stimulus":"Sounds/whistle_sound.wav","key_press":null,"block":1,"trial_type":"audio-keyboard-response","trial_index":244,"time_elapsed":2477742,"internal_node_id":"0.0-13.0-0.48","match_key":"l","participant_id":"COGS219_2020_07"},{"rt":null,"stimulus":"<p style=\"font-size: 48px;\">+</p>","key_press":null,"block":1,"trial_type":"html-keyboard-response","trial_index":245,"time_elapsed":2478741,"internal_node_id":"0.0-13.0-1.48","match_key":"l","participant_id":"COGS219_2020_07"},{"rt":440.3799999272451,"stimulus":"Images/whistle_2.png","key_press":76,"stim_onset":1581468595545,"block":1,"match_type":"match","image_category":"whistle","sound_category":"whistle","audio_type":"sound","phase":"test","trial_type":"image-keyboard-response","trial_index":246,"time_elapsed":2479183,"internal_node_id":"0.0-13.0-2.48","match_key":"l","participant_id":"COGS219_2020_07","correct":true},{"rt":null,"stimulus":"Sounds/correct.wav","key_press":null,"block":1,"trial_type":"audio-keyboard-response","trial_index":247,"time_elapsed":2481195,"internal_node_id":"0.0-13.0-3.48","match_key":"l","participant_id":"COGS219_2020_07"},{"rt":null,"stimulus":"Sounds/frog_label.wav","key_press":null,"block":1,"trial_type":"audio-keyboard-response","trial_index":248,"time_elapsed":2482082,"internal_node_id":"0.0-13.0-0.49","match_key":"l","participant_id":"COGS219_2020_07"},{"rt":null,"stimulus":"<p style=\"font-size: 48px;\">+</p>","key_press":null,"block":1,"trial_type":"html-keyboard-response","trial_index":249,"time_elapsed":2483075,"internal_node_id":"0.0-13.0-1.49","match_key":"l","participant_id":"COGS219_2020_07"},{"rt":555.1549999509007,"stimulus":"Images/cat_1.png","key_press":65,"stim_onset":1581468599879,"block":1,"match_type":"non-match","image_category":"cat","sound_category":"frog","audio_type":"label","phase":"test","trial_type":"image-keyboard-response","trial_index":250,"time_elapsed":2483631,"internal_node_id":"0.0-13.0-2.49","match_key":"l","participant_id":"COGS219_2020_07","correct":true},{"rt":null,"stimulus":"Sounds/correct.wav","key_press":null,"block":1,"trial_type":"audio-keyboard-response","trial_index":251,"time_elapsed":2485634,"internal_node_id":"0.0-13.0-3.49","match_key":"l","participant_id":"COGS219_2020_07"},{"rt":null,"stimulus":"Sounds/motorcycle_sound.wav","key_press":null,"block":1,"trial_type":"audio-keyboard-response","trial_index":252,"time_elapsed":2486722,"internal_node_id":"0.0-13.0-0.50","match_key":"l","participant_id":"COGS219_2020_07"},{"rt":null,"stimulus":"<p style=\"font-size: 48px;\">+</p>","key_press":null,"block":1,"trial_type":"html-keyboard-response","trial_index":253,"time_elapsed":2487725,"internal_node_id":"0.0-13.0-1.50","match_key":"l","participant_id":"COGS219_2020_07"},{"rt":673.3050000621006,"stimulus":"Images/train_cartoon.png","key_press":65,"stim_onset":1581468604529,"block":1,"match_type":"non-match","image_category":"train","sound_category":"motorcycle","audio_type":"sound","phase":"test","trial_type":"image-keyboard-response","trial_index":254,"time_elapsed":2488399,"internal_node_id":"0.0-13.0-2.50","match_key":"l","participant_id":"COGS219_2020_07","correct":true},{"rt":null,"stimulus":"Sounds/correct.wav","key_press":null,"block":1,"trial_type":"audio-keyboard-response","trial_index":255,"time_elapsed":2490407,"internal_node_id":"0.0-13.0-3.50","match_key":"l","participant_id":"COGS219_2020_07"},{"rt":null,"stimulus":"Sounds/train_label.wav","key_press":null,"block":1,"trial_type":"audio-keyboard-response","trial_index":256,"time_elapsed":2491682,"internal_node_id":"0.0-13.0-0.51","match_key":"l","participant_id":"COGS219_2020_07"},{"rt":null,"stimulus":"<p style=\"font-size: 48px;\">+</p>","key_press":null,"block":1,"trial_type":"html-keyboard-response","trial_index":257,"time_elapsed":2492675,"internal_node_id":"0.0-13.0-1.51","match_key":"l","participant_id":"COGS219_2020_07"},{"rt":474.72499997820705,"stimulus":"Images/train_1.png","key_press":76,"stim_onset":1581468609479,"block":1,"match_type":"match","image_category":"train","sound_category":"train","audio_type":"label","phase":"test","trial_type":"image-keyboard-response","trial_index":258,"time_elapsed":2493151,"internal_node_id":"0.0-13.0-2.51","match_key":"l","participant_id":"COGS219_2020_07","correct":true},{"rt":null,"stimulus":"Sounds/correct.wav","key_press":null,"block":1,"trial_type":"audio-keyboard-response","trial_index":259,"time_elapsed":2495154,"internal_node_id":"0.0-13.0-3.51","match_key":"l","participant_id":"COGS219_2020_07"},{"rt":null,"stimulus":"Sounds/whistle_sound.wav","key_press":null,"block":1,"trial_type":"audio-keyboard-response","trial_index":260,"time_elapsed":2495842,"internal_node_id":"0.0-13.0-0.52","match_key":"l","participant_id":"COGS219_2020_07"},{"rt":null,"stimulus":"<p style=\"font-size: 48px;\">+</p>","key_press":null,"block":1,"trial_type":"html-keyboard-response","trial_index":261,"time_elapsed":2496842,"internal_node_id":"0.0-13.0-1.52","match_key":"l","participant_id":"COGS219_2020_07"},{"rt":628.1850000377744,"stimulus":"Images/whistle_1.png","key_press":76,"stim_onset":1581468613646,"block":1,"match_type":"match","image_category":"whistle","sound_category":"whistle","audio_type":"sound","phase":"test","trial_type":"image-keyboard-response","trial_index":262,"time_elapsed":2497471,"internal_node_id":"0.0-13.0-2.52","match_key":"l","participant_id":"COGS219_2020_07","correct":true},{"rt":null,"stimulus":"Sounds/correct.wav","key_press":null,"block":1,"trial_type":"audio-keyboard-response","trial_index":263,"time_elapsed":2499480,"internal_node_id":"0.0-13.0-3.52","match_key":"l","participant_id":"COGS219_2020_07"},{"rt":null,"stimulus":"Sounds/cow_sound.wav","key_press":null,"block":1,"trial_type":"audio-keyboard-response","trial_index":264,"time_elapsed":2500502,"internal_node_id":"0.0-13.0-0.53","match_key":"l","participant_id":"COGS219_2020_07"},{"rt":null,"stimulus":"<p style=\"font-size: 48px;\">+</p>","key_press":null,"block":1,"trial_type":"html-keyboard-response","trial_index":265,"time_elapsed":2501492,"internal_node_id":"0.0-13.0-1.53","match_key":"l","participant_id":"COGS219_2020_07"},{"rt":570.4050000058487,"stimulus":"Images/car_cartoon.png","key_press":65,"stim_onset":1581468618296,"block":1,"match_type":"non-match","image_category":"car","sound_category":"cow","audio_type":"sound","phase":"test","trial_type":"image-keyboard-response","trial_index":266,"time_elapsed":2502063,"internal_node_id":"0.0-13.0-2.53","match_key":"l","participant_id":"COGS219_2020_07","correct":true},{"rt":null,"stimulus":"Sounds/correct.wav","key_press":null,"block":1,"trial_type":"audio-keyboard-response","trial_index":267,"time_elapsed":2504068,"internal_node_id":"0.0-13.0-3.53","match_key":"l","participant_id":"COGS219_2020_07"},{"rt":null,"stimulus":"Sounds/car_label.wav","key_press":null,"block":1,"trial_type":"audio-keyboard-response","trial_index":268,"time_elapsed":2505142,"internal_node_id":"0.0-13.0-0.54","match_key":"l","participant_id":"COGS219_2020_07"},{"rt":null,"stimulus":"<p style=\"font-size: 48px;\">+</p>","key_press":null,"block":1,"trial_type":"html-keyboard-response","trial_index":269,"time_elapsed":2506142,"internal_node_id":"0.0-13.0-1.54","match_key":"l","participant_id":"COGS219_2020_07"},{"rt":432.3350000195205,"stimulus":"Images/car_3.png","key_press":76,"stim_onset":1581468622946,"block":1,"match_type":"match","image_category":"car","sound_category":"car","audio_type":"label","phase":"test","trial_type":"image-keyboard-response","trial_index":270,"time_elapsed":2506575,"internal_node_id":"0.0-13.0-2.54","match_key":"l","participant_id":"COGS219_2020_07","correct":true},{"rt":null,"stimulus":"Sounds/correct.wav","key_press":null,"block":1,"trial_type":"audio-keyboard-response","trial_index":271,"time_elapsed":2508590,"internal_node_id":"0.0-13.0-3.54","match_key":"l","participant_id":"COGS219_2020_07"},{"rt":null,"stimulus":"Sounds/whistle_sound.wav","key_press":null,"block":1,"trial_type":"audio-keyboard-response","trial_index":272,"time_elapsed":2509262,"internal_node_id":"0.0-13.0-0.55","match_key":"l","participant_id":"COGS219_2020_07"},{"rt":null,"stimulus":"<p style=\"font-size: 48px;\">+</p>","key_press":null,"block":1,"trial_type":"html-keyboard-response","trial_index":273,"time_elapsed":2510258,"internal_node_id":"0.0-13.0-1.55","match_key":"l","participant_id":"COGS219_2020_07"},{"rt":667.2799999359995,"stimulus":"Images/whistle_orig.png","key_press":76,"stim_onset":1581468627063,"block":1,"match_type":"match","image_category":"whistle","sound_category":"whistle","audio_type":"sound","phase":"test","trial_type":"image-keyboard-response","trial_index":274,"time_elapsed":2510927,"internal_node_id":"0.0-13.0-2.55","match_key":"l","participant_id":"COGS219_2020_07","correct":true},{"rt":null,"stimulus":"Sounds/correct.wav","key_press":null,"block":1,"trial_type":"audio-keyboard-response","trial_index":275,"time_elapsed":2512939,"internal_node_id":"0.0-13.0-3.55","match_key":"l","participant_id":"COGS219_2020_07"},{"rt":null,"stimulus":"Sounds/motorcycle_label.wav","key_press":null,"block":1,"trial_type":"audio-keyboard-response","trial_index":276,"time_elapsed":2514082,"internal_node_id":"0.0-13.0-0.56","match_key":"l","participant_id":"COGS219_2020_07"},{"rt":null,"stimulus":"<p style=\"font-size: 48px;\">+</p>","key_press":null,"block":1,"trial_type":"html-keyboard-response","trial_index":277,"time_elapsed":2515075,"internal_node_id":"0.0-13.0-1.56","match_key":"l","participant_id":"COGS219_2020_07"},{"rt":490.8300000242889,"stimulus":"Images/motorcycle_cartoon.png","key_press":76,"stim_onset":1581468631879,"block":1,"match_type":"match","image_category":"motorcycle","sound_category":"motorcycle","audio_type":"label","phase":"test","trial_type":"image-keyboard-response","trial_index":278,"time_elapsed":2515567,"internal_node_id":"0.0-13.0-2.56","match_key":"l","participant_id":"COGS219_2020_07","correct":true},{"rt":null,"stimulus":"Sounds/correct.wav","key_press":null,"block":1,"trial_type":"audio-keyboard-response","trial_index":279,"time_elapsed":2517571,"internal_node_id":"0.0-13.0-3.56","match_key":"l","participant_id":"COGS219_2020_07"},{"rt":null,"stimulus":"Sounds/cow_label.wav","key_press":null,"block":1,"trial_type":"audio-keyboard-response","trial_index":280,"time_elapsed":2518582,"internal_node_id":"0.0-13.0-0.57","match_key":"l","participant_id":"COGS219_2020_07"},{"rt":null,"stimulus":"<p style=\"font-size: 48px;\">+</p>","key_press":null,"block":1,"trial_type":"html-keyboard-response","trial_index":281,"time_elapsed":2519575,"internal_node_id":"0.0-13.0-1.57","match_key":"l","participant_id":"COGS219_2020_07"},{"rt":486.6349999792874,"stimulus":"Images/gun_1.png","key_press":65,"stim_onset":1581468636379,"block":1,"match_type":"non-match","image_category":"gun","sound_category":"cow","audio_type":"label","phase":"test","trial_type":"image-keyboard-response","trial_index":282,"time_elapsed":2520063,"internal_node_id":"0.0-13.0-2.57","match_key":"l","participant_id":"COGS219_2020_07","correct":true},{"rt":null,"stimulus":"Sounds/correct.wav","key_press":null,"block":1,"trial_type":"audio-keyboard-response","trial_index":283,"time_elapsed":2522070,"internal_node_id":"0.0-13.0-3.57","match_key":"l","participant_id":"COGS219_2020_07"},{"rt":null,"stimulus":"Sounds/dog_sound.wav","key_press":null,"block":1,"trial_type":"audio-keyboard-response","trial_index":284,"time_elapsed":2522782,"internal_node_id":"0.0-13.0-0.58","match_key":"l","participant_id":"COGS219_2020_07"},{"rt":null,"stimulus":"<p style=\"font-size: 48px;\">+</p>","key_press":null,"block":1,"trial_type":"html-keyboard-response","trial_index":285,"time_elapsed":2523775,"internal_node_id":"0.0-13.0-1.58","match_key":"l","participant_id":"COGS219_2020_07"},{"rt":398.47499993629754,"stimulus":"Images/dog_cartoon.png","key_press":76,"stim_onset":1581468640579,"block":1,"match_type":"match","image_category":"dog","sound_category":"dog","audio_type":"sound","phase":"test","trial_type":"image-keyboard-response","trial_index":286,"time_elapsed":2524175,"internal_node_id":"0.0-13.0-2.58","match_key":"l","participant_id":"COGS219_2020_07","correct":true},{"rt":null,"stimulus":"Sounds/correct.wav","key_press":null,"block":1,"trial_type":"audio-keyboard-response","trial_index":287,"time_elapsed":2526179,"internal_node_id":"0.0-13.0-3.58","match_key":"l","participant_id":"COGS219_2020_07"},{"rt":null,"stimulus":"Sounds/car_label.wav","key_press":null,"block":1,"trial_type":"audio-keyboard-response","trial_index":288,"time_elapsed":2527242,"internal_node_id":"0.0-13.0-0.59","match_key":"l","participant_id":"COGS219_2020_07"},{"rt":null,"stimulus":"<p style=\"font-size: 48px;\">+</p>","key_press":null,"block":1,"trial_type":"html-keyboard-response","trial_index":289,"time_elapsed":2528242,"internal_node_id":"0.0-13.0-1.59","match_key":"l","participant_id":"COGS219_2020_07"},{"rt":556.0250000562519,"stimulus":"Images/frog_3.png","key_press":65,"stim_onset":1581468645046,"block":1,"match_type":"non-match","image_category":"frog","sound_category":"car","audio_type":"label","phase":"test","trial_type":"image-keyboard-response","trial_index":290,"time_elapsed":2528799,"internal_node_id":"0.0-13.0-2.59","match_key":"l","participant_id":"COGS219_2020_07","correct":true},{"rt":null,"stimulus":"Sounds/correct.wav","key_press":null,"block":1,"trial_type":"audio-keyboard-response","trial_index":291,"time_elapsed":2530815,"internal_node_id":"0.0-13.0-3.59","match_key":"l","participant_id":"COGS219_2020_07"},{"rt":null,"stimulus":"Sounds/dog_sound.wav","key_press":null,"block":1,"trial_type":"audio-keyboard-response","trial_index":292,"time_elapsed":2531502,"internal_node_id":"0.0-13.0-0.60","match_key":"l","participant_id":"COGS219_2020_07"},{"rt":null,"stimulus":"<p style=\"font-size: 48px;\">+</p>","key_press":null,"block":1,"trial_type":"html-keyboard-response","trial_index":293,"time_elapsed":2532492,"internal_node_id":"0.0-13.0-1.60","match_key":"l","participant_id":"COGS219_2020_07"},{"rt":641.7249999940395,"stimulus":"Images/dog_3.png","key_press":76,"stim_onset":1581468649296,"block":1,"match_type":"match","image_category":"dog","sound_category":"dog","audio_type":"sound","phase":"test","trial_type":"image-keyboard-response","trial_index":294,"time_elapsed":2533135,"internal_node_id":"0.0-13.0-2.60","match_key":"l","participant_id":"COGS219_2020_07","correct":true},{"rt":null,"stimulus":"Sounds/correct.wav","key_press":null,"block":1,"trial_type":"audio-keyboard-response","trial_index":295,"time_elapsed":2535146,"internal_node_id":"0.0-13.0-3.60","match_key":"l","participant_id":"COGS219_2020_07"},{"rt":null,"stimulus":"Sounds/cow_label.wav","key_press":null,"block":1,"trial_type":"audio-keyboard-response","trial_index":296,"time_elapsed":2536142,"internal_node_id":"0.0-13.0-0.61","match_key":"l","participant_id":"COGS219_2020_07"},{"rt":null,"stimulus":"<p style=\"font-size: 48px;\">+</p>","key_press":null,"block":1,"trial_type":"html-keyboard-response","trial_index":297,"time_elapsed":2537142,"internal_node_id":"0.0-13.0-1.61","match_key":"l","participant_id":"COGS219_2020_07"},{"rt":455.4850000422448,"stimulus":"Images/cow_orig.png","key_press":76,"stim_onset":1581468653946,"block":1,"match_type":"match","image_category":"cow","sound_category":"cow","audio_type":"label","phase":"test","trial_type":"image-keyboard-response","trial_index":298,"time_elapsed":2537599,"internal_node_id":"0.0-13.0-2.61","match_key":"l","participant_id":"COGS219_2020_07","correct":true},{"rt":null,"stimulus":"Sounds/correct.wav","key_press":null,"block":1,"trial_type":"audio-keyboard-response","trial_index":299,"time_elapsed":2539606,"internal_node_id":"0.0-13.0-3.61","match_key":"l","participant_id":"COGS219_2020_07"},{"rt":null,"stimulus":"Sounds/gun_sound.wav","key_press":null,"block":1,"trial_type":"audio-keyboard-response","trial_index":300,"time_elapsed":2540182,"internal_node_id":"0.0-13.0-0.62","match_key":"l","participant_id":"COGS219_2020_07"},{"rt":null,"stimulus":"<p style=\"font-size: 48px;\">+</p>","key_press":null,"block":1,"trial_type":"html-keyboard-response","trial_index":301,"time_elapsed":2541175,"internal_node_id":"0.0-13.0-1.62","match_key":"l","participant_id":"COGS219_2020_07"},{"rt":374.5549999875948,"stimulus":"Images/motorcycle_cartoon.png","key_press":65,"stim_onset":1581468657980,"block":1,"match_type":"non-match","image_category":"motorcycle","sound_category":"gun","audio_type":"sound","phase":"test","trial_type":"image-keyboard-response","trial_index":302,"time_elapsed":2541551,"internal_node_id":"0.0-13.0-2.62","match_key":"l","participant_id":"COGS219_2020_07","correct":true},{"rt":null,"stimulus":"Sounds/correct.wav","key_press":null,"block":1,"trial_type":"audio-keyboard-response","trial_index":303,"time_elapsed":2543563,"internal_node_id":"0.0-13.0-3.62","match_key":"l","participant_id":"COGS219_2020_07"},{"rt":null,"stimulus":"Sounds/cat_sound.wav","key_press":null,"block":1,"trial_type":"audio-keyboard-response","trial_index":304,"time_elapsed":2544402,"internal_node_id":"0.0-13.0-0.63","match_key":"l","participant_id":"COGS219_2020_07"},{"rt":null,"stimulus":"<p style=\"font-size: 48px;\">+</p>","key_press":null,"block":1,"trial_type":"html-keyboard-response","trial_index":305,"time_elapsed":2545392,"internal_node_id":"0.0-13.0-1.63","match_key":"l","participant_id":"COGS219_2020_07"},{"rt":365.5600000638515,"stimulus":"Images/cat_2.png","key_press":76,"stim_onset":1581468662196,"block":1,"match_type":"match","image_category":"cat","sound_category":"cat","audio_type":"sound","phase":"test","trial_type":"image-keyboard-response","trial_index":306,"time_elapsed":2545759,"internal_node_id":"0.0-13.0-2.63","match_key":"l","participant_id":"COGS219_2020_07","correct":true},{"rt":null,"stimulus":"Sounds/correct.wav","key_press":null,"block":1,"trial_type":"audio-keyboard-response","trial_index":307,"time_elapsed":2547764,"internal_node_id":"0.0-13.0-3.63","match_key":"l","participant_id":"COGS219_2020_07"},{"rt":null,"stimulus":"Sounds/rooster_sound.wav","key_press":null,"block":1,"trial_type":"audio-keyboard-response","trial_index":308,"time_elapsed":2548462,"internal_node_id":"0.0-13.0-0.64","match_key":"l","participant_id":"COGS219_2020_07"},{"rt":null,"stimulus":"<p style=\"font-size: 48px;\">+</p>","key_press":null,"block":1,"trial_type":"html-keyboard-response","trial_index":309,"time_elapsed":2549459,"internal_node_id":"0.0-13.0-1.64","match_key":"l","participant_id":"COGS219_2020_07"},{"rt":506.82999996934086,"stimulus":"Images/cat_cartoon.png","key_press":65,"stim_onset":1581468666263,"block":1,"match_type":"non-match","image_category":"cat","sound_category":"rooster","audio_type":"sound","phase":"test","trial_type":"image-keyboard-response","trial_index":310,"time_elapsed":2549967,"internal_node_id":"0.0-13.0-2.64","match_key":"l","participant_id":"COGS219_2020_07","correct":true},{"rt":null,"stimulus":"Sounds/correct.wav","key_press":null,"block":1,"trial_type":"audio-keyboard-response","trial_index":311,"time_elapsed":2551985,"internal_node_id":"0.0-13.0-3.64","match_key":"l","participant_id":"COGS219_2020_07"},{"rt":null,"stimulus":"Sounds/dog_label.wav","key_press":null,"block":1,"trial_type":"audio-keyboard-response","trial_index":312,"time_elapsed":2552642,"internal_node_id":"0.0-13.0-0.65","match_key":"l","participant_id":"COGS219_2020_07"},{"rt":null,"stimulus":"<p style=\"font-size: 48px;\">+</p>","key_press":null,"block":1,"trial_type":"html-keyboard-response","trial_index":313,"time_elapsed":2553642,"internal_node_id":"0.0-13.0-1.65","match_key":"l","participant_id":"COGS219_2020_07"},{"rt":467.7849999861792,"stimulus":"Images/car_orig.png","key_press":65,"stim_onset":1581468670446,"block":1,"match_type":"non-match","image_category":"car","sound_category":"dog","audio_type":"label","phase":"test","trial_type":"image-keyboard-response","trial_index":314,"time_elapsed":2554111,"internal_node_id":"0.0-13.0-2.65","match_key":"l","participant_id":"COGS219_2020_07","correct":true},{"rt":null,"stimulus":"Sounds/correct.wav","key_press":null,"block":1,"trial_type":"audio-keyboard-response","trial_index":315,"time_elapsed":2556121,"internal_node_id":"0.0-13.0-3.65","match_key":"l","participant_id":"COGS219_2020_07"},{"rt":null,"stimulus":"Sounds/motorcycle_sound.wav","key_press":null,"block":1,"trial_type":"audio-keyboard-response","trial_index":316,"time_elapsed":2557242,"internal_node_id":"0.0-13.0-0.66","match_key":"l","participant_id":"COGS219_2020_07"},{"rt":null,"stimulus":"<p style=\"font-size: 48px;\">+</p>","key_press":null,"block":1,"trial_type":"html-keyboard-response","trial_index":317,"time_elapsed":2558242,"internal_node_id":"0.0-13.0-1.66","match_key":"l","participant_id":"COGS219_2020_07"},{"rt":411.58000007271767,"stimulus":"Images/dog_2.png","key_press":65,"stim_onset":1581468675046,"block":1,"match_type":"non-match","image_category":"dog","sound_category":"motorcycle","audio_type":"sound","phase":"test","trial_type":"image-keyboard-response","trial_index":318,"time_elapsed":2558655,"internal_node_id":"0.0-13.0-2.66","match_key":"l","participant_id":"COGS219_2020_07","correct":true},{"rt":null,"stimulus":"Sounds/correct.wav","key_press":null,"block":1,"trial_type":"audio-keyboard-response","trial_index":319,"time_elapsed":2560664,"internal_node_id":"0.0-13.0-3.66","match_key":"l","participant_id":"COGS219_2020_07"},{"rt":null,"stimulus":"Sounds/train_sound.wav","key_press":null,"block":1,"trial_type":"audio-keyboard-response","trial_index":320,"time_elapsed":2561962,"internal_node_id":"0.0-13.0-0.67","match_key":"l","participant_id":"COGS219_2020_07"},{"rt":null,"stimulus":"<p style=\"font-size: 48px;\">+</p>","key_press":null,"block":1,"trial_type":"html-keyboard-response","trial_index":321,"time_elapsed":2562959,"internal_node_id":"0.0-13.0-1.67","match_key":"l","participant_id":"COGS219_2020_07"},{"rt":558.8800000259653,"stimulus":"Images/dog_1.png","key_press":65,"stim_onset":1581468679763,"block":1,"match_type":"non-match","image_category":"dog","sound_category":"train","audio_type":"sound","phase":"test","trial_type":"image-keyboard-response","trial_index":322,"time_elapsed":2563519,"internal_node_id":"0.0-13.0-2.67","match_key":"l","participant_id":"COGS219_2020_07","correct":true},{"rt":null,"stimulus":"Sounds/correct.wav","key_press":null,"block":1,"trial_type":"audio-keyboard-response","trial_index":323,"time_elapsed":2565532,"internal_node_id":"0.0-13.0-3.67","match_key":"l","participant_id":"COGS219_2020_07"},{"rt":null,"stimulus":"Sounds/dog_sound.wav","key_press":null,"block":1,"trial_type":"audio-keyboard-response","trial_index":324,"time_elapsed":2566242,"internal_node_id":"0.0-13.0-0.68","match_key":"l","participant_id":"COGS219_2020_07"},{"rt":null,"stimulus":"<p style=\"font-size: 48px;\">+</p>","key_press":null,"block":1,"trial_type":"html-keyboard-response","trial_index":325,"time_elapsed":2567242,"internal_node_id":"0.0-13.0-1.68","match_key":"l","participant_id":"COGS219_2020_07"},{"rt":515.5700000468642,"stimulus":"Images/dog_orig.png","key_press":76,"stim_onset":1581468684047,"block":1,"match_type":"match","image_category":"dog","sound_category":"dog","audio_type":"sound","phase":"test","trial_type":"image-keyboard-response","trial_index":326,"time_elapsed":2567759,"internal_node_id":"0.0-13.0-2.68","match_key":"l","participant_id":"COGS219_2020_07","correct":true},{"rt":null,"stimulus":"Sounds/correct.wav","key_press":null,"block":1,"trial_type":"audio-keyboard-response","trial_index":327,"time_elapsed":2569769,"internal_node_id":"0.0-13.0-3.68","match_key":"l","participant_id":"COGS219_2020_07"},{"rt":null,"stimulus":"Sounds/rooster_sound.wav","key_press":null,"block":1,"trial_type":"audio-keyboard-response","trial_index":328,"time_elapsed":2570462,"internal_node_id":"0.0-13.0-0.69","match_key":"l","participant_id":"COGS219_2020_07"},{"rt":null,"stimulus":"<p style=\"font-size: 48px;\">+</p>","key_press":null,"block":1,"trial_type":"html-keyboard-response","trial_index":329,"time_elapsed":2571459,"internal_node_id":"0.0-13.0-1.69","match_key":"l","participant_id":"COGS219_2020_07"},{"rt":426.71000002883375,"stimulus":"Images/train_orig.png","key_press":65,"stim_onset":1581468688263,"block":1,"match_type":"non-match","image_category":"train","sound_category":"rooster","audio_type":"sound","phase":"test","trial_type":"image-keyboard-response","trial_index":330,"time_elapsed":2571887,"internal_node_id":"0.0-13.0-2.69","match_key":"l","participant_id":"COGS219_2020_07","correct":true},{"rt":null,"stimulus":"Sounds/correct.wav","key_press":null,"block":1,"trial_type":"audio-keyboard-response","trial_index":331,"time_elapsed":2573897,"internal_node_id":"0.0-13.0-3.69","match_key":"l","participant_id":"COGS219_2020_07"},{"rt":null,"stimulus":"Sounds/motorcycle_label.wav","key_press":null,"block":1,"trial_type":"audio-keyboard-response","trial_index":332,"time_elapsed":2575042,"internal_node_id":"0.0-13.0-0.70","match_key":"l","participant_id":"COGS219_2020_07"},{"rt":null,"stimulus":"<p style=\"font-size: 48px;\">+</p>","key_press":null,"block":1,"trial_type":"html-keyboard-response","trial_index":333,"time_elapsed":2576043,"internal_node_id":"0.0-13.0-1.70","match_key":"l","participant_id":"COGS219_2020_07"},{"rt":370.28999999165535,"stimulus":"Images/frog_2.png","key_press":65,"stim_onset":1581468692847,"block":1,"match_type":"non-match","image_category":"frog","sound_category":"motorcycle","audio_type":"label","phase":"test","trial_type":"image-keyboard-response","trial_index":334,"time_elapsed":2576415,"internal_node_id":"0.0-13.0-2.70","match_key":"l","participant_id":"COGS219_2020_07","correct":true},{"rt":null,"stimulus":"Sounds/correct.wav","key_press":null,"block":1,"trial_type":"audio-keyboard-response","trial_index":335,"time_elapsed":2578431,"internal_node_id":"0.0-13.0-3.70","match_key":"l","participant_id":"COGS219_2020_07"},{"rt":null,"stimulus":"Sounds/cat_label.wav","key_press":null,"block":1,"trial_type":"audio-keyboard-response","trial_index":336,"time_elapsed":2579262,"internal_node_id":"0.0-13.0-0.71","match_key":"l","participant_id":"COGS219_2020_07"},{"rt":null,"stimulus":"<p style=\"font-size: 48px;\">+</p>","key_press":null,"block":1,"trial_type":"html-keyboard-response","trial_index":337,"time_elapsed":2580259,"internal_node_id":"0.0-13.0-1.71","match_key":"l","participant_id":"COGS219_2020_07"},{"rt":522.705000010319,"stimulus":"Images/rooster_orig.png","key_press":65,"stim_onset":1581468697064,"block":1,"match_type":"non-match","image_category":"rooster","sound_category":"cat","audio_type":"label","phase":"test","trial_type":"image-keyboard-response","trial_index":338,"time_elapsed":2580783,"internal_node_id":"0.0-13.0-2.71","match_key":"l","participant_id":"COGS219_2020_07","correct":true},{"rt":null,"stimulus":"Sounds/correct.wav","key_press":null,"block":1,"trial_type":"audio-keyboard-response","trial_index":339,"time_elapsed":2582786,"internal_node_id":"0.0-13.0-3.71","match_key":"l","participant_id":"COGS219_2020_07"},{"rt":null,"stimulus":"Sounds/rooster_label.wav","key_press":null,"block":1,"trial_type":"audio-keyboard-response","trial_index":340,"time_elapsed":2583482,"internal_node_id":"0.0-13.0-0.72","match_key":"l","participant_id":"COGS219_2020_07"},{"rt":null,"stimulus":"<p style=\"font-size: 48px;\">+</p>","key_press":null,"block":1,"trial_type":"html-keyboard-response","trial_index":341,"time_elapsed":2584476,"internal_node_id":"0.0-13.0-1.72","match_key":"l","participant_id":"COGS219_2020_07"},{"rt":465.7950000837445,"stimulus":"Images/rooster_cartoon.png","key_press":76,"stim_onset":1581468701280,"block":1,"match_type":"match","image_category":"rooster","sound_category":"rooster","audio_type":"label","phase":"test","trial_type":"image-keyboard-response","trial_index":342,"time_elapsed":2584943,"internal_node_id":"0.0-13.0-2.72","match_key":"l","participant_id":"COGS219_2020_07","correct":true},{"rt":null,"stimulus":"Sounds/correct.wav","key_press":null,"block":1,"trial_type":"audio-keyboard-response","trial_index":343,"time_elapsed":2586956,"internal_node_id":"0.0-13.0-3.72","match_key":"l","participant_id":"COGS219_2020_07"},{"rt":null,"stimulus":"Sounds/whistle_sound.wav","key_press":null,"block":1,"trial_type":"audio-keyboard-response","trial_index":344,"time_elapsed":2587662,"internal_node_id":"0.0-13.0-0.73","match_key":"l","participant_id":"COGS219_2020_07"},{"rt":null,"stimulus":"<p style=\"font-size: 48px;\">+</p>","key_press":null,"block":1,"trial_type":"html-keyboard-response","trial_index":345,"time_elapsed":2588659,"internal_node_id":"0.0-13.0-1.73","match_key":"l","participant_id":"COGS219_2020_07"},{"rt":570.4449999611825,"stimulus":"Images/whistle_cartoon.png","key_press":76,"stim_onset":1581468705463,"block":1,"match_type":"match","image_category":"whistle","sound_category":"whistle","audio_type":"sound","phase":"test","trial_type":"image-keyboard-response","trial_index":346,"time_elapsed":2589231,"internal_node_id":"0.0-13.0-2.73","match_key":"l","participant_id":"COGS219_2020_07","correct":true},{"rt":null,"stimulus":"Sounds/correct.wav","key_press":null,"block":1,"trial_type":"audio-keyboard-response","trial_index":347,"time_elapsed":2591249,"internal_node_id":"0.0-13.0-3.73","match_key":"l","participant_id":"COGS219_2020_07"},{"rt":null,"stimulus":"Sounds/whistle_sound.wav","key_press":null,"block":1,"trial_type":"audio-keyboard-response","trial_index":348,"time_elapsed":2591922,"internal_node_id":"0.0-13.0-0.74","match_key":"l","participant_id":"COGS219_2020_07"},{"rt":null,"stim