"rt","responses","trial_type","trial_index","time_elapsed","internal_node_id","match_key","participant_id","stimulus","key_press","block","stim_onset","match_type","image_category","sound_category","audio_type","phase","correct"
"23201.564999995753","{""Q0"":""COGS219_2020_02""}","survey-text","0","23230","0.0-0.0","a","COGS219_2020_02","","","","","","","","","",""
"119782.25499996915","","html-keyboard-response","1","143017","0.0-1.0","a","COGS219_2020_02","<p>Use KEYBOARD 2 (match LEFT)</p><p>Press MATCH to continue.</p>","65","","","","","","","",""
"483967.70999999717","","html-keyboard-response","2","627180","0.0-2.0","a","COGS219_2020_02","<p>Welcome to the experiment.</p>","122","","","","","","","",""
"3963.0599999800324","","html-keyboard-response","3","631148","0.0-3.0","a","COGS219_2020_02","<p>Thank you for agreeing to participate in this study.</p><p>If during any part of the procedure you must stop for any reason, please inform the researcher that you do not wish to continue.</p>","123","","","","","","","",""
"3116990.2650000295","","html-keyboard-response","4","3748105","0.0-4.0","a","COGS219_2020_02","<p>In this experiment, you will hear various words or sounds and see pictures of various animals and objects.</p><p>Most of the images will be of common everyday objects, such as cars, cats, cows, firearms, frogs, chickens, whistles, trains, motorcycles, and dogs.</p><p>Some of the images will be real-life stills, while others will be cartoons.</p>","13","","","","","","","",""
"14606.41999996733","","html-keyboard-response","5","3762712","0.0-5.0","a","COGS219_2020_02","<p>Sometimes, the word/sound will match the picture, for example you'll hear a meowing sound and see a cat.</p><p>Other times, the picture will not match the sound or word.</p><p>Your task is to decide as quickly as possible if the word/sound matches the picture or not. </p>","13","","","","","","","",""
"13087.104999984149","","html-keyboard-response","6","3775800","0.0-6.0","a","COGS219_2020_02","<p>For example, if you hear the word ""cat"" or hear a meowing sound, and then see a picture of a cat, you should press the MATCH key.</p><p> If the sound and image do not match, press the NOT-MATCH key to indicate that there is not a match.</p>","13","","","","","","","",""
"11727.249999996275","","html-keyboard-response","7","3787528","0.0-7.0","a","COGS219_2020_02","<p>If you make a mistake, you will hear a buzzing sound instead of a more pleasant sound.</p><p> Try to respond as quickly as possible, while making as few errors as possible. If you are making mistakes, you are probably rushing.</p>","13","","","","","","","",""
"10607.324999989942","","html-keyboard-response","8","3798136","0.0-8.0","a","COGS219_2020_02","<p>Please try to not move or blink your eyes during the presentation of the images. You can move and blink between images.</p><p>During the experiment there will be some breaks during which you can rest your eyes.</p>","13","","","","","","","",""
"7871.1099999491125","","html-keyboard-response","9","3806008","0.0-9.0","a","COGS219_2020_02","<p>We will begin with 10 practice trials. Please let the experimenter know if you have any questions.</p>","13","","","","","","","",""
"null","","audio-keyboard-response","10","3806765","0.0-10.0-0.0","a","COGS219_2020_02","Sounds/rooster_label.wav","null","0","","","","","","",""
"null","","html-keyboard-response","11","3807768","0.0-10.0-1.0","a","COGS219_2020_02","<p style=""font-size: 48px;"">+</p>","null","0","","","","","","",""
"782.2099999757484","","image-keyboard-response","12","3808561","0.0-10.0-2.0","a","COGS219_2020_02","Images/rooster_cartoon.png","65","0","1581203330323","match","rooster","rooster","label","practice","true"
"null","","audio-keyboard-response","13","3810570","0.0-10.0-3.0","a","COGS219_2020_02","Sounds/correct.wav","null","0","","","","","","",""
"null","","audio-keyboard-response","14","3811413","0.0-10.0-0.1","a","COGS219_2020_02","Sounds/cat_sound.wav","null","0","","","","","","",""
"null","","html-keyboard-response","15","3812410","0.0-10.0-1.1","a","COGS219_2020_02","<p style=""font-size: 48px;"">+</p>","null","0","","","","","","",""
"589.304999972228","","image-keyboard-response","16","3813001","0.0-10.0-2.1","a","COGS219_2020_02","Images/gun_1.png","76","0","1581203334964","non-match","gun","cat","sound","practice","true"
"null","","audio-keyboard-response","17","3815017","0.0-10.0-3.1","a","COGS219_2020_02","Sounds/correct.wav","null","0","","","","","","",""
"null","","audio-keyboard-response","18","3816033","0.0-10.0-0.2","a","COGS219_2020_02","Sounds/cow_sound.wav","null","0","","","","","","",""
"null","","html-keyboard-response","19","3817027","0.0-10.0-1.2","a","COGS219_2020_02","<p style=""font-size: 48px;"">+</p>","null","0","","","","","","",""
"716.5350000141189","","image-keyboard-response","20","3817745","0.0-10.0-2.2","a","COGS219_2020_02","Images/cat_1.png","76","0","1581203339581","non-match","cat","cow","sound","practice","true"
"null","","audio-keyboard-response","21","3819755","0.0-10.0-3.2","a","COGS219_2020_02","Sounds/correct.wav","null","0","","","","","","",""
"null","","audio-keyboard-response","22","3820873","0.0-10.0-0.3","a","COGS219_2020_02","Sounds/motorcycle_sound.wav","null","0","","","","","","",""
"null","","html-keyboard-response","23","3821877","0.0-10.0-1.3","a","COGS219_2020_02","<p style=""font-size: 48px;"">+</p>","null","0","","","","","","",""
"698.7599999993108","","image-keyboard-response","24","3822577","0.0-10.0-2.3","a","COGS219_2020_02","Images/motorcycle_cartoon.png","65","0","1581203344431","match","motorcycle","motorcycle","sound","practice","true"
"null","","audio-keyboard-response","25","3824590","0.0-10.0-3.3","a","COGS219_2020_02","Sounds/correct.wav","null","0","","","","","","",""
"null","","audio-keyboard-response","26","3825293","0.0-10.0-0.4","a","COGS219_2020_02","Sounds/whistle_label.wav","null","0","","","","","","",""
"null","","html-keyboard-response","27","3826294","0.0-10.0-1.4","a","COGS219_2020_02","<p style=""font-size: 48px;"">+</p>","null","0","","","","","","",""
"809.8299999837764","","image-keyboard-response","28","3827105","0.0-10.0-2.4","a","COGS219_2020_02","Images/whistle_orig.png","65","0","1581203348848","match","whistle","whistle","label","practice","true"
"null","","audio-keyboard-response","29","3829119","0.0-10.0-3.4","a","COGS219_2020_02","Sounds/correct.wav","null","0","","","","","","",""
"null","","audio-keyboard-response","30","3829813","0.0-10.0-0.5","a","COGS219_2020_02","Sounds/rooster_label.wav","null","0","","","","","","",""
"null","","html-keyboard-response","31","3830810","0.0-10.0-1.5","a","COGS219_2020_02","<p style=""font-size: 48px;"">+</p>","null","0","","","","","","",""
"652.99499995308","","image-keyboard-response","32","3831465","0.0-10.0-2.5","a","COGS219_2020_02","Images/dog_3.png","76","0","1581203353365","non-match","dog","rooster","label","practice","true"
"null","","audio-keyboard-response","33","3833477","0.0-10.0-3.5","a","COGS219_2020_02","Sounds/correct.wav","null","0","","","","","","",""
"null","","audio-keyboard-response","34","3834053","0.0-10.0-0.6","a","COGS219_2020_02","Sounds/gun_sound.wav","null","0","","","","","","",""
"null","","html-keyboard-response","35","3835044","0.0-10.0-1.6","a","COGS219_2020_02","<p style=""font-size: 48px;"">+</p>","null","0","","","","","","",""
"691.9249999918975","","image-keyboard-response","36","3835737","0.0-10.0-2.6","a","COGS219_2020_02","Images/car_cartoon.png","76","0","1581203357598","non-match","car","gun","sound","practice","true"
"null","","audio-keyboard-response","37","3837741","0.0-10.0-3.6","a","COGS219_2020_02","Sounds/correct.wav","null","0","","","","","","",""
"null","","audio-keyboard-response","38","3838753","0.0-10.0-0.7","a","COGS219_2020_02","Sounds/cow_label.wav","null","0","","","","","","",""
"null","","html-keyboard-response","39","3839744","0.0-10.0-1.7","a","COGS219_2020_02","<p style=""font-size: 48px;"">+</p>","null","0","","","","","","",""
"775.7149999961257","","image-keyboard-response","40","3840521","0.0-10.0-2.7","a","COGS219_2020_02","Images/cow_3.png","65","0","1581203362298","match","cow","cow","label","practice","true"
"null","","audio-keyboard-response","41","3842537","0.0-10.0-3.7","a","COGS219_2020_02","Sounds/correct.wav","null","0","","","","","","",""
"null","","audio-keyboard-response","42","3843093","0.0-10.0-0.8","a","COGS219_2020_02","Sounds/gun_sound.wav","null","0","","","","","","",""
"null","","html-keyboard-response","43","3844111","0.0-10.0-1.8","a","COGS219_2020_02","<p style=""font-size: 48px;"">+</p>","null","0","","","","","","",""
"776.8950000172481","","image-keyboard-response","44","3844889","0.0-10.0-2.8","a","COGS219_2020_02","Images/gun_2.png","65","0","1581203366665","match","gun","gun","sound","practice","true"
"null","","audio-keyboard-response","45","3846902","0.0-10.0-3.8","a","COGS219_2020_02","Sounds/correct.wav","null","0","","","","","","",""
"null","","audio-keyboard-response","46","3847733","0.0-10.0-0.9","a","COGS219_2020_02","Sounds/cat_label.wav","null","0","","","","","","",""
"null","","html-keyboard-response","47","3848727","0.0-10.0-1.9","a","COGS219_2020_02","<p style=""font-size: 48px;"">+</p>","null","0","","","","","","",""
"624.5000000344589","","image-keyboard-response","48","3849353","0.0-10.0-2.9","a","COGS219_2020_02","Images/cat_cartoon.png","65","0","1581203371281","match","cat","cat","label","practice","true"
"null","","audio-keyboard-response","49","3851364","0.0-10.0-3.9","a","COGS219_2020_02","Sounds/correct.wav","null","0","","","","","","",""
"78012.8150000237","","html-keyboard-response","50","3929377","0.0-11.0","a","COGS219_2020_02","<p>The rest of the experiment is divided into five blocks with 100 trials in each block. It will take about 45 minutes to complete.</p><p>The experimenter will be in the outer room and you can communicate with them through the monitor if you have any questions or wish to stop the experiment.</p>","40","","","","","","","",""
"5790.525000018533","","html-keyboard-response","51","3935168","0.0-12.0","a","COGS219_2020_02","<p>Remember, please try not to move or blink your eyes during the presentation of the images. </p><p>At the end of the experiment, we will show you your scores on the task so you can see how you did.</p><p>The experiment will start on the next screen.</p>","40","","","","","","","",""
"null","","audio-keyboard-response","52","3937852","0.0-13.0-0.0","a","COGS219_2020_02","Sounds/dog_label.wav","null","1","","","","","","",""
"null","","html-keyboard-response","53","3938844","0.0-13.0-1.0","a","COGS219_2020_02","<p style=""font-size: 48px;"">+</p>","null","1","","","","","","",""
"691.190000041388","","image-keyboard-response","54","3939536","0.0-13.0-2.0","a","COGS219_2020_02","Images/cow_2.png","76","1","1581203461398","non-match","cow","dog","label","test","true"
"null","","audio-keyboard-response","55","3941543","0.0-13.0-3.0","a","COGS219_2020_02","Sounds/correct.wav","null","1","","","","","","",""
"null","","audio-keyboard-response","56","3942372","0.0-13.0-0.1","a","COGS219_2020_02","Sounds/cat_sound.wav","null","1","","","","","","",""
"null","","html-keyboard-response","57","3943361","0.0-13.0-1.1","a","COGS219_2020_02","<p style=""font-size: 48px;"">+</p>","null","1","","","","","","",""
"549.6300000231713","","image-keyboard-response","58","3943912","0.0-13.0-2.1","a","COGS219_2020_02","Images/cat_3.png","65","1","1581203465915","match","cat","cat","sound","test","true"
"null","","audio-keyboard-response","59","3945921","0.0-13.0-3.1","a","COGS219_2020_02","Sounds/correct.wav","null","1","","","","","","",""
"null","","audio-keyboard-response","60","3946811","0.0-13.0-0.2","a","COGS219_2020_02","Sounds/frog_label.wav","null","1","","","","","","",""
"null","","html-keyboard-response","61","3947811","0.0-13.0-1.2","a","COGS219_2020_02","<p style=""font-size: 48px;"">+</p>","null","1","","","","","","",""
"556.0650000115857","","image-keyboard-response","62","3948368","0.0-13.0-2.2","a","COGS219_2020_02","Images/frog_cartoon.png","65","1","1581203470365","match","frog","frog","label","test","true"
"null","","audio-keyboard-response","63","3950373","0.0-13.0-3.2","a","COGS219_2020_02","Sounds/correct.wav","null","1","","","","","","",""
"null","","audio-keyboard-response","64","3951511","0.0-13.0-0.3","a","COGS219_2020_02","Sounds/motorcycle_label.wav","null","1","","","","","","",""
"null","","html-keyboard-response","65","3952511","0.0-13.0-1.3","a","COGS219_2020_02","<p style=""font-size: 48px;"">+</p>","null","1","","","","","","",""
"576.0050000390038","","image-keyboard-response","66","3953088","0.0-13.0-2.3","a","COGS219_2020_02","Images/cow_3.png","76","1","1581203475065","non-match","cow","motorcycle","label","test","true"
"null","","audio-keyboard-response","67","3955101","0.0-13.0-3.3","a","COGS219_2020_02","Sounds/correct.wav","null","1","","","","","","",""
"null","","audio-keyboard-response","68","3956011","0.0-13.0-0.4","a","COGS219_2020_02","Sounds/frog_sound.wav","null","1","","","","","","",""
"null","","html-keyboard-response","69","3957011","0.0-13.0-1.4","a","COGS219_2020_02","<p style=""font-size: 48px;"">+</p>","null","1","","","","","","",""
"588.0350000225008","","image-keyboard-response","70","3957600","0.0-13.0-2.4","a","COGS219_2020_02","Images/rooster_1.png","76","1","1581203479565","non-match","rooster","frog","sound","test","true"
"null","","audio-keyboard-response","71","3959618","0.0-13.0-3.4","a","COGS219_2020_02","Sounds/correct.wav","null","1","","","","","","",""
"null","","audio-keyboard-response","72","3960452","0.0-13.0-0.5","a","COGS219_2020_02","Sounds/cat_sound.wav","null","1","","","","","","",""
"null","","html-keyboard-response","73","3961445","0.0-13.0-1.5","a","COGS219_2020_02","<p style=""font-size: 48px;"">+</p>","null","1","","","","","","",""
"586.2900000065565","","image-keyboard-response","74","3962032","0.0-13.0-2.5","a","COGS219_2020_02","Images/gun_orig.png","76","1","1581203483999","non-match","gun","cat","sound","test","true"
"null","","audio-keyboard-response","75","3964036","0.0-13.0-3.5","a","COGS219_2020_02","Sounds/correct.wav","null","1","","","","","","",""
"null","","audio-keyboard-response","76","3965052","0.0-13.0-0.6","a","COGS219_2020_02","Sounds/cow_label.wav","null","1","","","","","","",""
"null","","html-keyboard-response","77","3966044","0.0-13.0-1.6","a","COGS219_2020_02","<p style=""font-size: 48px;"">+</p>","null","1","","","","","","",""
"658.6799999931827","","image-keyboard-response","78","3966704","0.0-13.0-2.6","a","COGS219_2020_02","Images/rooster_orig.png","76","1","1581203488599","non-match","rooster","cow","label","test","true"
"null","","audio-keyboard-response","79","3968714","0.0-13.0-3.6","a","COGS219_2020_02","Sounds/correct.wav","null","1","","","","","","",""
"null","","audio-keyboard-response","80","3969412","0.0-13.0-0.7","a","COGS219_2020_02","Sounds/whistle_label.wav","null","1","","","","","","",""
"null","","html-keyboard-response","81","3970411","0.0-13.0-1.7","a","COGS219_2020_02","<p style=""font-size: 48px;"">+</p>","null","1","","","","","","",""
"803.8099999539554","","image-keyboard-response","82","3971216","0.0-13.0-2.7","a","COGS219_2020_02","Images/whistle_3.png","65","1","1581203492965","match","whistle","whistle","label","test","true"
"null","","audio-keyboard-response","83","3973222","0.0-13.0-3.7","a","COGS219_2020_02","Sounds/correct.wav","null","1","","","","","","",""
"null","","audio-keyboard-response","84","3974492","0.0-13.0-0.8","a","COGS219_2020_02","Sounds/train_label.wav","null","1","","","","","","",""
"null","","html-keyboard-response","85","3975495","0.0-13.0-1.8","a","COGS219_2020_02","<p style=""font-size: 48px;"">+</p>","null","1","","","","","","",""
"543.4550000354648","","image-keyboard-response","86","3976040","0.0-13.0-2.8","a","COGS219_2020_02","Images/car_orig.png","65","1","1581203498049","non-match","car","train","label","test","false"
"null","","audio-keyboard-response","87","3978053","0.0-13.0-3.8","a","COGS219_2020_02","Sounds/incorrect.wav","null","1","","","","","","",""
"null","","audio-keyboard-response","88","3979071","0.0-13.0-0.9","a","COGS219_2020_02","Sounds/cow_sound.wav","null","1","","","","","","",""
"null","","html-keyboard-response","89","3980061","0.0-13.0-1.9","a","COGS219_2020_02","<p style=""font-size: 48px;"">+</p>","null","1","","","","","","",""
"842.464999994263","","image-keyboard-response","90","3980905","0.0-13.0-2.9","a","COGS219_2020_02","Images/cow_orig.png","65","1","1581203502616","match","cow","cow","sound","test","true"
"null","","audio-keyboard-response","91","3982915","0.0-13.0-3.9","a","COGS219_2020_02","Sounds/correct.wav","null","1","","","","","","",""
"null","","audio-keyboard-response","92","3983831","0.0-13.0-0.10","a","COGS219_2020_02","Sounds/frog_sound.wav","null","1","","","","","","",""
"null","","html-keyboard-response","93","3984828","0.0-13.0-1.10","a","COGS219_2020_02","<p style=""font-size: 48px;"">+</p>","null","1","","","","","","",""
"747.0249999896623","","image-keyboard-response","94","3985576","0.0-13.0-2.10","a","COGS219_2020_02","Images/frog_2.png","65","1","1581203507382","match","frog","frog","sound","test","true"
"null","","audio-keyboard-response","95","3987587","0.0-13.0-3.10","a","COGS219_2020_02","Sounds/correct.wav","null","1","","","","","","",""
"null","","audio-keyboard-response","96","3988572","0.0-13.0-0.11","a","COGS219_2020_02","Sounds/cow_sound.wav","null","1","","","","","","",""
"null","","html-keyboard-response","97","3989561","0.0-13.0-1.11","a","COGS219_2020_02","<p style=""font-size: 48px;"">+</p>","null","1","","","","","","",""
"629.5650000101887","","image-keyboard-response","98","3990192","0.0-13.0-2.11","a","COGS219_2020_02","Images/gun_cartoon.png","76","1","1581203512116","non-match","gun","cow","sound","test","true"
"null","","audio-keyboard-response","99","3992203","0.0-13.0-3.11","a","COGS219_2020_02","Sounds/correct.wav","null","1","","","","","","",""
"null","","audio-keyboard-response","100","3993031","0.0-13.0-0.12","a","COGS219_2020_02","Sounds/cat_label.wav","null","1","","","","","","",""
"null","","html-keyboard-response","101","3994028","0.0-13.0-1.12","a","COGS219_2020_02","<p style=""font-size: 48px;"">+</p>","null","1","","","","","","",""
"595.229999977164","","image-keyboard-response","102","3994624","0.0-13.0-2.12","a","COGS219_2020_02","Images/dog_cartoon.png","76","1","1581203516582","non-match","dog","cat","label","test","true"
"null","","audio-keyboard-response","103","3996637","0.0-13.0-3.12","a","COGS219_2020_02","Sounds/correct.wav","null","1","","","","","","",""
"null","","audio-keyboard-response","104","3997333","0.0-13.0-0.13","a","COGS219_2020_02","Sounds/whistle_sound.wav","null","1","","","","","","",""
"null","","html-keyboard-response","105","3998330","0.0-13.0-1.13","a","COGS219_2020_02","<p style=""font-size: 48px;"">+</p>","null","1","","","","","","",""
"598.679999995511","","image-keyboard-response","106","3998930","0.0-13.0-2.13","a","COGS219_2020_02","Images/car_3.png","76","1","1581203520884","non-match","car","whistle","sound","test","true"
"null","","audio-keyboard-response","107","4000936","0.0-13.0-3.13","a","COGS219_2020_02","Sounds/correct.wav","null","1","","","","","","",""
"null","","audio-keyboard-response","108","4002013","0.0-13.0-0.14","a","COGS219_2020_02","Sounds/car_label.wav","null","1","","","","","","",""
"null","","html-keyboard-response","109","4003013","0.0-13.0-1.14","a","COGS219_2020_02","<p style=""font-size: 48px;"">+</p>","null","1","","","","","","",""
"619.66999998549","","image-keyboard-response","110","4003634","0.0-13.0-2.14","a","COGS219_2020_02","Images/gun_2.png","76","1","1581203525567","non-match","gun","car","label","test","true"
"null","","audio-keyboard-response","111","4005650","0.0-13.0-3.14","a","COGS219_2020_02","Sounds/correct.wav","null","1","","","","","","",""
"null","","audio-keyboard-response","112","4006793","0.0-13.0-0.15","a","COGS219_2020_02","Sounds/motorcycle_label.wav","null","1","","","","","","",""
"null","","html-keyboard-response","113","4007797","0.0-13.0-1.15","a","COGS219_2020_02","<p style=""font-size: 48px;"">+</p>","null","1","","","","","","",""
"740.1650000247173","","image-keyboard-response","114","4008538","0.0-13.0-2.15","a","COGS219_2020_02","Images/cat_2.png","76","1","1581203530351","non-match","cat","motorcycle","label","test","true"
"null","","audio-keyboard-response","115","4010541","0.0-13.0-3.15","a","COGS219_2020_02","Sounds/correct.wav","null","1","","","","","","",""
"null","","audio-keyboard-response","116","4011453","0.0-13.0-0.16","a","COGS219_2020_02","Sounds/frog_sound.wav","null","1","","","","","","",""
"null","","html-keyboard-response","117","4012447","0.0-13.0-1.16","a","COGS219_2020_02","<p style=""font-size: 48px;"">+</p>","null","1","","","","","","",""
"697.9799999971874","","image-keyboard-response","118","4013146","0.0-13.0-2.16","a","COGS219_2020_02","Images/frog_3.png","65","1","1581203535001","match","frog","frog","sound","test","true"
"null","","audio-keyboard-response","119","4015160","0.0-13.0-3.16","a","COGS219_2020_02","Sounds/correct.wav","null","1","","","","","","",""
"null","","audio-keyboard-response","120","4015733","0.0-13.0-0.17","a","COGS219_2020_02","Sounds/gun_label.wav","null","1","","","","","","",""
"null","","html-keyboard-response","121","4016730","0.0-13.0-1.17","a","COGS219_2020_02","<p style=""font-size: 48px;"">+</p>","null","1","","","","","","",""
"606.4299999852665","","image-keyboard-response","122","4017338","0.0-13.0-2.17","a","COGS219_2020_02","Images/cow_cartoon.png","76","1","1581203539284","non-match","cow","gun","label","test","true"
"null","","audio-keyboard-response","123","4019352","0.0-13.0-3.17","a","COGS219_2020_02","Sounds/correct.wav","null","1","","","","","","",""
"null","","audio-keyboard-response","124","4020053","0.0-13.0-0.18","a","COGS219_2020_02","Sounds/rooster_sound.wav","null","1","","","","","","",""
"null","","html-keyboard-response","125","4021047","0.0-13.0-1.18","a","COGS219_2020_02","<p style=""font-size: 48px;"">+</p>","null","1","","","","","","",""
"562.4449999886565","","image-keyboard-response","126","4021610","0.0-13.0-2.18","a","COGS219_2020_02","Images/car_2.png","76","1","1581203543601","non-match","car","rooster","sound","test","true"
"null","","audio-keyboard-response","127","4023622","0.0-13.0-3.18","a","COGS219_2020_02","Sounds/correct.wav","null","1","","","","","","",""
"null","","audio-keyboard-response","128","4024753","0.0-13.0-0.19","a","COGS219_2020_02","Sounds/motorcycle_label.wav","null","1","","","","","","",""
"null","","html-keyboard-response","129","4025747","0.0-13.0-1.19","a","COGS219_2020_02","<p style=""font-size: 48px;"">+</p>","null","1","","","","","","",""
"741.8150000157766","","image-keyboard-response","130","4026490","0.0-13.0-2.19","a","COGS219_2020_02","Images/frog_2.png","76","1","1581203548301","non-match","frog","motorcycle","label","test","true"
"null","","audio-keyboard-response","131","4028507","0.0-13.0-3.19","a","COGS219_2020_02","Sounds/correct.wav","null","1","","","","","","",""
"null","","audio-keyboard-response","132","4029213","0.0-13.0-0.20","a","COGS219_2020_02","Sounds/dog_sound.wav","null","1","","","","","","",""
"null","","html-keyboard-response","133","4030214","0.0-13.0-1.20","a","COGS219_2020_02","<p style=""font-size: 48px;"">+</p>","null","1","","","","","","",""
"682.9900000011548","","image-keyboard-response","134","4030898","0.0-13.0-2.20","a","COGS219_2020_02","Images/dog_1.png","65","1","1581203552768","match","dog","dog","sound","test","true"
"null","","audio-keyboard-response","135","4032912","0.0-13.0-3.20","a","COGS219_2020_02","Sounds/correct.wav","null","1","","","","","","",""
"null","","audio-keyboard-response","136","4033473","0.0-13.0-0.21","a","COGS219_2020_02","Sounds/gun_label.wav","null","1","","","","","","",""
"null","","html-keyboard-response","137","4034464","0.0-13.0-1.21","a","COGS219_2020_02","<p style=""font-size: 48px;"">+</p>","null","1","","","","","","",""
"537.2650000499561","","image-keyboard-response","138","4035002","0.0-13.0-2.21","a","COGS219_2020_02","Images/gun_orig.png","65","1","1581203557018","match","gun","gun","label","test","true"
"null","","audio-keyboard-response","139","4037006","0.0-13.0-3.21","a","COGS219_2020_02","Sounds/correct.wav","null","1","","","","","","",""
"null","","audio-keyboard-response","140","4037694","0.0-13.0-0.22","a","COGS219_2020_02","Sounds/rooster_sound.wav","null","1","","","","","","",""
"null","","html-keyboard-response","141","4038697","0.0-13.0-1.22","a","COGS219_2020_02","<p style=""font-size: 48px;"">+</p>","null","1","","","","","","",""
"567.5700000138022","","image-keyboard-response","142","4039266","0.0-13.0-2.22","a","COGS219_2020_02","Images/gun_1.png","76","1","1581203561251","non-match","gun","rooster","sound","test","true"
"null","","audio-keyboard-response","143","4041271","0.0-13.0-3.22","a","COGS219_2020_02","Sounds/correct.wav","null","1","","","","","","",""
"null","","audio-keyboard-response","144","4042353","0.0-13.0-0.23","a","COGS219_2020_02","Sounds/car_label.wav","null","1","","","","","","",""
"null","","html-keyboard-response","145","4043347","0.0-13.0-1.23","a","COGS219_2020_02","<p style=""font-size: 48px;"">+</p>","null","1","","","","","","",""
"549.6399999829009","","image-keyboard-response","146","4043898","0.0-13.0-2.23","a","COGS219_2020_02","Images/car_3.png","65","1","1581203565901","match","car","car","label","test","true"
"null","","audio-keyboard-response","147","4045907","0.0-13.0-3.23","a","COGS219_2020_02","Sounds/correct.wav","null","1","","","","","","",""
"null","","audio-keyboard-response","148","4046613","0.0-13.0-0.24","a","COGS219_2020_02","Sounds/whistle_sound.wav","null","1","","","","","","",""
"null","","html-keyboard-response","149","4047614","0.0-13.0-1.24","a","COGS219_2020_02","<p style=""font-size: 48px;"">+</p>","null","1","","","","","","",""
"947.3749999888241","","image-keyboard-response","150","4048562","0.0-13.0-2.24","a","COGS219_2020_02","Images/train_orig.png","76","1","1581203570168","non-match","train","whistle","sound","test","true"
"null","","audio-keyboard-response","151","4050577","0.0-13.0-3.24","a","COGS219_2020_02","Sounds/correct.wav","null","1","","","","","","",""
"null","","audio-keyboard-response","152","4051273","0.0-13.0-0.25","a","COGS219_2020_02","Sounds/whistle_label.wav","null","1","","","","","","",""
"null","","html-keyboard-response","153","4052264","0.0-13.0-1.25","a","COGS219_2020_02","<p style=""font-size: 48px;"">+</p>","null","1","","","","","","",""
"776.9700000062585","","image-keyboard-response","154","4053042","0.0-13.0-2.25","a","COGS219_2020_02","Images/dog_2.png","76","1","1581203574818","non-match","dog","whistle","label","test","true"
"null","","audio-keyboard-response","155","4055057","0.0-13.0-3.25","a","COGS219_2020_02","Sounds/correct.wav","null","1","","","","","","",""
"null","","audio-keyboard-response","156","4055753","0.0-13.0-0.26","a","COGS219_2020_02","Sounds/rooster_label.wav","null","1","","","","","","",""
"null","","html-keyboard-response","157","4056752","0.0-13.0-1.26","a","COGS219_2020_02","<p style=""font-size: 48px;"">+</p>","null","1","","","","","","",""
"613.294999988284","","image-keyboard-response","158","4057367","0.0-13.0-2.26","a","COGS219_2020_02","Images/dog_1.png","76","1","1581203579306","non-match","dog","rooster","label","test","true"
"null","","audio-keyboard-response","159","4059374","0.0-13.0-3.26","a","COGS219_2020_02","Sounds/correct.wav","null","1","","","","","","",""
"null","","audio-keyboard-response","160","4059958","0.0-13.0-0.27","a","COGS219_2020_02","Sounds/gun_sound.wav","null","1","","","","","","",""
"null","","html-keyboard-response","161","4060952","0.0-13.0-1.27","a","COGS219_2020_02","<p style=""font-size: 48px;"">+</p>","null","1","","","","","","",""
"765.769999998156","","image-keyboard-response","162","4061719","0.0-13.0-2.27","a","COGS219_2020_02","Images/gun_3.png","65","1","1581203583506","match","gun","gun","sound","test","true"
"null","","audio-keyboard-response","163","4063731","0.0-13.0-3.27","a","COGS219_2020_02","Sounds/correct.wav","null","1","","","","","","",""
"null","","audio-keyboard-response","164","4064758","0.0-13.0-0.28","a","COGS219_2020_02","Sounds/cow_label.wav","null","1","","","","","","",""
"null","","html-keyboard-response","165","4065752","0.0-13.0-1.28","a","COGS219_2020_02","<p style=""font-size: 48px;"">+</p>","null","1","","","","","","",""
"645.299999974668","","image-keyboard-response","166","4066399","0.0-13.0-2.28","a","COGS219_2020_02","Images/cow_3.png","65","1","1581203588306","match","cow","cow","label","test","true"
"null","","audio-keyboard-response","167","4068405","0.0-13.0-3.28","a","COGS219_2020_02","Sounds/correct.wav","null","1","","","","","","",""
"null","","audio-keyboard-response","168","4069398","0.0-13.0-0.29","a","COGS219_2020_02","Sounds/cow_label.wav","null","1","","","","","","",""
"null","","html-keyboard-response","169","4070403","0.0-13.0-1.29","a","COGS219_2020_02","<p style=""font-size: 48px;"">+</p>","null","1","","","","","","",""
"579.0699999779463","","image-keyboard-response","170","4070983","0.0-13.0-2.29","a","COGS219_2020_02","Images/cat_1.png","76","1","1581203592956","non-match","cat","cow","label","test","true"
"null","","audio-keyboard-response","171","4072992","0.0-13.0-3.29","a","COGS219_2020_02","Sounds/correct.wav","null","1","","","","","","",""
"null","","audio-keyboard-response","172","4073658","0.0-13.0-0.30","a","COGS219_2020_02","Sounds/dog_label.wav","null","1","","","","","","",""
"null","","html-keyboard-response","173","4074652","0.0-13.0-1.30","a","COGS219_2020_02","<p style=""font-size: 48px;"">+</p>","null","1","","","","","","",""
"504.030000010971","","image-keyboard-response","174","4075159","0.0-13.0-2.30","a","COGS219_2020_02","Images/dog_cartoon.png","65","1","1581203597206","match","dog","dog","label","test","true"
"null","","audio-keyboard-response","175","4077165","0.0-13.0-3.30","a","COGS219_2020_02","Sounds/correct.wav","null","1","","","","","","",""
"null","","audio-keyboard-response","176","4077858","0.0-13.0-0.31","a","COGS219_2020_02","Sounds/whistle_sound.wav","null","1","","","","","","",""
"null","","html-keyboard-response","177","4078852","0.0-13.0-1.31","a","COGS219_2020_02","<p style=""font-size: 48px;"">+</p>","null","1","","","","","","",""
"665.2549999998882","","image-keyboard-response","178","4079519","0.0-13.0-2.31","a","COGS219_2020_02","Images/frog_cartoon.png","76","1","1581203601406","non-match","frog","whistle","sound","test","true"
"null","","audio-keyboard-response","179","4081536","0.0-13.0-3.31","a","COGS219_2020_02","Sounds/correct.wav","null","1","","","","","","",""
"null","","audio-keyboard-response","180","4082618","0.0-13.0-0.32","a","COGS219_2020_02","Sounds/car_sound.wav","null","1","","","","","","",""
"null","","html-keyboard-response","181","4083636","0.0-13.0-1.32","a","COGS219_2020_02","<p style=""font-size: 48px;"">+</p>","null","1","","","","","","",""
"505.83000003825873","","image-keyboard-response","182","4084143","0.0-13.0-2.32","a","COGS219_2020_02","Images/cow_1.png","76","1","1581203606190","non-match","cow","car","sound","test","true"
"null","","audio-keyboard-response","183","4086146","0.0-13.0-3.32","a","COGS219_2020_02","Sounds/correct.wav","null","1","","","","","","",""
"null","","audio-keyboard-response","184","4087418","0.0-13.0-0.33","a","COGS219_2020_02","Sounds/train_label.wav","null","1","","","","","","",""
"null","","html-keyboard-response","185","4088436","0.0-13.0-1.33","a","COGS219_2020_02","<p style=""font-size: 48px;"">+</p>","null","1","","","","","","",""
"490.189999982249","","image-keyboard-response","186","4088927","0.0-13.0-2.33","a","COGS219_2020_02","Images/rooster_2.png","76","1","1581203610991","non-match","rooster","train","label","test","true"
"null","","audio-keyboard-response","187","4090932","0.0-13.0-3.33","a","COGS219_2020_02","Sounds/correct.wav","null","1","","","","","","",""
"null","","audio-keyboard-response","188","4091638","0.0-13.0-0.34","a","COGS219_2020_02","Sounds/dog_sound.wav","null","1","","","","","","",""
"null","","html-keyboard-response","189","4092636","0.0-13.0-1.34","a","COGS219_2020_02","<p style=""font-size: 48px;"">+</p>","null","1","","","","","","",""
"529.6699999598786","","image-keyboard-response","190","4093167","0.0-13.0-2.34","a","COGS219_2020_02","Images/dog_3.png","65","1","1581203615190","match","dog","dog","sound","test","true"
"null","","audio-keyboard-response","191","4095178","0.0-13.0-3.34","a","COGS219_2020_02","Sounds/correct.wav","null","1","","","","","","",""
"null","","audio-keyboard-response","192","4095878","0.0-13.0-0.35","a","COGS219_2020_02","Sounds/rooster_sound.wav","null","1","","","","","","",""
"null","","html-keyboard-response","193","4096869","0.0-13.0-1.35","a","COGS219_2020_02","<p style=""font-size: 48px;"">+</p>","null","1","","","","","","",""
"536.2050000112504","","image-keyboard-response","194","4097407","0.0-13.0-2.35","a","COGS219_2020_02","Images/rooster_cartoon.png","65","1","1581203619423","match","rooster","rooster","sound","test","true"
"null","","audio-keyboard-response","195","4099414","0.0-13.0-3.35","a","COGS219_2020_02","Sounds/correct.wav","null","1","","","","","","",""
"null","","audio-keyboard-response","196","4099998","0.0-13.0-0.36","a","COGS219_2020_02","Sounds/gun_label.wav","null","1","","","","","","",""
"null","","html-keyboard-response","197","4101003","0.0-13.0-1.36","a","COGS219_2020_02","<p style=""font-size: 48px;"">+</p>","null","1","","","","","","",""
"851.0299999616109","","image-keyboard-response","198","4101855","0.0-13.0-2.36","a","COGS219_2020_02","Images/whistle_cartoon.png","76","1","1581203623557","non-match","whistle","gun","label","test","true"
"null","","audio-keyboard-response","199","4103872","0.0-13.0-3.36","a","COGS219_2020_02","Sounds/correct.wav","null","1","","","","","","",""
"null","","audio-keyboard-response","200","4104538","0.0-13.0-0.37","a","COGS219_2020_02","Sounds/rooster_sound.wav","null","1","","","","","","",""
"null","","html-keyboard-response","201","4105536","0.0-13.0-1.37","a","COGS219_2020_02","<p style=""font-size: 48px;"">+</p>","null","1","","","","","","",""
"621.5950000332668","","image-keyboard-response","202","4106159","0.0-13.0-2.37","a","COGS219_2020_02","Images/train_3.png","76","1","1581203628091","non-match","train","rooster","sound","test","true"
"null","","audio-keyboard-response","203","4108172","0.0-13.0-3.37","a","COGS219_2020_02","Sounds/correct.wav","null","1","","","","","","",""
"null","","audio-keyboard-response","204","4108858","0.0-13.0-0.38","a","COGS219_2020_02","Sounds/dog_sound.wav","null","1","","","","","","",""
"null","","html-keyboard-response","205","4109853","0.0-13.0-1.38","a","COGS219_2020_02","<p style=""font-size: 48px;"">+</p>","null","1","","","","","","",""
"504.8500000266358","","image-keyboard-response","206","4110359","0.0-13.0-2.38","a","COGS219_2020_02","Images/rooster_3.png","76","1","1581203632407","non-match","rooster","dog","sound","test","true"
"null","","audio-keyboard-response","207","4112364","0.0-13.0-3.38","a","COGS219_2020_02","Sounds/correct.wav","null","1","","","","","","",""
"null","","audio-keyboard-response","208","4113038","0.0-13.0-0.39","a","COGS219_2020_02","Sounds/rooster_sound.wav","null","1","","","","","","",""
"null","","html-keyboard-response","209","4114036","0.0-13.0-1.39","a","COGS219_2020_02","<p style=""font-size: 48px;"">+</p>","null","1","","","","","","",""
"737.9400000208989","","image-keyboard-response","210","4114775","0.0-13.0-2.39","a","COGS219_2020_02","Images/whistle_1.png","76","1","1581203636591","non-match","whistle","rooster","sound","test","true"
"null","","audio-keyboard-response","211","4116784","0.0-13.0-3.39","a","COGS219_2020_02","Sounds/correct.wav","null","1","","","","","","",""
"null","","audio-keyboard-response","212","4118083","0.0-13.0-0.40","a","COGS219_2020_02","Sounds/train_sound.wav","null","1","","","","","","",""
"null","","html-keyboard-response","213","4119074","0.0-13.0-1.40","a","COGS219_2020_02","<p style=""font-size: 48px;"">+</p>","null","1","","","","","","",""
"824.2099999915808","","image-keyboard-response","214","4119899","0.0-13.0-2.40","a","COGS219_2020_02","Images/train_orig.png","65","1","1581203641628","match","train","train","sound","test","true"
"null","","audio-keyboard-response","215","4121914","0.0-13.0-3.40","a","COGS219_2020_02","Sounds/correct.wav","null","1","","","","","","",""
"null","","audio-keyboard-response","216","4122823","0.0-13.0-0.41","a","COGS219_2020_02","Sounds/frog_label.wav","null","1","","","","","","",""
"null","","html-keyboard-response","217","4123841","0.0-13.0-1.41","a","COGS219_2020_02","<p style=""font-size: 48px;"">+</p>","null","1","","","","","","",""
"457.4649999849498","","image-keyboard-response","218","4124299","0.0-13.0-2.41","a","COGS219_2020_02","Images/frog_orig.png","65","1","1581203646395","match","frog","frog","label","test","true"
"null","","audio-keyboard-response","219","4126307","0.0-13.0-3.41","a","COGS219_2020_02","Sounds/correct.wav","null","1","","","","","","",""
"null","","audio-keyboard-response","220","4127323","0.0-13.0-0.42","a","COGS219_2020_02","Sounds/cow_sound.wav","null","1","","","","","","",""
"null","","html-keyboard-response","221","4128341","0.0-13.0-1.42","a","COGS219_2020_02","<p style=""font-size: 48px;"">+</p>","null","1","","","","","","",""
"509.8800000268966","","image-keyboard-response","222","4128851","0.0-13.0-2.42","a","COGS219_2020_02","Images/cow_cartoon.png","65","1","1581203650895","match","cow","cow","sound","test","true"
"null","","audio-keyboard-response","223","4130854","0.0-13.0-3.42","a","COGS219_2020_02","Sounds/correct.wav","null","1","","","","","","",""
"null","","audio-keyboard-response","224","4131683","0.0-13.0-0.43","a","COGS219_2020_02","Sounds/cat_label.wav","null","1","","","","","","",""
"null","","html-keyboard-response","225","4132674","0.0-13.0-1.43","a","COGS219_2020_02","<p style=""font-size: 48px;"">+</p>","null","1","","","","","","",""
"544.1250000149012","","image-keyboard-response","226","4133219","0.0-13.0-2.43","a","COGS219_2020_02","Images/cow_orig.png","76","1","1581203655228","non-match","cow","cat","label","test","true"
"null","","audio-keyboard-response","227","4135235","0.0-13.0-3.43","a","COGS219_2020_02","Sounds/correct.wav","null","1","","","","","","",""
"null","","audio-keyboard-response","228","4135923","0.0-13.0-0.44","a","COGS219_2020_02","Sounds/whistle_sound.wav","null","1","","","","","","",""
"null","","html-keyboard-response","229","4136941","0.0-13.0-1.44","a","COGS219_2020_02","<p style=""font-size: 48px;"">+</p>","null","1","","","","","","",""
"620.9900000249036","","image-keyboard-response","230","4137563","0.0-13.0-2.44","a","COGS219_2020_02","Images/whistle_orig.png","65","1","1581203659495","match","whistle","whistle","sound","test","true"
"null","","audio-keyboard-response","231","4139576","0.0-13.0-3.44","a","COGS219_2020_02","Sounds/correct.wav","null","1","","","","","","",""
"null","","audio-keyboard-response","232","4140663","0.0-13.0-0.45","a","COGS219_2020_02","Sounds/car_label.wav","null","1","","","","","","",""
"null","","html-keyboard-response","233","4141658","0.0-13.0-1.45","a","COGS219_2020_02","<p style=""font-size: 48px;"">+</p>","null","1","","","","","","",""
"1016.5999999735504","","image-keyboard-response","234","4142675","0.0-13.0-2.45","a","COGS219_2020_02","Images/car_2.png","65","1","1581203664212","match","car","car","label","test","true"
"null","","audio-keyboard-response","235","4144683","0.0-13.0-3.45","a","COGS219_2020_02","Sounds/correct.wav","null","1","","","","","","",""
"null","","audio-keyboard-response","236","4145703","0.0-13.0-0.46","a","COGS219_2020_02","Sounds/cow_label.wav","null","1","","","","","","",""
"null","","html-keyboard-response","237","4146708","0.0-13.0-1.46","a","COGS219_2020_02","<p style=""font-size: 48px;"">+</p>","null","1","","","","","","",""
"510.34499995876104","","image-keyboard-response","238","4147219","0.0-13.0-2.46","a","COGS219_2020_02","Images/motorcycle_1.png","76","1","1581203669262","non-match","motorcycle","cow","label","test","true"
"null","","audio-keyboard-response","239","4149235","0.0-13.0-3.46","a","COGS219_2020_02","Sounds/correct.wav","null","1","","","","","","",""
"null","","audio-keyboard-response","240","4150543","0.0-13.0-0.47","a","COGS219_2020_02","Sounds/train_sound.wav","null","1","","","","","","",""
"null","","html-keyboard-response","241","4151541","0.0-13.0-1.47","a","COGS219_2020_02","<p style=""font-size: 48px;"">+</p>","null","1","","","","","","",""
"533.2349999807775","","image-keyboard-response","242","4152075","0.0-13.0-2.47","a","COGS219_2020_02","Images/dog_orig.png","76","1","1581203674095","non-match","dog","train","sound","test","true"
"null","","audio-keyboard-response","243","4154082","0.0-13.0-3.47","a","COGS219_2020_02","Sounds/correct.wav","null","1","","","","","","",""
"null","","audio-keyboard-response","244","4155163","0.0-13.0-0.48","a","COGS219_2020_02","Sounds/car_sound.wav","null","1","","","","","","",""
"null","","html-keyboard-response","245","4156158","0.0-13.0-1.48","a","COGS219_2020_02","<p style=""font-size: 48px;"">+</p>","null","1","","","","","","",""
"876.9750000210479","","image-keyboard-response","246","4157036","0.0-13.0-2.48","a","COGS219_2020_02","Images/train_1.png","76","1","1581203678712","non-match","train","car","sound","test","true"
"null","","audio-keyboard-response","247","4159046","0.0-13.0-3.48","a","COGS219_2020_02","Sounds/correct.wav","null","1","","","","","","",""
"null","","audio-keyboard-response","248","4160123","0.0-13.0-0.49","a","COGS219_2020_02","Sounds/car_label.wav","null","1","","","","","","",""
"null","","html-keyboard-response","249","4161141","0.0-13.0-1.49","a","COGS219_2020_02","<p style=""font-size: 48px;"">+</p>","null","1","","","","","","",""
"1092.9049999685958","","image-keyboard-response","250","4162235","0.0-13.0-2.49","a","COGS219_2020_02","Images/car_cartoon.png","65","1","1581203683695","match","car","car","label","test","true"
"null","","audio-keyboard-response","251","4164241","0.0-13.0-3.49","a","COGS219_2020_02","Sounds/correct.wav","null","1","","","","","","",""
"null","","audio-keyboard-response","252","4165383","0.0-13.0-0.50","a","COGS219_2020_02","Sounds/motorcycle_label.wav","null","1","","","","","","",""
"null","","html-keyboard-response","253","4166374","0.0-13.0-1.50","a","COGS219_2020_02","<p style=""font-size: 48px;"">+</p>","null","1","","","","","","",""
"587.824999995064","","image-keyboard-response","254","4166963","0.0-13.0-2.50","a","COGS219_2020_02","Images/whistle_orig.png","76","1","1581203688929","non-match","whistle","motorcycle","label","test","true"
"null","","audio-keyboard-response","255","4168981","0.0-13.0-3.50","a","COGS219_2020_02","Sounds/correct.wav","null","1","","","","","","",""
"null","","audio-keyboard-response","256","4169683","0.0-13.0-0.51","a","COGS219_2020_02","Sounds/dog_sound.wav","null","1","","","","","","",""
"null","","html-keyboard-response","257","4170675","0.0-13.0-1.51","a","COGS219_2020_02","<p style=""font-size: 48px;"">+</p>","null","1","","","","","","",""
"559.6249999944121","","image-keyboard-response","258","4171235","0.0-13.0-2.51","a","COGS219_2020_02","Images/cat_cartoon.png","76","1","1581203693229","non-match","cat","dog","sound","test","true"
"null","","audio-keyboard-response","259","4173250","0.0-13.0-3.51","a","COGS219_2020_02","Sounds/correct.wav","null","1","","","","","","",""
"null","","audio-keyboard-response","260","4174363","0.0-13.0-0.52","a","COGS219_2020_02","Sounds/motorcycle_sound.wav","null","1","","","","","","",""
"null","","html-keyboard-response","261","4175358","0.0-13.0-1.52","a","COGS219_2020_02","<p style=""font-size: 48px;"">+</p>","null","1","","","","","","",""
"996.1650000186637","","image-keyboard-response","262","4176355","0.0-13.0-2.52","a","COGS219_2020_02","Images/motorcycle_orig.png","65","1","1581203697912","match","motorcycle","motorcycle","sound","test","true"
"null","","audio-keyboard-response","263","4178372","0.0-13.0-3.52","a","COGS219_2020_02","Sounds/correct.wav","null","1","","","","","","",""
"null","","audio-keyboard-response","264","4179028","0.0-13.0-0.53","a","COGS219_2020_02","Sounds/dog_label.wav","null","1","","","","","","",""
"null","","html-keyboard-response","265","4180029","0.0-13.0-1.53","a","COGS219_2020_02","<p style=""font-size: 48px;"">+</p>","null","1","","","","","","",""
"569.5549999945797","","image-keyboard-response","266","4180600","0.0-13.0-2.53","a","COGS219_2020_02","Images/dog_2.png","65","1","1581203702584","match","dog","dog","label","test","true"
"null","","audio-keyboard-response","267","4182605","0.0-13.0-3.53","a","COGS219_2020_02","Sounds/correct.wav","null","1","","","","","","",""
"null","","audio-keyboard-response","268","4183888","0.0-13.0-0.54","a","COGS219_2020_02","Sounds/train_label.wav","null","1","","","","","","",""
"null","","html-keyboard-response","269","4184880","0.0-13.0-1.54","a","COGS219_2020_02","<p style=""font-size: 48px;"">+</p>","null","1","","","","","","",""
"623.6349999671802","","image-keyboard-response","270","4185504","0.0-13.0-2.54","a","COGS219_2020_02","Images/whistle_2.png","76","1","1581203707434","non-match","whistle","train","label","test","true"
"null","","audio-keyboard-response","271","4187517","0.0-13.0-3.54","a","COGS219_2020_02","Sounds/correct.wav","null","1","","","","","","",""
"null","","audio-keyboard-response","272","4188088","0.0-13.0-0.55","a","COGS219_2020_02","Sounds/gun_sound.wav","null","1","","","","","","",""
"null","","html-keyboard-response","273","4189080","0.0-13.0-1.55","a","COGS219_2020_02","<p style=""font-size: 48px;"">+</p>","null","1","","","","","","",""
"679.2799999821","","image-keyboard-response","274","4189760","0.0-13.0-2.55","a","COGS219_2020_02","Images/gun_1.png","65","1","1581203711634","match","gun","gun","sound","test","true"
"null","","audio-keyboard-response","275","4191763","0.0-13.0-3.55","a","COGS219_2020_02","Sounds/correct.wav","null","1","","","","","","",""
"null","","audio-keyboard-response","276","4192308","0.0-13.0-0.56","a","COGS219_2020_02","Sounds/gun_sound.wav","null","1","","","","","","",""
"null","","html-keyboard-response","277","4193296","0.0-13.0-1.56","a","COGS219_2020_02","<p style=""font-size: 48px;"">+</p>","null","1","","","","","","",""
"590.8150000032037","","image-keyboard-response","278","4193888","0.0-13.0-2.56","a","COGS219_2020_02","Images/gun_2.png","65","1","1581203715850","match","gun","gun","sound","test","true"
"null","","audio-keyboard-response","279","4195903","0.0-13.0-3.56","a","COGS219_2020_02","Sounds/correct.wav","null","1","","","","","","",""
"null","","audio-keyboard-response","280","4196608","0.0-13.0-0.57","a","COGS219_2020_02","Sounds/whistle_sound.wav","null","1","","","","","","",""
"null","","html-keyboard-response","281","4197597","0.0-13.0-1.57","a","COGS219_2020_02","<p style=""font-size: 48px;"">+</p>","null","1","","","","","","",""
"578.6799999773502","","image-keyboard-response","282","4198176","0.0-13.0-2.57","a","COGS219_2020_02","Images/whistle_cartoon.png","65","1","1581203720151","match","whistle","whistle","sound","test","true"
"null","","audio-keyboard-response","283","4200192","0.0-13.0-3.57","a","COGS219_2020_02","Sounds/correct.wav","null","1","","","","","","",""
"null","","audio-keyboard-response","284","4201088","0.0-13.0-0.58","a","COGS219_2020_02","Sounds/frog_label.wav","null","1","","","","","","",""
"null","","html-keyboard-response","285","4202080","0.0-13.0-1.58","a","COGS219_2020_02","<p style=""font-size: 48px;"">+</p>","null","1","","","","","","",""
"551.3900000359863","","image-keyboard-response","286","4202632","0.0-13.0-2.58","a","COGS219_2020_02","Images/cat_3.png","76","1","1581203724634","non-match","cat","frog","label","test","true"
"null","","audio-keyboard-response","287","4204640","0.0-13.0-3.58","a","COGS219_2020_02","Sounds/correct.wav","null","1","","","","","","",""
"null","","audio-keyboard-response","288","4205208","0.0-13.0-0.59","a","COGS219_2020_02","Sounds/gun_label.wav","null","1","","","","","","",""
"null","","html-keyboard-response","289","4206196","0.0-13.0-1.59","a","COGS219_2020_02","<p style=""font-size: 48px;"">+</p>","null","1","","","","","","",""
"482.34500002488494","","image-keyboard-response","290","4206680","0.0-13.0-2.59","a","COGS219_2020_02","Images/gun_cartoon.png","65","1","1581203728751","match","gun","gun","label","test","true"
"null","","audio-keyboard-response","291","4208694","0.0-13.0-3.59","a","COGS219_2020_02","Sounds/correct.wav","null","1","","","","","","",""
"null","","audio-keyboard-response","292","4209768","0.0-13.0-0.60","a","COGS219_2020_02","Sounds/car_label.wav","null","1","","","","","","",""
"null","","html-keyboard-response","293","4210763","0.0-13.0-1.60","a","COGS219_2020_02","<p style=""font-size: 48px;"">+</p>","null","1","","","","","","",""
"812.2200000211596","","image-keyboard-response","294","4211576","0.0-13.0-2.60","a","COGS219_2020_02","Images/whistle_3.png","76","1","1581203733317","non-match","whistle","car","label","test","true"
"null","","audio-keyboard-response","295","4213588","0.0-13.0-3.60","a","COGS219_2020_02","Sounds/correct.wav","null","1","","","","","","",""
"null","","audio-keyboard-response","296","4214428","0.0-13.0-0.61","a","COGS219_2020_02","Sounds/cat_label.wav","null","1","","","","","","",""
"null","","html-keyboard-response","297","4215430","0.0-13.0-1.61","a","COGS219_2020_02","<p style=""font-size: 48px;"">+</p>","null","1","","","","","","",""
"561.2150000529364","","image-keyboard-response","298","4215992","0.0-13.0-2.61","a","COGS219_2020_02","Images/cat_2.png","65","1","1581203737984","match","cat","cat","label","test","true"
"null","","audio-keyboard-response","299","4218006","0.0-13.0-3.61","a","COGS219_2020_02","Sounds/correct.wav","null","1","","","","","","",""
"null","","audio-keyboard-response","300","4218708","0.0-13.0-0.62","a","COGS219_2020_02","Sounds/dog_sound.wav","null","1","","","","","","",""
"null","","html-keyboard-response","301","4219696","0.0-13.0-1.62","a","COGS219_2020_02","<p style=""font-size: 48px;"">+</p>","null","1","","","","","","",""
"638.609999964945","","image-keyboard-response","302","4220336","0.0-13.0-2.62","a","COGS219_2020_02","Images/dog_orig.png","65","1","1581203742251","match","dog","dog","sound","test","true"
"null","","audio-keyboard-response","303","4222349","0.0-13.0-3.62","a","COGS219_2020_02","Sounds/correct.wav","null","1","","","","","","",""
"null","","audio-keyboard-response","304","4223468","0.0-13.0-0.63","a","COGS219_2020_02","Sounds/motorcycle_sound.wav","null","1","","","","","","",""
"null","","html-keyboard-response","305","4224463","0.0-13.0-1.63","a","COGS219_2020_02","<p style=""font-size: 48px;"">+</p>","null","1","","","","","","",""
"655.8700000168756","","image-keyboard-response","306","4225120","0.0-13.0-2.63","a","COGS219_2020_02","Images/train_2.png","76","1","1581203747017","non-match","train","motorcycle","sound","test","true"
"null","","audio-keyboard-response","307","4227132","0.0-13.0-3.63","a","COGS219_2020_02","Sounds/correct.wav","null","1","","","","","","",""
"null","","audio-keyboard-response","308","4228268","0.0-13.0-0.64","a","COGS219_2020_02","Sounds/motorcycle_label.wav","null","1","","","","","","",""
"null","","html-keyboard-response","309","4229263","0.0-13.0-1.64","a","COGS219_2020_02","<p style=""font-size: 48px;"">+</p>","null","1","","","","","","",""
"423.72499999962747","","image-keyboard-response","310","4229688","0.0-13.0-2.64","a","COGS219_2020_02","Images/motorcycle_3.png","65","1","1581203751817","match","motorcycle","motorcycle","label","test","true"
"null","","audio-keyboard-response","311","4231698","0.0-13.0-3.64","a","COGS219_2020_02","Sounds/correct.wav","null","1","","","","","","",""
"null","","audio-keyboard-response","312","4232588","0.0-13.0-0.65","a","COGS219_2020_02","Sounds/frog_label.wav","null","1","","","","","","",""
"null","","html-keyboard-response","313","4233580","0.0-13.0-1.65","a","COGS219_2020_02","<p style=""font-size: 48px;"">+</p>","null","1","","","","","","",""
"410.7799999760464","","image-keyboard-response","314","4233992","0.0-13.0-2.65","a","COGS219_2020_02","Images/frog_1.png","65","1","1581203756134","match","frog","frog","label","test","true"
"null","","audio-keyboard-response","315","4236001","0.0-13.0-3.65","a","COGS219_2020_02","Sounds/correct.wav","null","1","","","","","","",""
"null","","audio-keyboard-response","316","4236688","0.0-13.0-0.66","a","COGS219_2020_02","Sounds/rooster_sound.wav","null","1","","","","","","",""
"null","","html-keyboard-response","317","4237680","0.0-13.0-1.66","a","COGS219_2020_02","<p style=""font-size: 48px;"">+</p>","null","1","","","","","","",""
"431.0949999494478","","image-keyboard-response","318","4238112","0.0-13.0-2.66","a","COGS219_2020_02","Images/rooster_1.png","65","1","1581203760234","match","rooster","rooster","sound","test","true"
"null","","audio-keyboard-response","319","4240120","0.0-13.0-3.66","a","COGS219_2020_02","Sounds/correct.wav","null","1","","","","","","",""
"null","","audio-keyboard-response","320","4241192","0.0-13.0-0.67","a","COGS219_2020_02","Sounds/car_label.wav","null","1","","","","","","",""
"null","","html-keyboard-response","321","4242185","0.0-13.0-1.67","a","COGS219_2020_02","<p style=""font-size: 48px;"">+</p>","null","1","","","","","","",""
"434.71000000089407","","image-keyboard-response","322","4242621","0.0-13.0-2.67","a","COGS219_2020_02","Images/cat_orig.png","76","1","1581203764739","non-match","cat","car","label","test","true"
"null","","audio-keyboard-response","323","4244637","0.0-13.0-3.67","a","COGS219_2020_02","Sounds/correct.wav","null","1","","","","","","",""
"null","","audio-keyboard-response","324","4245332","0.0-13.0-0.68","a","COGS219_2020_02","Sounds/rooster_label.wav","null","1","","","","","","",""
"null","","html-keyboard-response","325","4246335","0.0-13.0-1.68","a","COGS219_2020_02","<p style=""font-size: 48px;"">+</p>","null","1","","","","","","",""
"372.6100000208244","","image-keyboard-response","326","4246709","0.0-13.0-2.68","a","COGS219_2020_02","Images/rooster_orig.png","65","1","1581203768889","match","rooster","rooster","label","test","true"
"null","","audio-keyboard-response","327","4248724","0.0-13.0-3.68","a","COGS219_2020_02","Sounds/correct.wav","null","1","","","","","","",""
"null","","audio-keyboard-response","328","4250012","0.0-13.0-0.69","a","COGS219_2020_02","Sounds/train_sound.wav","null","1","","","","","","",""
"null","","html-keyboard-response","329","4251002","0.0-13.0-1.69","a","COGS219_2020_02","<p style=""font-size: 48px;"">+</p>","null","1","","","","","","",""
"1130.170000018552","","image-keyboard-response","330","4252133","0.0-13.0-2.69","a","COGS219_2020_02","Images/train_3.png","65","1","1581203773556","match","train","train","sound","test","true"
"null","","audio-keyboard-response","331","4254135","0.0-13.0-3.69","a","COGS219_2020_02","Sounds/correct.wav","null","1","","","","","","",""
"null","","audio-keyboard-response","332","4255032","0.0-13.0-0.70","a","COGS219_2020_02","Sounds/frog_label.wav","null","1","","","","","","",""
"null","","html-keyboard-response","333","4256035","0.0-13.0-1.70","a","COGS219_2020_02","<p style=""font-size: 48px;"">+</p>","null","1","","","","","","",""
"1168.5000000298023","","image-keyboard-response","334","4257205","0.0-13.0-2.70","a","COGS219_2020_02","Images/car_cartoon.png","76","1","1581203778589","non-match","car","frog","label","test","true"
"null","","audio-keyboard-response","335","4259213","0.0-13.0-3.70","a","COGS219_2020_02","Sounds/correct.wav","null","1","","","","","","",""
"null","","audio-keyboard-response","336","4260232","0.0-13.0-0.71","a","COGS219_2020_02","Sounds/cow_sound.wav","null","1","","","","","","",""
"null","","html-keyboard-response","337","4261235","0.0-13.0-1.71","a","COGS219_2020_02","<p style=""font-size: 48px;"">+</p>","null","1","","","","","","",""
"584.8700000206009","","image-keyboard-response","338","4261821","0.0-13.0-2.71","a","COGS219_2020_02","Images/cow_2.png","65","1","1581203783789","match","cow","cow","sound","test","true"
"null","","audio-keyboard-response","339","4263826","0.0-13.0-3.71","a","COGS219_2020_02","Sounds/correct.wav","null","1","","","","","","",""
"null","","audio-keyboard-response","340","4264412","0.0-13.0-0.72","a","COGS219_2020_02","Sounds/gun_sound.wav","null","1","","","","","","",""
"null","","html-keyboard-response","341","4265402","0.0-13.0-1.72","a","COGS219_2020_02","<p style=""font-size: 48px;"">+</p>","null","1","","","","","","",""
"746.1250000055879","","image-keyboard-response","342","4266149","0.0-13.0-2.72","a","COGS219_2020_02","Images/train_cartoon.png","65","1","1581203787956","non-match","train","gun","sound","test","false"
"null","","audio-keyboard-response","343","4268165","0.0-13.0-3.72","a","COGS219_2020_02","Sounds/incorrect.wav","null","1","","","","","","",""
"null","","audio-keyboard-response","344","4269432","0.0-13.0-0.73","a","COGS219_2020_02","Sounds/train_label.wav","null","1","","","","","","",""
"null","","html-keyboard-response","345","4270435","0.0-13.0-1.73","a","COGS219_2020_02","<p style=""font-size: 48px;"">+</p>","null","1","","","","","","",""
"560.605000006035","","image-keyboard-response","346","4270997","0.0-13.0-2.73","a","COGS219_2020_02","Images/train_1.png","65","1","1581203792989","match","train","train","label","test","true"
"null","","audio-keyboard-response","347","4273010","0.0-13.0-3.73","a","COGS219_2020_02","Sounds/correct.wav","null","1","","","","","","",""
"null","","audio-keyboard-response","348","4273892","0.0-13.0-0.74","a","COGS219_2020_02","Sounds/frog_label.wav","null","1","","","","","","",""
"null","","html-keyboard-response","349","4274885","0.0-13.0-1.74","a","COGS219_2020_02","<p style=""font-size: 48px;"">+</p>","null","1","","","","","","",""
"789.4400000218302","","image-keyboard-response","350","4275677","0.0-13.0-2.74","a","COGS219_2020_02","Images/gun_3.png","76","1","1581203797440","non-match","gun","frog","label","test","true"
"null","","audio-keyboard-response","351","4277694","0.0-13.0-3.74","a","COGS219_2020_02","Sounds/correct.wav","null","1","","","","","","",""
"null","","audio-keyboard-response","352","4278532","0.0-13.0-0.75","a","COGS219_2020_02","Sounds/cat_label.wav","null","1","","","","","","",""
"null","","html-keyboard-response","353","4279535","0.0-13.0-1.75","a","COGS219_2020_02","<p style=""font-size: 48px;"">+</p>","null","1","","","","","","",""
"708.5000000083819","","image-keyboard-response","354","4280245","0.0-13.0-2.75","a","COGS219_2020_02","Images/rooster_cartoon.png","76","1","1581203802090","non-match","rooster","cat","label","test","true"
"null","","audio-keyboard-response","355","4282249","0.0-13.0-3.75","a","COGS219_2020_02","Sounds/correct.wav","null","1","","","","","","",""
"null","","audio-keyboard-response","356","4283552","0.0-13.0-0.76","a","COGS219_2020_02","Sounds/train_sound.wav","null","1","","","","","","",""
"null","","html-keyboard-response","357","4284552","0.0-13.0-1.76","a","COGS219_2020_02","<p style=""font-size: 48px;"">+</p>","null","1","","","","","","",""
"659.8349999981001","","image-keyboard-response","358","4285213","0.0-13.0-2.76","a","COGS219_2020_02","Images/frog_1.png","76","1","1581203807106","non-match","frog","train","sound","test","true"
"null","","audio-keyboard-response","359","4287218","0.0-13.0-3.76","a","COGS219_2020_02","Sounds/correct.wav","null","1","","","","","","",""
"null","","audio-keyboard-response","360","4288132","0.0-13.0-0.77","a","COGS219_2020_02","Sounds/frog_sound.wav","null","1","","","","","","",""
"null","","html-keyboard-response","361","4289135","0.0-13.0-1.77","a","COGS219_2020_02","<p style=""font-size: 48px;"">+</p>","null","1","","","","","","",""
"476.52999998629093","","image-keyboard-response","362","4289613","0.0-13.0-2.77","a","COGS219_2020_02","Images/motorcycle_2.png","76","1","1581203811690","non-match","motorcycle","frog","sound","test","true"
"null","","audio-keyboard-response","363","4291616","0.0-13.0-3.77","a","COGS219_2020_02","Sounds/correct.wav","null","1","","","","","","",""
"null","","audio-keyboard-response","364","4292292","0.0-13.0-0.78","a","COGS219_2020_02","Sounds/rooster_label.wav","null","1","","","","","","",""
"null","","html-keyboard-response","365","4293285","0.0-13.0-1.78","a","COGS219_2020_02","<p style=""font-size: 48px;"">+</p>","null","1","","","","","","",""
"534.4349999800324","","image-keyboard-response","366","4293821","0.0-13.0-2.78","a","COGS219_2020_02","Images/rooster_2.png","65","1","1581203815840","match","rooster","rooster","label","test","true"
"null","","audio-keyboard-response","367","4295828","0.0-13.0-3.78","a","COGS219_2020_02","Sounds/correct.wav","null","1","","","","","","",""
"null","","audio-keyboard-response","368","4296673","0.0-13.0-0.79","a","COGS219_2020_02","Sounds/cat_sound.wav","null","1","","","","","","",""
"null","","html-keyboard-response","369","4297669","0.0-13.0-1.79","a","COGS219_2020_02","<p style=""font-size: 48px;"">+</p>","null","1","","","","","","",""
"550.8549999799579","","image-keyboard-response","370","4298221","0.0-13.0-2.79","a","COGS219_2020_02","Images/frog_orig.png","76","1","1581203820223","non-match","frog","cat","sound","test","true"
"null","","audio-keyboard-response","371","4300233","0.0-13.0-3.79","a","COGS219_2020_02","Sounds/correct.wav","null","1","","","","","","",""
"null","","audio-keyboard-response","372","4301076","0.0-13.0-0.80","a","COGS219_2020_02","Sounds/cat_label.wav","null","1","","","","","","",""
"null","","html-keyboard-response","373","4302072","0.0-13.0-1.80","a","COGS219_2020_02","<p style=""font-size: 48px;"">+</p>","null","1","","","","","","",""
"814.9400000115857","","image-keyboard-response","374","4302888","0.0-13.0-2.80","a","COGS219_2020_02","Images/cat_1.png","65","1","1581203824626","match","cat","cat","label","test","true"
"null","","audio-keyboard-response","375","4304897","0.0-13.0-3.80","a","COGS219_2020_02","Sounds/correct.wav","null","1","","","","","","",""
"null","","audio-keyboard-response","376","4306176","0.0-13.0-0.81","a","COGS219_2020_02","Sounds/train_label.wav","null","1","","","","","","",""
"null","","html-keyboard-response","377","4307172","0.0-13.0-1.81","a","COGS219_2020_02","<p style=""font-size: 48px;"">+</p>","null","1","","","","","","",""
"722.9799999622628","","image-keyboard-response","378","4307896","0.0-13.0-2.81","a","COGS219_2020_02","Images/train_cartoon.png","65","1","1581203829726","match","train","train","label","test","true"
"null","","audio-keyboard-response","379","4309901","0.0-13.0-3.81","a","COGS219_2020_02","Sounds/correct.wav","null","1","","","","","","",""
"null","","audio-keyboard-response","380","4310476","0.0-13.0-0.82","a","COGS219_2020_02","Sounds/gun_sound.wav","null","1","","","","","","",""
"null","","html-keyboard-response","381","4311472","0.0-13.0-1.82","a","COGS219_2020_02","<p style=""font-size: 48px;"">+</p>","null","1","","","","","","",""
"622.7499999804422","","image-keyboard-response","382","4312096","0.0-13.0-2.82","a","COGS219_2020_02","Images/motorcycle_cartoon.png","76","1","1581203834026","non-match","motorcycle","gun","sound","test","true"
"null","","audio-keyboard-response","383","4314109","0.0-13.0-3.82","a","COGS219_2020_02","Sounds/correct.wav","null","1","","","","","","",""
"null","","audio-keyboard-response","384","4314916","0.0-13.0-0.83","a","COGS219_2020_02","Sounds/cat_label.wav","null","1","","","","","","",""
"null","","html-keyboard-response","385","4315906","0.0-13.0-1.83","a","COGS219_2020_02","<p style=""font-size: 48px;"">+</p>","null","1","","","","","","",""
"533.1950000254437","","image-keyboard-response","386","4316440","0.0-13.0-2.83","a","COGS219_2020_02","Images/cat_orig.png","65","1","1581203838460","match","cat","cat","label","test","true"
"null","","audio-keyboard-response","387","4318450","0.0-13.0-3.83","a","COGS219_2020_02","Sounds/correct.wav","null","1","","","","","","",""
"null","","audio-keyboard-response","388","4318996","0.0-13.0-0.84","a","COGS219_2020_02","Sounds/gun_sound.wav","null","1","","","","","","",""
"null","","html-keyboard-response","389","4319989","0.0-13.0-1.84","a","COGS219_2020_02","<p style=""font-size: 48px;"">+</p>","null","1","","","","","","",""
"522.2800000337884","","image-keyboard-response","390","4320512","0.0-13.0-2.84","a","COGS219_2020_02","Images/car_1.png","76","1","1581203842543","non-match","car","gun","sound","test","true"
"null","","audio-keyboard-response","391","4322518","0.0-13.0-3.84","a","COGS219_2020_02","Sounds/correct.wav","null","1","","","","","","",""
"null","","audio-keyboard-response","392","4323336","0.0-13.0-0.85","a","COGS219_2020_02","Sounds/cat_sound.wav","null","1","","","","","","",""
"null","","html-keyboard-response","393","4324339","0.0-13.0-1.85","a","COGS219_2020_02","<p style=""font-size: 48px;"">+</p>","null","1","","","","","","",""
"457.6949999909848","","image-keyboard-response","394","4324800","0.0-13.0-2.85","a","COGS219_2020_02","Images/cat_cartoon.png","65","1","1581203846893","match","cat","cat","sound","test","true"
"null","","audio-keyboard-response","395","4326806","0.0-13.0-3.85","a","COGS219_2020_02","Sounds/correct.wav","null","1","","","","","","",""
"null","","audio-keyboard-response","396","4327496","0.0-13.0-0.86","a","COGS219_2020_02","Sounds/whistle_sound.wav","null","1","","","","","","",""
"null","","html-keyboard-response","397","4328489","0.0-13.0-1.86","a","COGS219_2020_02","<p style=""font-size: 48px;"">+</p>","null","1","","","","","","",""
"429.7800000058487","","image-keyboard-response","398","4328920","0.0-13.0-2.86","a","COGS219_2020_02","Images/whistle_1.png","65","1","1581203851043","match","whistle","whistle","sound","test","true"
"null","","audio-keyboard-response","399","4330924","0.0-13.0-3.86","a","COGS219_2020_02","Sounds/correct.wav","null","1","","","","","","",""
"null","","audio-keyboard-response","400","4331996","0.0-13.0-0.87","a","COGS219_2020_02","Sounds/car_label.wav","null","1","","","","","","",""
"null","","html-keyboard-response","401","4332989","0.0-13.0-1.87","a","COGS219_2020_02","<p style=""font-size: 48px;"">+</p>","null","1","","","","","","",""
"466.14999999292195","","image-keyboard-response","402","4333456","0.0-13.0-2.87","a","COGS219_2020_02","Images/car_orig.png","65","1","1581203855543","match","car","car","label","test","true"
"null","","audio-keyboard-response","403","4335470","0.0-13.0-3.87","a","COGS219_2020_02","Sounds/correct.wav","null","1","","","","","","",""
"null","","audio-keyboard-response","404","4336616","0.0-13.0-0.88","a","COGS219_2020_02","Sounds/motorcycle_label.wav","null","1","","","","","","",""
"null","","html-keyboard-response","405","4337606","0.0-13.0-1.88","a","COGS219_2020_02","<p style=""font-size: 48px;"">+</p>","null","1","","","","","","",""
"560.994999948889","","image-keyboard-response","406","4338168","0.0-13.0-2.88","a","COGS219_2020_02","Images/motorcycle_2.png","76","1","1581203860160","match","motorcycle","motorcycle","label","test","false"
"null","","audio-keyboard-response","407","4340183","0.0-13.0-3.88","a","COGS219_2020_02","Sounds/incorrect.wav","null","1","","","","","","",""
"null","","audio-keyboard-response","408","4341476","0.0-13.0-0.89","a","COGS219_2020_02","Sounds/train_sound.wav","null","1","","","","","","",""
"null","","html-keyboard-response","409","4342473","0.0-13.0-1.89","a","COGS219_2020_02","<p style=""font-size: 48px;"">+</p>","null","1","","","","","","",""
"701.6650000009686","","image-keyboard-response","410","4343176","0.0-13.0-2.89","a","COGS219_2020_02","Images/train_2.png","65","1","1581203865027","match","train","train","sound","test","true"
"null","","audio-keyboard-response","411","4345186","0.0-13.0-3.89","a","COGS219_2020_02","Sounds/correct.wav","null","1","","","","","","",""
"null","","audio-keyboard-response","412","4346196","0.0-13.0-0.90","a","COGS219_2020_02","Sounds/cow_sound.wav","null","1","","","","","","",""
"null","","html-keyboard-response","413","4347189","0.0-13.0-1.90","a","COGS219_2020_02","<p style=""font-size: 48px;"">+</p>","null","1","","","","","","",""
"586.1349999904633","","image-keyboard-response","414","4347776","0.0-13.0-2.90","a","COGS219_2020_02","Images/dog_3.png","76","1","1581203869743","non-match","dog","cow","sound","test","true"
"null","","audio-keyboard-response","415","4349781","0.0-13.0-3.90","a","COGS219_2020_02","Sounds/correct.wav","null","1","","","","","","",""
"null","","audio-keyboard-response","416","4350856","0.0-13.0-0.91","a","COGS219_2020_02","Sounds/car_label.wav","null","1","","","","","","",""
"null","","html-keyboard-response","417","4351856","0.0-13.0-1.91","a","COGS219_2020_02","<p style=""font-size: 48px;"">+</p>","null","1","","","","","","",""
"519.0299999667332","","image-keyboard-response","418","4352376","0.0-13.0-2.91","a","COGS219_2020_02","Images/car_1.png","65","1","1581203874410","match","car","car","label","test","true"
"null","","audio-keyboard-response","419","4354385","0.0-13.0-3.91","a","COGS219_2020_02","Sounds/correct.wav","null","1","","","","","","",""
"null","","audio-keyboard-response","420","4355096","0.0-13.0-0.92","a","COGS219_2020_02","Sounds/dog_sound.wav","null","1","","","","","","",""
"null","","html-keyboard-response","421","4356089","0.0-13.0-1.92","a","COGS219_2020_02","<p style=""font-size: 48px;"">+</p>","null","1","","","","","","",""
"501.9249999895692","","image-keyboard-response","422","4356592","0.0-13.0-2.92","a","COGS219_2020_02","Images/frog_3.png","76","1","1581203878643","non-match","frog","dog","sound","test","true"
"null","","audio-keyboard-response","423","4358603","0.0-13.0-3.92","a","COGS219_2020_02","Sounds/correct.wav","null","1","","","","","","",""
"null","","audio-keyboard-response","424","4359716","0.0-13.0-0.93","a","COGS219_2020_02","Sounds/motorcycle_sound.wav","null","1","","","","","","",""
"null","","html-keyboard-response","425","4360708","0.0-13.0-1.93","a","COGS219_2020_02","<p style=""font-size: 48px;"">+</p>","null","1","","","","","","",""
"837.085000006482","","image-keyboard-response","426","4361546","0.0-13.0-2.93","a","COGS219_2020_02","Images/motorcycle_1.png","65","1","1581203883262","match","motorcycle","motorcycle","sound","test","true"
"null","","audio-keyboard-response","427","4363563","0.0-13.0-3.93","a","COGS219_2020_02","Sounds/correct.wav","null","1","","","","","","",""
"null","","audio-keyboard-response","428","4364258","0.0-13.0-0.94","a","COGS219_2020_02","Sounds/rooster_sound.wav","null","1","","","","","","",""
"null","","html-keyboard-response","429","4365258","0.0-13.0-1.94","a","COGS219_2020_02","<p style=""font-size: 48px;"">+</p>","null","1","","","","","","",""
"439.0399999683723","","image-keyboard-response","430","4365698","0.0-13.0-2.94","a","COGS219_2020_02","Images/rooster_3.png","65","1","1581203887812","match","rooster","rooster","sound","test","true"
"null","","audio-keyboard-response","431","4367707","0.0-13.0-3.94","a","COGS219_2020_02","Sounds/correct.wav","null","1","","","","","","",""
"null","","audio-keyboard-response","432","4368358","0.0-13.0-0.95","a","COGS219_2020_02","Sounds/dog_label.wav","null","1","","","","","","",""
"null","","html-keyboard-response","433","4369358","0.0-13.0-1.95","a","COGS219_2020_02","<p style=""font-size: 48px;"">+</p>","null","1","","","","","","",""
"585.6350000249222","","image-keyboard-response","434","4369946","0.0-13.0-2.95","a","COGS219_2020_02","Images/motorcycle_orig.png","76","1","1581203891913","non-match","motorcycle","dog","label","test","true"
"null","","audio-keyboard-response","435","4371950","0.0-13.0-3.95","a","COGS219_2020_02","Sounds/correct.wav","null","1","","","","","","",""
"null","","audio-keyboard-response","436","4372958","0.0-13.0-0.96","a","COGS219_2020_02","Sounds/cow_sound.wav","null","1","","","","","","",""
"null","","html-keyboard-response","437","4373958","0.0-13.0-1.96","a","COGS219_2020_02","<p style=""font-size: 48px;"">+</p>","null","1","","","","","","",""
"451.02500001713634","","image-keyboard-response","438","4374410","0.0-13.0-2.96","a","COGS219_2020_02","Images/cow_1.png","65","1","1581203896512","match","cow","cow","sound","test","true"
"null","","audio-keyboard-response","439","4376423","0.0-13.0-3.96","a","COGS219_2020_02","Sounds/correct.wav","null","1","","","","","","",""
"null","","audio-keyboard-response","440","4377118","0.0-13.0-0.97","a","COGS219_2020_02","Sounds/whistle_label.wav","null","1","","","","","","",""
"null","","html-keyboard-response","441","4378108","0.0-13.0-1.97","a","COGS219_2020_02","<p style=""font-size: 48px;"">+</p>","null","1","","","","","","",""
"771.7500000149012","","image-keyboard-response","442","4378882","0.0-13.0-2.97","a","COGS219_2020_02","Images/whistle_2.png","65","1","1581203900662","match","whistle","whistle","label","test","true"
"null","","audio-keyboard-response","443","4380886","0.0-13.0-3.97","a","COGS219_2020_02","Sounds/correct.wav","null","1","","","","","","",""
"null","","audio-keyboard-response","444","4381958","0.0-13.0-0.98","a","COGS219_2020_02","Sounds/car_sound.wav","null","1","","","","","","",""
"null","","html-keyboard-response","445","4382958","0.0-13.0-1.98","a","COGS219_2020_02","<p style=""font-size: 48px;"">+</p>","null","1","","","","","","",""
"946.8049999559298","","image-keyboard-response","446","4383906","0.0-13.0-2.98","a","COGS219_2020_02","Images/motorcycle_3.png","76","1","1581203905513","non-match","motorcycle","car","sound","test","true"
"null","","audio-keyboard-response","447","4385921","0.0-13.0-3.98","a","COGS219_2020_02","Sounds/correct.wav","null","1","","","","","","",""
"null","","audio-keyboard-response","448","4387058","0.0-13.0-0.99","a","COGS219_2020_02","Sounds/motorcycle_label.wav","null","1","","","","","","",""
"null","","html-keyboard-response","449","4388075","0.0-13.0-1.99","a","COGS219_2020_02","<p style=""font-size: 48px;"">+</p>","null","1","","","","","","",""
"502.6149999462068","","image-keyboard-response","450","4388579","0.0-13.0-2.99","a","COGS219_2020_02","Images/motorcycle_cartoon.png","65","1","1581203910629","match","motorcycle","motorcycle","label","test","true"
"null","","audio-keyboard-response","451","4390586","0.0-13.0-3.99","a","COGS219_2020_02","Sounds/correct.wav","null","1","","","","","","",""
"7263.604999985546","","html-keyboard-response","452","4397850","0.0-14.0","a","COGS219_2020_02","<p>Please take this opportunity to rest your eyes before proceeding.</p><p>When ready, press the enter key to continue to the next set of trials.</p>","13","","","","","","","",""
"null","","audio-keyboard-response","453","4400664","0.0-15.0-0.0","a","COGS219_2020_02","Sounds/cat_sound.wav","null","2","","","","","","",""
"null","","html-keyboard-response","454","4401659","0.0-15.0-1.0","a","COGS219_2020_02","<p style=""font-size: 48px;"">+</p>","null","2","","","","","","",""
"654.7750000022352","","image-keyboard-response","455","4402314","0.0-15.0-2.0","a","COGS219_2020_02","Images/rooster_3.png","76","2","1581203924213","non-match","rooster","cat","sound","test","true"
"null","","audio-keyboard-response","456","4404327","0.0-15.0-3.0","a","COGS219_2020_02","Sounds/correct.wav","null","2","","","","","","",""
"null","","audio-keyboard-response","457","4405624","0.0-15.0-0.1","a","COGS219_2020_02","Sounds/train_sound.wav","null","2","","","","","","",""
"null","","html-keyboard-response","458","4406642","0.0-15.0-1.1","a","COGS219_2020_02","<p style=""font-size: 48px;"">+</p>","null","2","","","","","","",""
"967.3550000302494","","image-keyboard-response","459","4407610","0.0-15.0-2.1","a","COGS219_2020_02","Images/cow_orig.png","76","2","1581203929196","non-match","cow","train","sound","test","true"
"null","","audio-keyboard-response","460","4409619","0.0-15.0-3.1","a","COGS219_2020_02","Sounds/correct.wav","null","2","","","","","","",""
"null","","audio-keyboard-response","461","4410204","0.0-15.0-0.2","a","COGS219_2020_02","Sounds/gun_sound.wav","null","2","","","","","","",""
"null","","html-keyboard-response","462","4411209","0.0-15.0-1.2","a","COGS219_2020_02","<p style=""font-size: 48px;"">+</p>","null","2","","","","","","",""
"2040.3299999888986","","image-keyboard-response","463","4413250","0.0-15.0-2.2","a","COGS219_2020_02","Images/gun_1.png","65","2","1581203933763","match","gun","gun","sound","test","true"
"null","","audio-keyboard-response","464","4415260","0.0-15.0-3.2","a","COGS219_2020_02","Sounds/correct.wav","null","2","","","","","","",""
"null","","audio-keyboard-response","465","4415944","0.0-15.0-0.3","a","COGS219_2020_02","Sounds/whistle_label.wav","null","2","","","","","","",""
"null","","html-keyboard-response","466","4416942","0.0-15.0-1.3","a","COGS219_2020_02","<p style=""font-size: 48px;"">+</p>","null","2","","","","","","",""
"874.9199999738485","","image-keyboard-response","467","4417818","0.0-15.0-2.3","a","COGS219_2020_02","Images/gun_orig.png","76","2","1581203939496","non-match","gun","whistle","label","test","true"
"null","","audio-keyboard-response","468","4419830","0.0-15.0-3.3","a","COGS219_2020_02","Sounds/correct.wav","null","2","","","","","","",""
"null","","audio-keyboard-response","469","4420525","0.0-15.0-0.4","a","COGS219_2020_02","Sounds/rooster_sound.wav","null","2","","","","","","",""
"null","","html-keyboard-response","470","4421527","0.0-15.0-1.4","a","COGS219_2020_02","<p style=""font-size: 48px;"">+</p>","null","2","","","","","","",""
"555.5650000460446","","image-keyboard-response","471","4422084","0.0-15.0-2.4","a","COGS219_2020_02","Images/rooster_cartoon.png","65","2","1581203944081","match","rooster","rooster","sound","test","true"
"null","","audio-keyboard-response","472","4424096","0.0-15.0-3.4","a","COGS219_2020_02","Sounds/correct.wav","null","2","","","","","","",""
"null","","audio-keyboard-response","473","4424766","0.0-15.0-0.5","a","COGS219_2020_02","Sounds/whistle_label.wav","null","2","","","","","","",""
"null","","html-keyboard-response","474","4425761","0.0-15.0-1.5","a","COGS219_2020_02","<p style=""font-size: 48px;"">+</p>","null","2","","","","","","",""
"1242.585000000894","","image-keyboard-response","475","4427004","0.0-15.0-2.5","a","COGS219_2020_02","Images/whistle_orig.png","65","2","1581203948315","match","whistle","whistle","label","test","true"
"null","","audio-keyboard-response","476","4429020","0.0-15.0-3.5","a","COGS219_2020_02","Sounds/correct.wav","null","2","","","","","","",""
"null","","audio-keyboard-response","477","4429687","0.0-15.0-0.6","a","COGS219_2020_02","Sounds/whistle_label.wav","null","2","","","","","","",""
"null","","html-keyboard-response","478","4430694","0.0-15.0-1.6","a","COGS219_2020_02","<p style=""font-size: 48px;"">+</p>","null","2","","","","","","",""
"469.1350000221282","","image-keyboard-response","479","4431164","0.0-15.0-2.6","a","COGS219_2020_02","Images/motorcycle_3.png","76","2","1581203953248","non-match","motorcycle","whistle","label","test","true"
"null","","audio-keyboard-response","480","4433180","0.0-15.0-3.6","a","COGS219_2020_02","Sounds/correct.wav","null","2","","","","","","",""
"null","","audio-keyboard-response","481","4434486","0.0-15.0-0.7","a","COGS219_2020_02","Sounds/train_label.wav","null","2","","","","","","",""
"null","","html-keyboard-response","482","4435494","0.0-15.0-1.7","a","COGS219_2020_02","<p style=""font-size: 48px;"">+</p>","null","2","","","","","","",""
"477.18500002566725","","image-keyboard-response","483","4435972","0.0-15.0-2.7","a","COGS219_2020_02","Images/train_3.png","65","2","1581203958048","match","train","train","label","test","true"
"null","","audio-keyboard-response","484","4437980","0.0-15.0-3.7","a","COGS219_2020_02","Sounds/correct.wav","null","2","","","","","","",""
"null","","audio-keyboard-response","485","4439106","0.0-15.0-0.8","a","COGS219_2020_02","Sounds/motorcycle_sound.wav","null","2","","","","","","",""
"null","","html-keyboard-response","486","4440111","0.0-15.0-1.8","a","COGS219_2020_02","<p style=""font-size: 48px;"">+</p>","null","2","","","","","","",""
"404.39500001911074","","image-keyboard-response","487","4440516","0.0-15.0-2.8","a","COGS219_2020_02","Images/frog_2.png","76","2","1581203962665","non-match","frog","motorcycle","sound","test","true"
"null","","audio-keyboard-response","488","4442530","0.0-15.0-3.8","a","COGS219_2020_02","Sounds/correct.wav","null","2","","","","","","",""
"null","","audio-keyboard-response","489","4443626","0.0-15.0-0.9","a","COGS219_2020_02","Sounds/motorcycle_sound.wav","null","2","","","","","","",""
"null","","html-keyboard-response","490","4444678","0.0-15.0-1.9","a","COGS219_2020_02","<p style=""font-size: 48px;"">+</p>","null","2","","","","","","",""
"445.30000002123415","","image-keyboard-response","491","4445124","0.0-15.0-2.9","a","COGS219_2020_02","Images/motorcycle_cartoon.png","65","2","1581203967232","match","motorcycle","motorcycle","sound","test","true"
"null","","audio-keyboard-response","492","4447133","0.0-15.0-3.9","a","COGS219_2020_02","Sounds/correct.wav","null","2","","","","","","",""
"null","","audio-keyboard-response","493","4448226","0.0-15.0-0.10","a","COGS219_2020_02","Sounds/motorcycle_sound.wav","null","2","","","","","","",""
"null","","html-keyboard-response","494","4449244","0.0-15.0-1.10","a","COGS219_2020_02","<p style=""font-size: 48px;"">+</p>","null","2","","","","","","",""
"518.6749999998137","","image-keyboard-response","495","4449764","0.0-15.0-2.10","a","COGS219_2020_02","Images/train_3.png","76","2","1581203971799","non-match","train","motorcycle","sound","test","true"
"null","","audio-keyboard-response","496","4451780","0.0-15.0-3.10","a","COGS219_2020_02","Sounds/correct.wav","null","2","","","","","","",""
"null","","audio-keyboard-response","497","4452806","0.0-15.0-0.11","a","COGS219_2020_02","Sounds/cow_label.wav","null","2","","","","","","",""
"null","","html-keyboard-response","498","4453811","0.0-15.0-1.11","a","COGS219_2020_02","<p style=""font-size: 48px;"">+</p>","null","2","","","","","","",""
"479.9499999489635","","image-keyboard-response","499","4454292","0.0-15.0-2.11","a","COGS219_2020_02","Images/dog_3.png","76","2","1581203976365","non-match","dog","cow","label","test","true"
"null","","audio-keyboard-response","500","4456297","0.0-15.0-3.11","a","COGS219_2020_02","Sounds/correct.wav","null","2","","","","","","",""
"null","","audio-keyboard-response","501","4456866","0.0-15.0-0.12","a","COGS219_2020_02","Sounds/gun_sound.wav","null","2","","","","","","",""
"null","","html-keyboard-response","502","4457861","0.0-15.0-1.12","a","COGS219_2020_02","<p style=""font-size: 48px;"">+</p>","null","2","","","","","","",""
"645.795000018552","","image-keyboard-response","503","4458508","0.0-15.0-2.12","a","COGS219_2020_02","Images/whistle_orig.png","76","2","1581203980415","non-match","whistle","gun","sound","test","true"
"null","","audio-keyboard-response","504","4460514","0.0-15.0-3.12","a","COGS219_2020_02","Sounds/correct.wav","null","2","","","","","","",""
"null","","audio-keyboard-response","505","4461206","0.0-15.0-0.13","a","COGS219_2020_02","Sounds/rooster_label.wav","null","2","","","","","","",""
"null","","html-keyboard-response","506","4462211","0.0-15.0-1.13","a","COGS219_2020_02","<p style=""font-size: 48px;"">+</p>","null","2","","","","","","",""
"720.0800000000745","","image-keyboard-response","507","4462933","0.0-15.0-2.13","a","COGS219_2020_02","Images/rooster_2.png","65","2","1581203984765","match","rooster","rooster","label","test","true"
"null","","audio-keyboard-response","508","4464949","0.0-15.0-3.13","a","COGS219_2020_02","Sounds/correct.wav","null","2","","","","","","",""
"null","","audio-keyboard-response","509","4466027","0.0-15.0-0.14","a","COGS219_2020_02","Sounds/car_label.wav","null","2","","","","","","",""
"null","","html-keyboard-response","510","4467045","0.0-15.0-1.14","a","COGS219_2020_02","<p style=""font-size: 48px;"">+</p>","null","2","","","","","","",""
"622.7600000565872","","image-keyboard-response","511","4467668","0.0-15.0-2.14","a","COGS219_2020_02","Images/whistle_3.png","76","2","1581203989599","non-match","whistle","car","label","test","true"
"null","","audio-keyboard-response","512","4469680","0.0-15.0-3.14","a","COGS219_2020_02","Sounds/correct.wav","null","2","","","","","","",""
"null","","audio-keyboard-response","513","4470706","0.0-15.0-0.15","a","COGS219_2020_02","Sounds/cow_sound.wav","null","2","","","","","","",""
"null","","html-keyboard-response","514","4471728","0.0-15.0-1.15","a","COGS219_2020_02","<p style=""font-size: 48px;"">+</p>","null","2","","","","","","",""
"579.0599999595433","","image-keyboard-response","515","4472308","0.0-15.0-2.15","a","COGS219_2020_02","Images/gun_3.png","76","2","1581203994282","non-match","gun","cow","sound","test","true"
"null","","audio-keyboard-response","516","4474312","0.0-15.0-3.15","a","COGS219_2020_02","Sounds/correct.wav","null","2","","","","","","",""
"null","","audio-keyboard-response","517","4475446","0.0-15.0-0.16","a","COGS219_2020_02","Sounds/motorcycle_label.wav","null","2","","","","","","",""
"null","","html-keyboard-response","518","4476445","0.0-15.0-1.16","a","COGS219_2020_02","<p style=""font-size: 48px;"">+</p>","null","2","","","","","","",""
"470.5950000202283","","image-keyboard-response","519","4476916","0.0-15.0-2.16","a","COGS219_2020_02","Images/motorcycle_2.png","65","2","1581203998999","match","motorcycle","motorcycle","label","test","true"
"null","","audio-keyboard-response","520","4478931","0.0-15.0-3.16","a","COGS219_2020_02","Sounds/correct.wav","null","2","","","","","","",""
"null","","audio-keyboard-response","521","4479627","0.0-15.0-0.17","a","COGS219_2020_02","Sounds/whistle_sound.wav","null","2","","","","","","",""
"null","","html-keyboard-response","522","4480661","0.0-15.0-1.17","a","COGS219_2020_02","<p style=""font-size: 48px;"">+</p>","null","2","","","","","","",""
"860.7700000274926","","image-keyboard-response","523","4481524","0.0-15.0-2.17","a","COGS219_2020_02","Images/whistle_3.png","76","2","1581204003217","match","whistle","whistle","sound","test","false"
"null","","audio-keyboard-response","524","4483536","0.0-15.0-3.17","a","COGS219_2020_02","Sounds/incorrect.wav","null","2","","","","","","",""
"null","","audio-keyboard-response","525","4484188","0.0-15.0-0.18","a","COGS219_2020_02","Sounds/dog_label.wav","null","2","","","","","","",""
"null","","html-keyboard-response","526","4485197","0.0-15.0-1.18","a","COGS219_2020_02","<p style=""font-size: 48px;"">+</p>","null","2","","","","","","",""
"680.2550000138581","","image-keyboard-response","527","4485878","0.0-15.0-2.18","a","COGS219_2020_02","Images/dog_3.png","65","2","1581204007751","match","dog","dog","label","test","true"
"null","","audio-keyboard-response","528","4487882","0.0-15.0-3.18","a","COGS219_2020_02","Sounds/correct.wav","null","2","","","","","","",""
"null","","audio-keyboard-response","529","4488508","0.0-15.0-0.19","a","COGS219_2020_02","Sounds/dog_label.wav","null","2","","","","","","",""
"null","","html-keyboard-response","530","4489513","0.0-15.0-1.19","a","COGS219_2020_02","<p style=""font-size: 48px;"">+</p>","null","2","","","","","","",""
"523.4150000028312","","image-keyboard-response","531","4490038","0.0-15.0-2.19","a","COGS219_2020_02","Images/train_2.png","76","2","1581204012068","non-match","train","dog","label","test","true"
"null","","audio-keyboard-response","532","4492049","0.0-15.0-3.19","a","COGS219_2020_02","Sounds/correct.wav","null","2","","","","","","",""
"null","","audio-keyboard-response","533","4493168","0.0-15.0-0.20","a","COGS219_2020_02","Sounds/motorcycle_sound.wav","null","2","","","","","","",""
"null","","html-keyboard-response","534","4494163","0.0-15.0-1.20","a","COGS219_2020_02","<p style=""font-size: 48px;"">+</p>","null","2","","","","","","",""
"608.8350000213832","","image-keyboard-response","535","4494774","0.0-15.0-2.20","a","COGS219_2020_02","Images/motorcycle_3.png","65","2","1581204016717","match","motorcycle","motorcycle","sound","test","true"
"null","","audio-keyboard-response","536","4496788","0.0-15.0-3.20","a","COGS219_2020_02","Sounds/correct.wav","null","2","","","","","","",""
"null","","audio-keyboard-response","537","4497488","0.0-15.0-0.21","a","COGS219_2020_02","Sounds/whistle_label.wav","null","2","","","","","","",""
"null","","html-keyboard-response","538","4498497","0.0-15.0-1.21","a","COGS219_2020_02","<p style=""font-size: 48px;"">+</p>","null","2","","","","","","",""
"548.1900000013411","","image-keyboard-response","539","4499046","0.0-15.0-2.21","a","COGS219_2020_02","Images/whistle_cartoon.png","65","2","1581204021051","match","whistle","whistle","label","test","true"
"null","","audio-keyboard-response","540","4501052","0.0-15.0-3.21","a","COGS219_2020_02","Sounds/correct.wav","null","2","","","","","","",""
"null","","audio-keyboard-response","541","4501948","0.0-15.0-0.22","a","COGS219_2020_02","Sounds/frog_label.wav","null","2","","","","","","",""
"null","","html-keyboard-response","542","4502947","0.0-15.0-1.22","a","COGS219_2020_02","<p style=""font-size: 48px;"">+</p>","null","2","","","","","","",""
"666.1900000181049","","image-keyboard-response","543","4503614","0.0-15.0-2.22","a","COGS219_2020_02","Images/rooster_1.png","76","2","1581204025501","non-match","rooster","frog","label","test","true"
"null","","audio-keyboard-response","544","4505630","0.0-15.0-3.22","a","COGS219_2020_02","Sounds/correct.wav","null","2","","","","","","",""
"null","","audio-keyboard-response","545","4506768","0.0-15.0-0.23","a","COGS219_2020_02","Sounds/motorcycle_label.wav","null","2","","","","","","",""
"null","","html-keyboard-response","546","4507763","0.0-15.0-1.23","a","COGS219_2020_02","<p style=""font-size: 48px;"">+</p>","null","2","","","","","","",""
"633.6749999895692","","image-keyboard-response","547","4508398","0.0-15.0-2.23","a","COGS219_2020_02","Images/whistle_1.png","76","2","1581204030318","non-match","whistle","motorcycle","label","test","true"
"null","","audio-keyboard-response","548","4510415","0.0-15.0-3.23","a","COGS219_2020_02","Sounds/correct.wav","null","2","","","","","","",""
"null","","audio-keyboard-response","549","4511108","0.0-15.0-0.24","a","COGS219_2020_02","Sounds/rooster_sound.wav","null","2","","","","","","",""
"null","","html-keyboard-response","550","4512114","0.0-15.0-1.24","a","COGS219_2020_02","<p style=""font-size: 48px;"">+</p>","null","2","","","","","","",""
"491.1900000292808","","image-keyboard-response","551","4512606","0.0-15.0-2.24","a","COGS219_2020_02","Images/rooster_3.png","65","2","1581204034668","match","rooster","rooster","sound","test","true"
"null","","audio-keyboard-response","552","4514616","0.0-15.0-3.24","a","COGS219_2020_02","Sounds/correct.wav","null","2","","","","","","",""
"null","","audio-keyboard-response","553","4515628","0.0-15.0-0.25","a","COGS219_2020_02","Sounds/cow_label.wav","null","2","","","","","","",""
"null","","html-keyboard-response","554","4516630","0.0-15.0-1.25","a","COGS219_2020_02","<p style=""font-size: 48px;"">+</p>","null","2","","","","","","",""
"654.6950000338256","","image-keyboard-response","555","4517286","0.0-15.0-2.25","a","COGS219_2020_02","Images/cow_2.png","65","2","1581204039185","match","cow","cow","label","test","true"
"null","","audio-keyboard-response","556","4519299","0.0-15.0-3.25","a","COGS219_2020_02","Sounds/correct.wav","null","2","","","","","","",""
"null","","audio-keyboard-response","557","4520308","0.0-15.0-0.26","a","COGS219_2020_02","Sounds/cow_sound.wav","null","2","","","","","","",""
"null","","html-keyboard-response","558","4521297","0.0-15.0-1.26","a","COGS219_2020_02","<p style=""font-size: 48px;"">+</p>","null","2","","","","","","",""
"500.38000004086643","","image-keyboard-response","559","4521798","0.0-15.0-2.26","a","COGS219_2020_02","Images/cow_1.png","65","2","1581204043851","match","cow","cow","sound","test","true"
"null","","audio-keyboard-response","560","4523816","0.0-15.0-3.26","a","COGS219_2020_02","Sounds/correct.wav","null","2","","","","","","",""
"null","","audio-keyboard-response","561","4524648","0.0-15.0-0.27","a","COGS219_2020_02","Sounds/cat_label.wav","null","2","","","","","","",""
"null","","html-keyboard-response","562","4525647","0.0-15.0-1.27","a","COGS219_2020_02","<p style=""font-size: 48px;"">+</p>","null","2","","","","","","",""
"629.8799999635667","","image-keyboard-response","563","4526278","0.0-15.0-2.27","a","COGS219_2020_02","Images/cat_3.png","65","2","1581204048201","match","cat","cat","label","test","true"
"null","","audio-keyboard-response","564","4528283","0.0-15.0-3.27","a","COGS219_2020_02","Sounds/correct.wav","null","2","","","","","","",""
"null","","audio-keyboard-response","565","4529128","0.0-15.0-0.28","a","COGS219_2020_02","Sounds/cat_sound.wav","null","2","","","","","","",""
"null","","html-keyboard-response","566","4530130","0.0-15.0-1.28","a","COGS219_2020_02","<p style=""font-size: 48px;"">+</p>","null","2","","","","","","",""
"506.6149999629706","","image-keyboard-response","567","4530638","0.0-15.0-2.28","a","COGS219_2020_02","Images/cat_1.png","65","2","1581204052685","match","cat","cat","sound","test","true"
"null","","audio-keyboard-response","568","4532649","0.0-15.0-3.28","a","COGS219_2020_02","Sounds/correct.wav","null","2","","","","","","",""
"null","","audio-keyboard-response","569","4533468","0.0-15.0-0.29","a","COGS219_2020_02","Sounds/cat_sound.wav","null","2","","","","","","",""
"null","","html-keyboard-response","570","4534464","0.0-15.0-1.29","a","COGS219_2020_02","<p style=""font-size: 48px;"">+</p>","null","2","","","","","","",""
"525.2149999728426","","image-keyboard-response","571","4534990","0.0-15.0-2.29","a","COGS219_2020_02","Images/cat_cartoon.png","65","2","1581204057018","match","cat","cat","sound","test","true"
"null","","audio-keyboard-response","572","4537000","0.0-15.0-3.29","a","COGS219_2020_02","Sounds/correct.wav","null","2","","","","","","",""
"null","","audio-keyboard-response","573","4537808","0.0-15.0-0.30","a","COGS219_2020_02","Sounds/cat_label.wav","null","2","","","","","","",""
"null","","html-keyboard-response","574","4538814","0.0-15.0-1.30","a","COGS219_2020_02","<p style=""font-size: 48px;"">+</p>","null","2","","","","","","",""
"470.76500003412366","","image-keyboard-response","575","4539286","0.0-15.0-2.30","a","COGS219_2020_02","Images/cat_2.png","65","2","1581204061368","match","cat","cat","label","test","true"
"null","","audio-keyboard-response","576","4541300","0.0-15.0-3.30","a","COGS219_2020_02","Sounds/correct.wav","null","2","","","","","","",""
"null","","audio-keyboard-response","577","4542010","0.0-15.0-0.31","a","COGS219_2020_02","Sounds/rooster_sound.wav","null","2","","","","","","",""
"null","","html-keyboard-response","578","4543016","0.0-15.0-1.31","a","COGS219_2020_02","<p style=""font-size: 48px;"">+</p>","null","2","","","","","","",""
"542.9149999981746","","image-keyboard-response","579","4543560","0.0-15.0-2.31","a","COGS219_2020_02","Images/frog_cartoon.png","76","2","1581204065570","non-match","frog","rooster","sound","test","true"
"null","","audio-keyboard-response","580","4545568","0.0-15.0-3.31","a","COGS219_2020_02","Sounds/correct.wav","null","2","","","","","","",""
"null","","audio-keyboard-response","581","4546230","0.0-15.0-0.32","a","COGS219_2020_02","Sounds/dog_label.wav","null","2","","","","","","",""
"null","","html-keyboard-response","582","4547232","0.0-15.0-1.32","a","COGS219_2020_02","<p style=""font-size: 48px;"">+</p>","null","2","","","","","","",""
"518.5049999859184","","image-keyboard-response","583","4547752","0.0-15.0-2.32","a","COGS219_2020_02","Images/cat_2.png","76","2","1581204069787","non-match","cat","dog","label","test","true"
"null","","audio-keyboard-response","584","4549768","0.0-15.0-3.32","a","COGS219_2020_02","Sounds/correct.wav","null","2","","","","","","",""
"null","","audio-keyboard-response","585","4550850","0.0-15.0-0.33","a","COGS219_2020_02","Sounds/car_label.wav","null","2","","","","","","",""
"null","","html-keyboard-response","586","4551849","0.0-15.0-1.33","a","COGS219_2020_02","<p style=""font-size: 48px;"">+</p>","null","2","","","","","","",""
"453.61500000581145","","image-keyboard-response","587","4552304","0.0-15.0-2.33","a","COGS219_2020_02","Images/car_3.png","65","2","1581204074403","match","car","car","label","test","true"
"null","","audio-keyboard-response","588","4554317","0.0-15.0-3.33","a","COGS219_2020_02","Sounds/correct.wav","null","2","","","","","","",""
"null","","audio-keyboard-response","589","4555610","0.0-15.0-0.34","a","COGS219_2020_02","Sounds/train_sound.wav","null","2","","","","","","",""
"null","","html-keyboard-response","590","4556616","0.0-15.0-1.34","a","COGS219_2020_02","<p style=""font-size: 48px;"">+</p>","null","2","","","","","","",""
"638.7150000082329","","image-keyboard-response","591","4557256","0.0-15.0-2.34","a","COGS219_2020_02","Images/whistle_2.png","76","2","1581204079170","non-match","whistle","train","sound","test","true"
"null","","audio-keyboard-response","592","4559272","0.0-15.0-3.34","a","COGS219_2020_02","Sounds/correct.wav","null","2","","","","","","",""
"null","","audio-keyboard-response","593","4559990","0.0-15.0-0.35","a","COGS219_2020_02","Sounds/dog_sound.wav","null","2","","","","","","",""
"null","","html-keyboard-response","594","4560999","0.0-15.0-1.35","a","COGS219_2020_02","<p style=""font-size: 48px;"">+</p>","null","2","","","","","","",""
"519.6799999689683","","image-keyboard-response","595","4561520","0.0-15.0-2.35","a","COGS219_2020_02","Images/dog_cartoon.png","65","2","1581204083553","match","dog","dog","sound","test","true"
"null","","audio-keyboard-response","596","4563534","0.0-15.0-3.35","a","COGS219_2020_02","Sounds/correct.wav","null","2","","","","","","",""
"null","","audio-keyboard-response","597","4564550","0.0-15.0-0.36","a","COGS219_2020_02","Sounds/cow_sound.wav","null","2","","","","","","",""
"null","","html-keyboard-response","598","4565549","0.0-15.0-1.36","a","COGS219_2020_02","<p style=""font-size: 48px;"">+</p>","null","2","","","","","","",""
"561.6400000285357","","image-keyboard-response","599","4566112","0.0-15.0-2.36","a","COGS219_2020_02","Images/rooster_cartoon.png","76","2","1581204088104","non-match","rooster","cow","sound","test","true"
"null","","audio-keyboard-response","600","4568119","0.0-15.0-3.36","a","COGS219_2020_02","Sounds/correct.wav","null","2","","","","","","",""
"null","","audio-keyboard-response","601","4568690","0.0-15.0-0.37","a","COGS219_2020_02","Sounds/gun_label.wav","null","2","","","","","","",""
"null","","html-keyboard-response","602","4569700","0.0-15.0-1.37","a","COGS219_2020_02","<p style=""font-size: 48px;"">+</p>","null","2","","","","","","",""
"483.24000003002584","","image-keyboard-response","603","4570184","0.0-15.0-2.37","a","COGS219_2020_02","Images/gun_2.png","65","2","1581204092254","match","gun","gun","label","test","true"
"null","","audio-keyboard-response","604","4572201","0.0-15.0-3.37","a","COGS219_2020_02","Sounds/correct.wav","null","2","","","","","","",""
