[{"rt":62231.47500003688,"responses":"{\"Q0\":\"COGS219_2020_36\"}","trial_type":"survey-text","trial_index":0,"time_elapsed":62261,"internal_node_id":"0.0-0.0","match_key":"l","participant_id":"COGS219_2020_36"},{"rt":53847.234999993816,"stimulus":"<p>Use KEYBOARD 1 (match RIGHT)</p><p>Press MATCH to continue.</p>","key_press":76,"trial_type":"html-keyboard-response","trial_index":1,"time_elapsed":116107,"internal_node_id":"0.0-1.0","match_key":"l","participant_id":"COGS219_2020_36"},{"rt":1898269.1499998327,"stimulus":"<p>Welcome to the experiment.</p>","key_press":32,"trial_type":"html-keyboard-response","trial_index":2,"time_elapsed":2014496,"internal_node_id":"0.0-2.0","match_key":"l","participant_id":"COGS219_2020_36"},{"rt":10985.675000119954,"stimulus":"<p>Thank you for agreeing to participate in this study.</p><p>If during any part of the procedure you must stop for any reason, please inform the researcher that you do not wish to continue.</p>","key_press":32,"trial_type":"html-keyboard-response","trial_index":3,"time_elapsed":2025487,"internal_node_id":"0.0-3.0","match_key":"l","participant_id":"COGS219_2020_36"},{"rt":18702.739999862388,"stimulus":"<p>In this experiment, you will hear various words or sounds and see pictures of various animals and objects.</p><p>Most of the images will be of common everyday objects, such as cars, cats, cows, firearms, frogs, chickens, whistles, trains, motorcycles, and dogs.</p><p>Some of the images will be real-life stills, while others will be cartoons.</p>","key_press":32,"trial_type":"html-keyboard-response","trial_index":4,"time_elapsed":2044191,"internal_node_id":"0.0-4.0","match_key":"l","participant_id":"COGS219_2020_36"},{"rt":14927.159999962896,"stimulus":"<p>Sometimes, the word/sound will match the picture, for example you'll hear a meowing sound and see a cat.</p><p>Other times, the picture will not match the sound or word.</p><p>Your task is to decide as quickly as possible if the word/sound matches the picture or not. </p>","key_press":32,"trial_type":"html-keyboard-response","trial_index":5,"time_elapsed":2059120,"internal_node_id":"0.0-5.0","match_key":"l","participant_id":"COGS219_2020_36"},{"rt":13758.515000110492,"stimulus":"<p>For example, if you hear the word \"cat\" or hear a meowing sound, and then see a picture of a cat, you should press the MATCH key.</p><p> If the sound and image do not match, press the NOT-MATCH key to indicate that there is not a match.</p>","key_press":32,"trial_type":"html-keyboard-response","trial_index":6,"time_elapsed":2072880,"internal_node_id":"0.0-6.0","match_key":"l","participant_id":"COGS219_2020_36"},{"rt":12062.720000045374,"stimulus":"<p>If you make a mistake, you will hear a buzzing sound instead of a more pleasant sound.</p><p> Try to respond as quickly as possible, while making as few errors as possible. If you are making mistakes, you are probably rushing.</p>","key_press":32,"trial_type":"html-keyboard-response","trial_index":7,"time_elapsed":2084944,"internal_node_id":"0.0-7.0","match_key":"l","participant_id":"COGS219_2020_36"},{"rt":11342.740000225604,"stimulus":"<p>Please try to not move or blink your eyes during the presentation of the images. You can move and blink between images.</p><p>During the experiment there will be some breaks during which you can rest your eyes.</p>","key_press":32,"trial_type":"html-keyboard-response","trial_index":8,"time_elapsed":2096288,"internal_node_id":"0.0-8.0","match_key":"l","participant_id":"COGS219_2020_36"},{"rt":9182.539999950677,"stimulus":"<p>We will begin with 10 practice trials. Please let the experimenter know if you have any questions.</p>","key_press":32,"trial_type":"html-keyboard-response","trial_index":9,"time_elapsed":2105472,"internal_node_id":"0.0-9.0","match_key":"l","participant_id":"COGS219_2020_36"},{"rt":null,"stimulus":"Sounds/cat_label.wav","key_press":null,"block":0,"trial_type":"audio-keyboard-response","trial_index":10,"time_elapsed":2106391,"internal_node_id":"0.0-10.0-0.0","match_key":"l","participant_id":"COGS219_2020_36"},{"rt":null,"stimulus":"<p style=\"font-size: 48px;\">+</p>","key_press":null,"block":0,"trial_type":"html-keyboard-response","trial_index":11,"time_elapsed":2107391,"internal_node_id":"0.0-10.0-1.0","match_key":"l","participant_id":"COGS219_2020_36"},{"rt":2799.0099999587983,"stimulus":"Images/cat_1.png","key_press":76,"stim_onset":1583102611314,"block":0,"match_type":"match","image_category":"cat","sound_category":"cat","audio_type":"label","phase":"practice","trial_type":"image-keyboard-response","trial_index":12,"time_elapsed":2110192,"internal_node_id":"0.0-10.0-2.0","match_key":"l","participant_id":"COGS219_2020_36","correct":true},{"rt":null,"stimulus":"Sounds/correct.wav","key_press":null,"block":0,"trial_type":"audio-keyboard-response","trial_index":13,"time_elapsed":2112200,"internal_node_id":"0.0-10.0-3.0","match_key":"l","participant_id":"COGS219_2020_36"},{"rt":null,"stimulus":"Sounds/frog_label.wav","key_press":null,"block":0,"trial_type":"audio-keyboard-response","trial_index":14,"time_elapsed":2113111,"internal_node_id":"0.0-10.0-0.1","match_key":"l","participant_id":"COGS219_2020_36"},{"rt":null,"stimulus":"<p style=\"font-size: 48px;\">+</p>","key_press":null,"block":0,"trial_type":"html-keyboard-response","trial_index":15,"time_elapsed":2114107,"internal_node_id":"0.0-10.0-1.1","match_key":"l","participant_id":"COGS219_2020_36"},{"rt":1746.925000101328,"stimulus":"Images/rooster_orig.png","key_press":65,"stim_onset":1583102618031,"block":0,"match_type":"non-match","image_category":"rooster","sound_category":"frog","audio_type":"label","phase":"practice","trial_type":"image-keyboard-response","trial_index":16,"time_elapsed":2115856,"internal_node_id":"0.0-10.0-2.1","match_key":"l","participant_id":"COGS219_2020_36","correct":true},{"rt":null,"stimulus":"Sounds/correct.wav","key_press":null,"block":0,"trial_type":"audio-keyboard-response","trial_index":17,"time_elapsed":2117865,"internal_node_id":"0.0-10.0-3.1","match_key":"l","participant_id":"COGS219_2020_36"},{"rt":null,"stimulus":"Sounds/whistle_sound.wav","key_press":null,"block":0,"trial_type":"audio-keyboard-response","trial_index":18,"time_elapsed":2118571,"internal_node_id":"0.0-10.0-0.2","match_key":"l","participant_id":"COGS219_2020_36"},{"rt":null,"stimulus":"<p style=\"font-size: 48px;\">+</p>","key_press":null,"block":0,"trial_type":"html-keyboard-response","trial_index":19,"time_elapsed":2119576,"internal_node_id":"0.0-10.0-1.2","match_key":"l","participant_id":"COGS219_2020_36"},{"rt":2040.2499998454005,"stimulus":"Images/whistle_2.png","key_press":76,"stim_onset":1583102623499,"block":0,"match_type":"match","image_category":"whistle","sound_category":"whistle","audio_type":"sound","phase":"practice","trial_type":"image-keyboard-response","trial_index":20,"time_elapsed":2121617,"internal_node_id":"0.0-10.0-2.2","match_key":"l","participant_id":"COGS219_2020_36","correct":true},{"rt":null,"stimulus":"Sounds/correct.wav","key_press":null,"block":0,"trial_type":"audio-keyboard-response","trial_index":21,"time_elapsed":2123634,"internal_node_id":"0.0-10.0-3.2","match_key":"l","participant_id":"COGS219_2020_36"},{"rt":null,"stimulus":"Sounds/car_sound.wav","key_press":null,"block":0,"trial_type":"audio-keyboard-response","trial_index":22,"time_elapsed":2124712,"internal_node_id":"0.0-10.0-0.3","match_key":"l","participant_id":"COGS219_2020_36"},{"rt":null,"stimulus":"<p style=\"font-size: 48px;\">+</p>","key_press":null,"block":0,"trial_type":"html-keyboard-response","trial_index":23,"time_elapsed":2125709,"internal_node_id":"0.0-10.0-1.3","match_key":"l","participant_id":"COGS219_2020_36"},{"rt":4674.809999996796,"stimulus":"Images/train_orig.png","key_press":76,"stim_onset":1583102629632,"block":0,"match_type":"non-match","image_category":"train","sound_category":"car","audio_type":"sound","phase":"practice","trial_type":"image-keyboard-response","trial_index":24,"time_elapsed":2130385,"internal_node_id":"0.0-10.0-2.3","match_key":"l","participant_id":"COGS219_2020_36","correct":false},{"rt":null,"stimulus":"Sounds/incorrect.wav","key_press":null,"block":0,"trial_type":"audio-keyboard-response","trial_index":25,"time_elapsed":2132401,"internal_node_id":"0.0-10.0-3.3","match_key":"l","participant_id":"COGS219_2020_36"},{"rt":null,"stimulus":"Sounds/cow_sound.wav","key_press":null,"block":0,"trial_type":"audio-keyboard-response","trial_index":26,"time_elapsed":2133412,"internal_node_id":"0.0-10.0-0.4","match_key":"l","participant_id":"COGS219_2020_36"},{"rt":null,"stimulus":"<p style=\"font-size: 48px;\">+</p>","key_press":null,"block":0,"trial_type":"html-keyboard-response","trial_index":27,"time_elapsed":2134409,"internal_node_id":"0.0-10.0-1.4","match_key":"l","participant_id":"COGS219_2020_36"},{"rt":1735.3900000452995,"stimulus":"Images/whistle_1.png","key_press":65,"stim_onset":1583102638332,"block":0,"match_type":"non-match","image_category":"whistle","sound_category":"cow","audio_type":"sound","phase":"practice","trial_type":"image-keyboard-response","trial_index":28,"time_elapsed":2136146,"internal_node_id":"0.0-10.0-2.4","match_key":"l","participant_id":"COGS219_2020_36","correct":true},{"rt":null,"stimulus":"Sounds/correct.wav","key_press":null,"block":0,"trial_type":"audio-keyboard-response","trial_index":29,"time_elapsed":2138152,"internal_node_id":"0.0-10.0-3.4","match_key":"l","participant_id":"COGS219_2020_36"},{"rt":null,"stimulus":"Sounds/cat_label.wav","key_press":null,"block":0,"trial_type":"audio-keyboard-response","trial_index":30,"time_elapsed":2138992,"internal_node_id":"0.0-10.0-0.5","match_key":"l","participant_id":"COGS219_2020_36"},{"rt":null,"stimulus":"<p style=\"font-size: 48px;\">+</p>","key_press":null,"block":0,"trial_type":"html-keyboard-response","trial_index":31,"time_elapsed":2139992,"internal_node_id":"0.0-10.0-1.5","match_key":"l","participant_id":"COGS219_2020_36"},{"rt":2135.3799998760223,"stimulus":"Images/motorcycle_2.png","key_press":65,"stim_onset":1583102643916,"block":0,"match_type":"non-match","image_category":"motorcycle","sound_category":"cat","audio_type":"label","phase":"practice","trial_type":"image-keyboard-response","trial_index":32,"time_elapsed":2142129,"internal_node_id":"0.0-10.0-2.5","match_key":"l","participant_id":"COGS219_2020_36","correct":true},{"rt":null,"stimulus":"Sounds/correct.wav","key_press":null,"block":0,"trial_type":"audio-keyboard-response","trial_index":33,"time_elapsed":2144135,"internal_node_id":"0.0-10.0-3.5","match_key":"l","participant_id":"COGS219_2020_36"},{"rt":null,"stimulus":"Sounds/motorcycle_sound.wav","key_press":null,"block":0,"trial_type":"audio-keyboard-response","trial_index":34,"time_elapsed":2145252,"internal_node_id":"0.0-10.0-0.6","match_key":"l","participant_id":"COGS219_2020_36"},{"rt":null,"stimulus":"<p style=\"font-size: 48px;\">+</p>","key_press":null,"block":0,"trial_type":"html-keyboard-response","trial_index":35,"time_elapsed":2146243,"internal_node_id":"0.0-10.0-1.6","match_key":"l","participant_id":"COGS219_2020_36"},{"rt":3629.3750000186265,"stimulus":"Images/train_2.png","key_press":76,"stim_onset":1583102650166,"block":0,"match_type":"non-match","image_category":"train","sound_category":"motorcycle","audio_type":"sound","phase":"practice","trial_type":"image-keyboard-response","trial_index":36,"time_elapsed":2149873,"internal_node_id":"0.0-10.0-2.6","match_key":"l","participant_id":"COGS219_2020_36","correct":false},{"rt":null,"stimulus":"Sounds/incorrect.wav","key_press":null,"block":0,"trial_type":"audio-keyboard-response","trial_index":37,"time_elapsed":2151882,"internal_node_id":"0.0-10.0-3.6","match_key":"l","participant_id":"COGS219_2020_36"},{"rt":null,"stimulus":"Sounds/dog_label.wav","key_press":null,"block":0,"trial_type":"audio-keyboard-response","trial_index":38,"time_elapsed":2152552,"internal_node_id":"0.0-10.0-0.7","match_key":"l","participant_id":"COGS219_2020_36"},{"rt":null,"stimulus":"<p style=\"font-size: 48px;\">+</p>","key_press":null,"block":0,"trial_type":"html-keyboard-response","trial_index":39,"time_elapsed":2153543,"internal_node_id":"0.0-10.0-1.7","match_key":"l","participant_id":"COGS219_2020_36"},{"rt":2089.0699999872595,"stimulus":"Images/dog_1.png","key_press":76,"stim_onset":1583102657466,"block":0,"match_type":"match","image_category":"dog","sound_category":"dog","audio_type":"label","phase":"practice","trial_type":"image-keyboard-response","trial_index":40,"time_elapsed":2155633,"internal_node_id":"0.0-10.0-2.7","match_key":"l","participant_id":"COGS219_2020_36","correct":true},{"rt":null,"stimulus":"Sounds/correct.wav","key_press":null,"block":0,"trial_type":"audio-keyboard-response","trial_index":41,"time_elapsed":2157649,"internal_node_id":"0.0-10.0-3.7","match_key":"l","participant_id":"COGS219_2020_36"},{"rt":null,"stimulus":"Sounds/cat_label.wav","key_press":null,"block":0,"trial_type":"audio-keyboard-response","trial_index":42,"time_elapsed":2158472,"internal_node_id":"0.0-10.0-0.8","match_key":"l","participant_id":"COGS219_2020_36"},{"rt":null,"stimulus":"<p style=\"font-size: 48px;\">+</p>","key_press":null,"block":0,"trial_type":"html-keyboard-response","trial_index":43,"time_elapsed":2159476,"internal_node_id":"0.0-10.0-1.8","match_key":"l","participant_id":"COGS219_2020_36"},{"rt":1707.7399999834597,"stimulus":"Images/whistle_cartoon.png","key_press":65,"stim_onset":1583102663399,"block":0,"match_type":"non-match","image_category":"whistle","sound_category":"cat","audio_type":"label","phase":"practice","trial_type":"image-keyboard-response","trial_index":44,"time_elapsed":2161185,"internal_node_id":"0.0-10.0-2.8","match_key":"l","participant_id":"COGS219_2020_36","correct":true},{"rt":null,"stimulus":"Sounds/correct.wav","key_press":null,"block":0,"trial_type":"audio-keyboard-response","trial_index":45,"time_elapsed":2163195,"internal_node_id":"0.0-10.0-3.8","match_key":"l","participant_id":"COGS219_2020_36"},{"rt":null,"stimulus":"Sounds/dog_label.wav","key_press":null,"block":0,"trial_type":"audio-keyboard-response","trial_index":46,"time_elapsed":2163832,"internal_node_id":"0.0-10.0-0.9","match_key":"l","participant_id":"COGS219_2020_36"},{"rt":null,"stimulus":"<p style=\"font-size: 48px;\">+</p>","key_press":null,"block":0,"trial_type":"html-keyboard-response","trial_index":47,"time_elapsed":2164826,"internal_node_id":"0.0-10.0-1.9","match_key":"l","participant_id":"COGS219_2020_36"},{"rt":1653.6550000309944,"stimulus":"Images/dog_cartoon.png","key_press":76,"stim_onset":1583102668749,"block":0,"match_type":"match","image_category":"dog","sound_category":"dog","audio_type":"label","phase":"practice","trial_type":"image-keyboard-response","trial_index":48,"time_elapsed":2166481,"internal_node_id":"0.0-10.0-2.9","match_key":"l","participant_id":"COGS219_2020_36","correct":true},{"rt":null,"stimulus":"Sounds/correct.wav","key_press":null,"block":0,"trial_type":"audio-keyboard-response","trial_index":49,"time_elapsed":2168485,"internal_node_id":"0.0-10.0-3.9","match_key":"l","participant_id":"COGS219_2020_36"},{"rt":26635.784999933094,"stimulus":"<p>The rest of the experiment is divided into five blocks with 100 trials in each block. It will take about 45 minutes to complete.</p><p>The experimenter will be in the outer room and you can communicate with them through the monitor if you have any questions or wish to stop the experiment.</p>","key_press":32,"trial_type":"html-keyboard-response","trial_index":50,"time_elapsed":2195122,"internal_node_id":"0.0-11.0","match_key":"l","participant_id":"COGS219_2020_36"},{"rt":22878.625000128523,"stimulus":"<p>Remember, please try not to move or blink your eyes during the presentation of the images. </p><p>At the end of the experiment, we will show you your scores on the task so you can see how you did.</p><p>The experiment will start on the next screen.</p>","key_press":32,"trial_type":"html-keyboard-response","trial_index":51,"time_elapsed":2218002,"internal_node_id":"0.0-12.0","match_key":"l","participant_id":"COGS219_2020_36"},{"rt":null,"stimulus":"Sounds/cow_sound.wav","key_press":null,"block":1,"trial_type":"audio-keyboard-response","trial_index":52,"time_elapsed":2221049,"internal_node_id":"0.0-13.0-0.0","match_key":"l","participant_id":"COGS219_2020_36"},{"rt":null,"stimulus":"<p style=\"font-size: 48px;\">+</p>","key_press":null,"block":1,"trial_type":"html-keyboard-response","trial_index":53,"time_elapsed":2222044,"internal_node_id":"0.0-13.0-1.0","match_key":"l","participant_id":"COGS219_2020_36"},{"rt":2372.4249999504536,"stimulus":"Images/rooster_cartoon.png","key_press":65,"stim_onset":1583102725967,"block":1,"match_type":"non-match","image_category":"rooster","sound_category":"cow","audio_type":"sound","phase":"test","trial_type":"image-keyboard-response","trial_index":54,"time_elapsed":2224418,"internal_node_id":"0.0-13.0-2.0","match_key":"l","participant_id":"COGS219_2020_36","correct":true},{"rt":null,"stimulus":"Sounds/correct.wav","key_press":null,"block":1,"trial_type":"audio-keyboard-response","trial_index":55,"time_elapsed":2226433,"internal_node_id":"0.0-13.0-3.0","match_key":"l","participant_id":"COGS219_2020_36"},{"rt":null,"stimulus":"Sounds/gun_sound.wav","key_press":null,"block":1,"trial_type":"audio-keyboard-response","trial_index":56,"time_elapsed":2227009,"internal_node_id":"0.0-13.0-0.1","match_key":"l","participant_id":"COGS219_2020_36"},{"rt":null,"stimulus":"<p style=\"font-size: 48px;\">+</p>","key_press":null,"block":1,"trial_type":"html-keyboard-response","trial_index":57,"time_elapsed":2228011,"internal_node_id":"0.0-13.0-1.1","match_key":"l","participant_id":"COGS219_2020_36"},{"rt":1685.6800001114607,"stimulus":"Images/gun_orig.png","key_press":76,"stim_onset":1583102731934,"block":1,"match_type":"match","image_category":"gun","sound_category":"gun","audio_type":"sound","phase":"test","trial_type":"image-keyboard-response","trial_index":58,"time_elapsed":2229698,"internal_node_id":"0.0-13.0-2.1","match_key":"l","participant_id":"COGS219_2020_36","correct":true},{"rt":null,"stimulus":"Sounds/correct.wav","key_press":null,"block":1,"trial_type":"audio-keyboard-response","trial_index":59,"time_elapsed":2231702,"internal_node_id":"0.0-13.0-3.1","match_key":"l","participant_id":"COGS219_2020_36"},{"rt":null,"stimulus":"Sounds/gun_label.wav","key_press":null,"block":1,"trial_type":"audio-keyboard-response","trial_index":60,"time_elapsed":2232288,"internal_node_id":"0.0-13.0-0.2","match_key":"l","participant_id":"COGS219_2020_36"},{"rt":null,"stimulus":"<p style=\"font-size: 48px;\">+</p>","key_press":null,"block":1,"trial_type":"html-keyboard-response","trial_index":61,"time_elapsed":2233294,"internal_node_id":"0.0-13.0-1.2","match_key":"l","participant_id":"COGS219_2020_36"},{"rt":1986.2200000789016,"stimulus":"Images/whistle_1.png","key_press":65,"stim_onset":1583102737218,"block":1,"match_type":"non-match","image_category":"whistle","sound_category":"gun","audio_type":"label","phase":"test","trial_type":"image-keyboard-response","trial_index":62,"time_elapsed":2235282,"internal_node_id":"0.0-13.0-2.2","match_key":"l","participant_id":"COGS219_2020_36","correct":true},{"rt":null,"stimulus":"Sounds/correct.wav","key_press":null,"block":1,"trial_type":"audio-keyboard-response","trial_index":63,"time_elapsed":2237286,"internal_node_id":"0.0-13.0-3.2","match_key":"l","participant_id":"COGS219_2020_36"},{"rt":null,"stimulus":"Sounds/rooster_sound.wav","key_press":null,"block":1,"trial_type":"audio-keyboard-response","trial_index":64,"time_elapsed":2237988,"internal_node_id":"0.0-13.0-0.3","match_key":"l","participant_id":"COGS219_2020_36"},{"rt":null,"stimulus":"<p style=\"font-size: 48px;\">+</p>","key_press":null,"block":1,"trial_type":"html-keyboard-response","trial_index":65,"time_elapsed":2238977,"internal_node_id":"0.0-13.0-1.3","match_key":"l","participant_id":"COGS219_2020_36"},{"rt":1294.7450000792742,"stimulus":"Images/rooster_cartoon.png","key_press":76,"stim_onset":1583102742901,"block":1,"match_type":"match","image_category":"rooster","sound_category":"rooster","audio_type":"sound","phase":"test","trial_type":"image-keyboard-response","trial_index":66,"time_elapsed":2240274,"internal_node_id":"0.0-13.0-2.3","match_key":"l","participant_id":"COGS219_2020_36","correct":true},{"rt":null,"stimulus":"Sounds/correct.wav","key_press":null,"block":1,"trial_type":"audio-keyboard-response","trial_index":67,"time_elapsed":2242288,"internal_node_id":"0.0-13.0-3.3","match_key":"l","participant_id":"COGS219_2020_36"},{"rt":null,"stimulus":"Sounds/rooster_label.wav","key_press":null,"block":1,"trial_type":"audio-keyboard-response","trial_index":68,"time_elapsed":2242988,"internal_node_id":"0.0-13.0-0.4","match_key":"l","participant_id":"COGS219_2020_36"},{"rt":null,"stimulus":"<p style=\"font-size: 48px;\">+</p>","key_press":null,"block":1,"trial_type":"html-keyboard-response","trial_index":69,"time_elapsed":2243994,"internal_node_id":"0.0-13.0-1.4","match_key":"l","participant_id":"COGS219_2020_36"},{"rt":1478.5250001586974,"stimulus":"Images/rooster_2.png","key_press":76,"stim_onset":1583102747917,"block":1,"match_type":"match","image_category":"rooster","sound_category":"rooster","audio_type":"label","phase":"test","trial_type":"image-keyboard-response","trial_index":70,"time_elapsed":2245474,"internal_node_id":"0.0-13.0-2.4","match_key":"l","participant_id":"COGS219_2020_36","correct":true},{"rt":null,"stimulus":"Sounds/correct.wav","key_press":null,"block":1,"trial_type":"audio-keyboard-response","trial_index":71,"time_elapsed":2247484,"internal_node_id":"0.0-13.0-3.4","match_key":"l","participant_id":"COGS219_2020_36"},{"rt":null,"stimulus":"Sounds/dog_sound.wav","key_press":null,"block":1,"trial_type":"audio-keyboard-response","trial_index":72,"time_elapsed":2248189,"internal_node_id":"0.0-13.0-0.5","match_key":"l","participant_id":"COGS219_2020_36"},{"rt":null,"stimulus":"<p style=\"font-size: 48px;\">+</p>","key_press":null,"block":1,"trial_type":"html-keyboard-response","trial_index":73,"time_elapsed":2249178,"internal_node_id":"0.0-13.0-1.5","match_key":"l","participant_id":"COGS219_2020_36"},{"rt":1447.0049999654293,"stimulus":"Images/dog_3.png","key_press":76,"stim_onset":1583102753102,"block":1,"match_type":"match","image_category":"dog","sound_category":"dog","audio_type":"sound","phase":"test","trial_type":"image-keyboard-response","trial_index":74,"time_elapsed":2250627,"internal_node_id":"0.0-13.0-2.5","match_key":"l","participant_id":"COGS219_2020_36","correct":true},{"rt":null,"stimulus":"Sounds/correct.wav","key_press":null,"block":1,"trial_type":"audio-keyboard-response","trial_index":75,"time_elapsed":2252638,"internal_node_id":"0.0-13.0-3.5","match_key":"l","participant_id":"COGS219_2020_36"},{"rt":null,"stimulus":"Sounds/cat_label.wav","key_press":null,"block":1,"trial_type":"audio-keyboard-response","trial_index":76,"time_elapsed":2253469,"internal_node_id":"0.0-13.0-0.6","match_key":"l","participant_id":"COGS219_2020_36"},{"rt":null,"stimulus":"<p style=\"font-size: 48px;\">+</p>","key_press":null,"block":1,"trial_type":"html-keyboard-response","trial_index":77,"time_elapsed":2254462,"internal_node_id":"0.0-13.0-1.6","match_key":"l","participant_id":"COGS219_2020_36"},{"rt":1251.5100000891834,"stimulus":"Images/dog_1.png","key_press":65,"stim_onset":1583102758385,"block":1,"match_type":"non-match","image_category":"dog","sound_category":"cat","audio_type":"label","phase":"test","trial_type":"image-keyboard-response","trial_index":78,"time_elapsed":2255714,"internal_node_id":"0.0-13.0-2.6","match_key":"l","participant_id":"COGS219_2020_36","correct":true},{"rt":null,"stimulus":"Sounds/correct.wav","key_press":null,"block":1,"trial_type":"audio-keyboard-response","trial_index":79,"time_elapsed":2257719,"internal_node_id":"0.0-13.0-3.6","match_key":"l","participant_id":"COGS219_2020_36"},{"rt":null,"stimulus":"Sounds/whistle_sound.wav","key_press":null,"block":1,"trial_type":"audio-keyboard-response","trial_index":80,"time_elapsed":2258430,"internal_node_id":"0.0-13.0-0.7","match_key":"l","participant_id":"COGS219_2020_36"},{"rt":null,"stimulus":"<p style=\"font-size: 48px;\">+</p>","key_press":null,"block":1,"trial_type":"html-keyboard-response","trial_index":81,"time_elapsed":2259429,"internal_node_id":"0.0-13.0-1.7","match_key":"l","participant_id":"COGS219_2020_36"},{"rt":1469.0400001127273,"stimulus":"Images/whistle_2.png","key_press":76,"stim_onset":1583102763352,"block":1,"match_type":"match","image_category":"whistle","sound_category":"whistle","audio_type":"sound","phase":"test","trial_type":"image-keyboard-response","trial_index":82,"time_elapsed":2260899,"internal_node_id":"0.0-13.0-2.7","match_key":"l","participant_id":"COGS219_2020_36","correct":true},{"rt":null,"stimulus":"Sounds/correct.wav","key_press":null,"block":1,"trial_type":"audio-keyboard-response","trial_index":83,"time_elapsed":2262905,"internal_node_id":"0.0-13.0-3.7","match_key":"l","participant_id":"COGS219_2020_36"},{"rt":null,"stimulus":"Sounds/motorcycle_label.wav","key_press":null,"block":1,"trial_type":"audio-keyboard-response","trial_index":84,"time_elapsed":2264049,"internal_node_id":"0.0-13.0-0.8","match_key":"l","participant_id":"COGS219_2020_36"},{"rt":null,"stimulus":"<p style=\"font-size: 48px;\">+</p>","key_press":null,"block":1,"trial_type":"html-keyboard-response","trial_index":85,"time_elapsed":2265045,"internal_node_id":"0.0-13.0-1.8","match_key":"l","participant_id":"COGS219_2020_36"},{"rt":1260.054999962449,"stimulus":"Images/motorcycle_3.png","key_press":76,"stim_onset":1583102768968,"block":1,"match_type":"match","image_category":"motorcycle","sound_category":"motorcycle","audio_type":"label","phase":"test","trial_type":"image-keyboard-response","trial_index":86,"time_elapsed":2266306,"internal_node_id":"0.0-13.0-2.8","match_key":"l","participant_id":"COGS219_2020_36","correct":true},{"rt":null,"stimulus":"Sounds/correct.wav","key_press":null,"block":1,"trial_type":"audio-keyboard-response","trial_index":87,"time_elapsed":2268318,"internal_node_id":"0.0-13.0-3.8","match_key":"l","participant_id":"COGS219_2020_36"},{"rt":null,"stimulus":"Sounds/rooster_label.wav","key_press":null,"block":1,"trial_type":"audio-keyboard-response","trial_index":88,"time_elapsed":2269009,"internal_node_id":"0.0-13.0-0.9","match_key":"l","participant_id":"COGS219_2020_36"},{"rt":null,"stimulus":"<p style=\"font-size: 48px;\">+</p>","key_press":null,"block":1,"trial_type":"html-keyboard-response","trial_index":89,"time_elapsed":2270012,"internal_node_id":"0.0-13.0-1.9","match_key":"l","participant_id":"COGS219_2020_36"},{"rt":1621.5349999256432,"stimulus":"Images/car_orig.png","key_press":65,"stim_onset":1583102773935,"block":1,"match_type":"non-match","image_category":"car","sound_category":"rooster","audio_type":"label","phase":"test","trial_type":"image-keyboard-response","trial_index":90,"time_elapsed":2271635,"internal_node_id":"0.0-13.0-2.9","match_key":"l","participant_id":"COGS219_2020_36","correct":true},{"rt":null,"stimulus":"Sounds/correct.wav","key_press":null,"block":1,"trial_type":"audio-keyboard-response","trial_index":91,"time_elapsed":2273637,"internal_node_id":"0.0-13.0-3.9","match_key":"l","participant_id":"COGS219_2020_36"},{"rt":null,"stimulus":"Sounds/cow_sound.wav","key_press":null,"block":1,"trial_type":"audio-keyboard-response","trial_index":92,"time_elapsed":2274669,"internal_node_id":"0.0-13.0-0.10","match_key":"l","participant_id":"COGS219_2020_36"},{"rt":null,"stimulus":"<p style=\"font-size: 48px;\">+</p>","key_press":null,"block":1,"trial_type":"html-keyboard-response","trial_index":93,"time_elapsed":2275662,"internal_node_id":"0.0-13.0-1.10","match_key":"l","participant_id":"COGS219_2020_36"},{"rt":1491.3850000593811,"stimulus":"Images/dog_orig.png","key_press":65,"stim_onset":1583102779585,"block":1,"match_type":"non-match","image_category":"dog","sound_category":"cow","audio_type":"sound","phase":"test","trial_type":"image-keyboard-response","trial_index":94,"time_elapsed":2277154,"internal_node_id":"0.0-13.0-2.10","match_key":"l","participant_id":"COGS219_2020_36","correct":true},{"rt":null,"stimulus":"Sounds/correct.wav","key_press":null,"block":1,"trial_type":"audio-keyboard-response","trial_index":95,"time_elapsed":2279171,"internal_node_id":"0.0-13.0-3.10","match_key":"l","participant_id":"COGS219_2020_36"},{"rt":null,"stimulus":"Sounds/gun_label.wav","key_press":null,"block":1,"trial_type":"audio-keyboard-response","trial_index":96,"time_elapsed":2279749,"internal_node_id":"0.0-13.0-0.11","match_key":"l","participant_id":"COGS219_2020_36"},{"rt":null,"stimulus":"<p style=\"font-size: 48px;\">+</p>","key_press":null,"block":1,"trial_type":"html-keyboard-response","trial_index":97,"time_elapsed":2280745,"internal_node_id":"0.0-13.0-1.11","match_key":"l","participant_id":"COGS219_2020_36"},{"rt":1160.3099999483675,"stimulus":"Images/dog_3.png","key_press":65,"stim_onset":1583102784669,"block":1,"match_type":"non-match","image_category":"dog","sound_category":"gun","audio_type":"label","phase":"test","trial_type":"image-keyboard-response","trial_index":98,"time_elapsed":2281907,"internal_node_id":"0.0-13.0-2.11","match_key":"l","participant_id":"COGS219_2020_36","correct":true},{"rt":null,"stimulus":"Sounds/correct.wav","key_press":null,"block":1,"trial_type":"audio-keyboard-response","trial_index":99,"time_elapsed":2283915,"internal_node_id":"0.0-13.0-3.11","match_key":"l","participant_id":"COGS219_2020_36"},{"rt":null,"stimulus":"Sounds/train_label.wav","key_press":null,"block":1,"trial_type":"audio-keyboard-response","trial_index":100,"time_elapsed":2285189,"internal_node_id":"0.0-13.0-0.12","match_key":"l","participant_id":"COGS219_2020_36"},{"rt":null,"stimulus":"<p style=\"font-size: 48px;\">+</p>","key_press":null,"block":1,"trial_type":"html-keyboard-response","trial_index":101,"time_elapsed":2286196,"internal_node_id":"0.0-13.0-1.12","match_key":"l","participant_id":"COGS219_2020_36"},{"rt":1645.6249998882413,"stimulus":"Images/train_3.png","key_press":76,"stim_onset":1583102790119,"block":1,"match_type":"match","image_category":"train","sound_category":"train","audio_type":"label","phase":"test","trial_type":"image-keyboard-response","trial_index":102,"time_elapsed":2287843,"internal_node_id":"0.0-13.0-2.12","match_key":"l","participant_id":"COGS219_2020_36","correct":true},{"rt":null,"stimulus":"Sounds/correct.wav","key_press":null,"block":1,"trial_type":"audio-keyboard-response","trial_index":103,"time_elapsed":2289853,"internal_node_id":"0.0-13.0-3.12","match_key":"l","participant_id":"COGS219_2020_36"},{"rt":null,"stimulus":"Sounds/rooster_label.wav","key_press":null,"block":1,"trial_type":"audio-keyboard-response","trial_index":104,"time_elapsed":2290549,"internal_node_id":"0.0-13.0-0.13","match_key":"l","participant_id":"COGS219_2020_36"},{"rt":null,"stimulus":"<p style=\"font-size: 48px;\">+</p>","key_press":null,"block":1,"trial_type":"html-keyboard-response","trial_index":105,"time_elapsed":2291546,"internal_node_id":"0.0-13.0-1.13","match_key":"l","participant_id":"COGS219_2020_36"},{"rt":1240.0350000243634,"stimulus":"Images/gun_orig.png","key_press":65,"stim_onset":1583102795469,"block":1,"match_type":"non-match","image_category":"gun","sound_category":"rooster","audio_type":"label","phase":"test","trial_type":"image-keyboard-response","trial_index":106,"time_elapsed":2292787,"internal_node_id":"0.0-13.0-2.13","match_key":"l","participant_id":"COGS219_2020_36","correct":true},{"rt":null,"stimulus":"Sounds/correct.wav","key_press":null,"block":1,"trial_type":"audio-keyboard-response","trial_index":107,"time_elapsed":2294790,"internal_node_id":"0.0-13.0-3.13","match_key":"l","participant_id":"COGS219_2020_36"},{"rt":null,"stimulus":"Sounds/motorcycle_label.wav","key_press":null,"block":1,"trial_type":"audio-keyboard-response","trial_index":108,"time_elapsed":2295929,"internal_node_id":"0.0-13.0-0.14","match_key":"l","participant_id":"COGS219_2020_36"},{"rt":null,"stimulus":"<p style=\"font-size: 48px;\">+</p>","key_press":null,"block":1,"trial_type":"html-keyboard-response","trial_index":109,"time_elapsed":2296929,"internal_node_id":"0.0-13.0-1.14","match_key":"l","participant_id":"COGS219_2020_36"},{"rt":1200.3099999856204,"stimulus":"Images/cat_1.png","key_press":65,"stim_onset":1583102800852,"block":1,"match_type":"non-match","image_category":"cat","sound_category":"motorcycle","audio_type":"label","phase":"test","trial_type":"image-keyboard-response","trial_index":110,"time_elapsed":2298130,"internal_node_id":"0.0-13.0-2.14","match_key":"l","participant_id":"COGS219_2020_36","correct":true},{"rt":null,"stimulus":"Sounds/correct.wav","key_press":null,"block":1,"trial_type":"audio-keyboard-response","trial_index":111,"time_elapsed":2300137,"internal_node_id":"0.0-13.0-3.14","match_key":"l","participant_id":"COGS219_2020_36"},{"rt":null,"stimulus":"Sounds/whistle_label.wav","key_press":null,"block":1,"trial_type":"audio-keyboard-response","trial_index":112,"time_elapsed":2300829,"internal_node_id":"0.0-13.0-0.15","match_key":"l","participant_id":"COGS219_2020_36"},{"rt":null,"stimulus":"<p style=\"font-size: 48px;\">+</p>","key_press":null,"block":1,"trial_type":"html-keyboard-response","trial_index":113,"time_elapsed":2301829,"internal_node_id":"0.0-13.0-1.15","match_key":"l","participant_id":"COGS219_2020_36"},{"rt":1244.715000037104,"stimulus":"Images/whistle_orig.png","key_press":76,"stim_onset":1583102805752,"block":1,"match_type":"match","image_category":"whistle","sound_category":"whistle","audio_type":"label","phase":"test","trial_type":"image-keyboard-response","trial_index":114,"time_elapsed":2303074,"internal_node_id":"0.0-13.0-2.15","match_key":"l","participant_id":"COGS219_2020_36","correct":true},{"rt":null,"stimulus":"Sounds/correct.wav","key_press":null,"block":1,"trial_type":"audio-keyboard-response","trial_index":115,"time_elapsed":2305087,"internal_node_id":"0.0-13.0-3.15","match_key":"l","participant_id":"COGS219_2020_36"},{"rt":null,"stimulus":"Sounds/motorcycle_label.wav","key_press":null,"block":1,"trial_type":"audio-keyboard-response","trial_index":116,"time_elapsed":2306189,"internal_node_id":"0.0-13.0-0.16","match_key":"l","participant_id":"COGS219_2020_36"},{"rt":null,"stimulus":"<p style=\"font-size: 48px;\">+</p>","key_press":null,"block":1,"trial_type":"html-keyboard-response","trial_index":117,"time_elapsed":2307179,"internal_node_id":"0.0-13.0-1.16","match_key":"l","participant_id":"COGS219_2020_36"},{"rt":1222.70999988541,"stimulus":"Images/frog_3.png","key_press":65,"stim_onset":1583102811102,"block":1,"match_type":"non-match","image_category":"frog","sound_category":"motorcycle","audio_type":"label","phase":"test","trial_type":"image-keyboard-response","trial_index":118,"time_elapsed":2308403,"internal_node_id":"0.0-13.0-2.16","match_key":"l","participant_id":"COGS219_2020_36","correct":true},{"rt":null,"stimulus":"Sounds/correct.wav","key_press":null,"block":1,"trial_type":"audio-keyboard-response","trial_index":119,"time_elapsed":2310420,"internal_node_id":"0.0-13.0-3.16","match_key":"l","participant_id":"COGS219_2020_36"},{"rt":null,"stimulus":"Sounds/dog_sound.wav","key_press":null,"block":1,"trial_type":"audio-keyboard-response","trial_index":120,"time_elapsed":2311130,"internal_node_id":"0.0-13.0-0.17","match_key":"l","participant_id":"COGS219_2020_36"},{"rt":null,"stimulus":"<p style=\"font-size: 48px;\">+</p>","key_press":null,"block":1,"trial_type":"html-keyboard-response","trial_index":121,"time_elapsed":2312130,"internal_node_id":"0.0-13.0-1.17","match_key":"l","participant_id":"COGS219_2020_36"},{"rt":992.6849999465048,"stimulus":"Images/dog_2.png","key_press":76,"stim_onset":1583102816053,"block":1,"match_type":"match","image_category":"dog","sound_category":"dog","audio_type":"sound","phase":"test","trial_type":"image-keyboard-response","trial_index":122,"time_elapsed":2313123,"internal_node_id":"0.0-13.0-2.17","match_key":"l","participant_id":"COGS219_2020_36","correct":true},{"rt":null,"stimulus":"Sounds/correct.wav","key_press":null,"block":1,"trial_type":"audio-keyboard-response","trial_index":123,"time_elapsed":2315133,"internal_node_id":"0.0-13.0-3.17","match_key":"l","participant_id":"COGS219_2020_36"},{"rt":null,"stimulus":"Sounds/cat_label.wav","key_press":null,"block":1,"trial_type":"audio-keyboard-response","trial_index":124,"time_elapsed":2315970,"internal_node_id":"0.0-13.0-0.18","match_key":"l","participant_id":"COGS219_2020_36"},{"rt":null,"stimulus":"<p style=\"font-size: 48px;\">+</p>","key_press":null,"block":1,"trial_type":"html-keyboard-response","trial_index":125,"time_elapsed":2316963,"internal_node_id":"0.0-13.0-1.18","match_key":"l","participant_id":"COGS219_2020_36"},{"rt":1102.9700001236051,"stimulus":"Images/cat_cartoon.png","key_press":76,"stim_onset":1583102820887,"block":1,"match_type":"match","image_category":"cat","sound_category":"cat","audio_type":"label","phase":"test","trial_type":"image-keyboard-response","trial_index":126,"time_elapsed":2318067,"internal_node_id":"0.0-13.0-2.18","match_key":"l","participant_id":"COGS219_2020_36","correct":true},{"rt":null,"stimulus":"Sounds/correct.wav","key_press":null,"block":1,"trial_type":"audio-keyboard-response","trial_index":127,"time_elapsed":2320084,"internal_node_id":"0.0-13.0-3.18","match_key":"l","participant_id":"COGS219_2020_36"},{"rt":null,"stimulus":"Sounds/car_label.wav","key_press":null,"block":1,"trial_type":"audio-keyboard-response","trial_index":128,"time_elapsed":2321170,"internal_node_id":"0.0-13.0-0.19","match_key":"l","participant_id":"COGS219_2020_36"},{"rt":null,"stimulus":"<p style=\"font-size: 48px;\">+</p>","key_press":null,"block":1,"trial_type":"html-keyboard-response","trial_index":129,"time_elapsed":2322163,"internal_node_id":"0.0-13.0-1.19","match_key":"l","participant_id":"COGS219_2020_36"},{"rt":1199.3299999739975,"stimulus":"Images/whistle_orig.png","key_press":65,"stim_onset":1583102826086,"block":1,"match_type":"non-match","image_category":"whistle","sound_category":"car","audio_type":"label","phase":"test","trial_type":"image-keyboard-response","trial_index":130,"time_elapsed":2323364,"internal_node_id":"0.0-13.0-2.19","match_key":"l","participant_id":"COGS219_2020_36","correct":true},{"rt":null,"stimulus":"Sounds/correct.wav","key_press":null,"block":1,"trial_type":"audio-keyboard-response","trial_index":131,"time_elapsed":2325369,"internal_node_id":"0.0-13.0-3.19","match_key":"l","participant_id":"COGS219_2020_36"},{"rt":null,"stimulus":"Sounds/train_label.wav","key_press":null,"block":1,"trial_type":"audio-keyboard-response","trial_index":132,"time_elapsed":2326650,"internal_node_id":"0.0-13.0-0.20","match_key":"l","participant_id":"COGS219_2020_36"},{"rt":null,"stimulus":"<p style=\"font-size: 48px;\">+</p>","key_press":null,"block":1,"trial_type":"html-keyboard-response","trial_index":133,"time_elapsed":2327647,"internal_node_id":"0.0-13.0-1.20","match_key":"l","participant_id":"COGS219_2020_36"},{"rt":1091.4349998347461,"stimulus":"Images/train_orig.png","key_press":76,"stim_onset":1583102831570,"block":1,"match_type":"match","image_category":"train","sound_category":"train","audio_type":"label","phase":"test","trial_type":"image-keyboard-response","trial_index":134,"time_elapsed":2328739,"internal_node_id":"0.0-13.0-2.20","match_key":"l","participant_id":"COGS219_2020_36","correct":true},{"rt":null,"stimulus":"Sounds/correct.wav","key_press":null,"block":1,"trial_type":"audio-keyboard-response","trial_index":135,"time_elapsed":2330750,"internal_node_id":"0.0-13.0-3.20","match_key":"l","participant_id":"COGS219_2020_36"},{"rt":null,"stimulus":"Sounds/frog_label.wav","key_press":null,"block":1,"trial_type":"audio-keyboard-response","trial_index":136,"time_elapsed":2331650,"internal_node_id":"0.0-13.0-0.21","match_key":"l","participant_id":"COGS219_2020_36"},{"rt":null,"stimulus":"<p style=\"font-size: 48px;\">+</p>","key_press":null,"block":1,"trial_type":"html-keyboard-response","trial_index":137,"time_elapsed":2332647,"internal_node_id":"0.0-13.0-1.21","match_key":"l","participant_id":"COGS219_2020_36"},{"rt":1083.6300000082701,"stimulus":"Images/cow_cartoon.png","key_press":65,"stim_onset":1583102836570,"block":1,"match_type":"non-match","image_category":"cow","sound_category":"frog","audio_type":"label","phase":"test","trial_type":"image-keyboard-response","trial_index":138,"time_elapsed":2333731,"internal_node_id":"0.0-13.0-2.21","match_key":"l","participant_id":"COGS219_2020_36","correct":true},{"rt":null,"stimulus":"Sounds/correct.wav","key_press":null,"block":1,"trial_type":"audio-keyboard-response","trial_index":139,"time_elapsed":2335736,"internal_node_id":"0.0-13.0-3.21","match_key":"l","participant_id":"COGS219_2020_36"},{"rt":null,"stimulus":"Sounds/motorcycle_label.wav","key_press":null,"block":1,"trial_type":"audio-keyboard-response","trial_index":140,"time_elapsed":2336870,"internal_node_id":"0.0-13.0-0.22","match_key":"l","participant_id":"COGS219_2020_36"},{"rt":null,"stimulus":"<p style=\"font-size: 48px;\">+</p>","key_press":null,"block":1,"trial_type":"html-keyboard-response","trial_index":141,"time_elapsed":2337863,"internal_node_id":"0.0-13.0-1.22","match_key":"l","participant_id":"COGS219_2020_36"},{"rt":1802.7250000741333,"stimulus":"Images/whistle_3.png","key_press":65,"stim_onset":1583102841787,"block":1,"match_type":"non-match","image_category":"whistle","sound_category":"motorcycle","audio_type":"label","phase":"test","trial_type":"image-keyboard-response","trial_index":142,"time_elapsed":2339667,"internal_node_id":"0.0-13.0-2.22","match_key":"l","participant_id":"COGS219_2020_36","correct":true},{"rt":null,"stimulus":"Sounds/correct.wav","key_press":null,"block":1,"trial_type":"audio-keyboard-response","trial_index":143,"time_elapsed":2341670,"internal_node_id":"0.0-13.0-3.22","match_key":"l","participant_id":"COGS219_2020_36"},{"rt":null,"stimulus":"Sounds/cat_sound.wav","key_press":null,"block":1,"trial_type":"audio-keyboard-response","trial_index":144,"time_elapsed":2342510,"internal_node_id":"0.0-13.0-0.23","match_key":"l","participant_id":"COGS219_2020_36"},{"rt":null,"stimulus":"<p style=\"font-size: 48px;\">+</p>","key_press":null,"block":1,"trial_type":"html-keyboard-response","trial_index":145,"time_elapsed":2343514,"internal_node_id":"0.0-13.0-1.23","match_key":"l","participant_id":"COGS219_2020_36"},{"rt":1176.865000044927,"stimulus":"Images/cat_orig.png","key_press":76,"stim_onset":1583102847437,"block":1,"match_type":"match","image_category":"cat","sound_category":"cat","audio_type":"sound","phase":"test","trial_type":"image-keyboard-response","trial_index":146,"time_elapsed":2344692,"internal_node_id":"0.0-13.0-2.23","match_key":"l","participant_id":"COGS219_2020_36","correct":true},{"rt":null,"stimulus":"Sounds/correct.wav","key_press":null,"block":1,"trial_type":"audio-keyboard-response","trial_index":147,"time_elapsed":2346701,"internal_node_id":"0.0-13.0-3.23","match_key":"l","participant_id":"COGS219_2020_36"},{"rt":null,"stimulus":"Sounds/rooster_label.wav","key_press":null,"block":1,"trial_type":"audio-keyboard-response","trial_index":148,"time_elapsed":2347390,"internal_node_id":"0.0-13.0-0.24","match_key":"l","participant_id":"COGS219_2020_36"},{"rt":null,"stimulus":"<p style=\"font-size: 48px;\">+</p>","key_press":null,"block":1,"trial_type":"html-keyboard-response","trial_index":149,"time_elapsed":2348380,"internal_node_id":"0.0-13.0-1.24","match_key":"l","participant_id":"COGS219_2020_36"},{"rt":1589.8899999447167,"stimulus":"Images/rooster_3.png","key_press":76,"stim_onset":1583102852304,"block":1,"match_type":"match","image_category":"rooster","sound_category":"rooster","audio_type":"label","phase":"test","trial_type":"image-keyboard-response","trial_index":150,"time_elapsed":2349971,"internal_node_id":"0.0-13.0-2.24","match_key":"l","participant_id":"COGS219_2020_36","correct":true},{"rt":null,"stimulus":"Sounds/correct.wav","key_press":null,"block":1,"trial_type":"audio-keyboard-response","trial_index":151,"time_elapsed":2351987,"internal_node_id":"0.0-13.0-3.24","match_key":"l","participant_id":"COGS219_2020_36"},{"rt":null,"stimulus":"Sounds/dog_sound.wav","key_press":null,"block":1,"trial_type":"audio-keyboard-response","trial_index":152,"time_elapsed":2352690,"internal_node_id":"0.0-13.0-0.25","match_key":"l","participant_id":"COGS219_2020_36"},{"rt":null,"stimulus":"<p style=\"font-size: 48px;\">+</p>","key_press":null,"block":1,"trial_type":"html-keyboard-response","trial_index":153,"time_elapsed":2353680,"internal_node_id":"0.0-13.0-1.25","match_key":"l","participant_id":"COGS219_2020_36"},{"rt":1281.9850000087172,"stimulus":"Images/cow_orig.png","key_press":65,"stim_onset":1583102857604,"block":1,"match_type":"non-match","image_category":"cow","sound_category":"dog","audio_type":"sound","phase":"test","trial_type":"image-keyboard-response","trial_index":154,"time_elapsed":2354963,"internal_node_id":"0.0-13.0-2.25","match_key":"l","participant_id":"COGS219_2020_36","correct":true},{"rt":null,"stimulus":"Sounds/correct.wav","key_press":null,"block":1,"trial_type":"audio-keyboard-response","trial_index":155,"time_elapsed":2356972,"internal_node_id":"0.0-13.0-3.25","match_key":"l","participant_id":"COGS219_2020_36"},{"rt":null,"stimulus":"Sounds/cat_sound.wav","key_press":null,"block":1,"trial_type":"audio-keyboard-response","trial_index":156,"time_elapsed":2357790,"internal_node_id":"0.0-13.0-0.26","match_key":"l","participant_id":"COGS219_2020_36"},{"rt":null,"stimulus":"<p style=\"font-size: 48px;\">+</p>","key_press":null,"block":1,"trial_type":"html-keyboard-response","trial_index":157,"time_elapsed":2358780,"internal_node_id":"0.0-13.0-1.26","match_key":"l","participant_id":"COGS219_2020_36"},{"rt":1061.805000063032,"stimulus":"Images/frog_2.png","key_press":65,"stim_onset":1583102862704,"block":1,"match_type":"non-match","image_category":"frog","sound_category":"cat","audio_type":"sound","phase":"test","trial_type":"image-keyboard-response","trial_index":158,"time_elapsed":2359843,"internal_node_id":"0.0-13.0-2.26","match_key":"l","participant_id":"COGS219_2020_36","correct":true},{"rt":null,"stimulus":"Sounds/correct.wav","key_press":null,"block":1,"trial_type":"audio-keyboard-response","trial_index":159,"time_elapsed":2361853,"internal_node_id":"0.0-13.0-3.26","match_key":"l","participant_id":"COGS219_2020_36"},{"rt":null,"stimulus":"Sounds/frog_label.wav","key_press":null,"block":1,"trial_type":"audio-keyboard-response","trial_index":160,"time_elapsed":2362750,"internal_node_id":"0.0-13.0-0.27","match_key":"l","participant_id":"COGS219_2020_36"},{"rt":null,"stimulus":"<p style=\"font-size: 48px;\">+</p>","key_press":null,"block":1,"trial_type":"html-keyboard-response","trial_index":161,"time_elapsed":2363747,"internal_node_id":"0.0-13.0-1.27","match_key":"l","participant_id":"COGS219_2020_36"},{"rt":1263.3449998684227,"stimulus":"Images/rooster_1.png","key_press":65,"stim_onset":1583102867670,"block":1,"match_type":"non-match","image_category":"rooster","sound_category":"frog","audio_type":"label","phase":"test","trial_type":"image-keyboard-response","trial_index":162,"time_elapsed":2365011,"internal_node_id":"0.0-13.0-2.27","match_key":"l","participant_id":"COGS219_2020_36","correct":true},{"rt":null,"stimulus":"Sounds/correct.wav","key_press":null,"block":1,"trial_type":"audio-keyboard-response","trial_index":163,"time_elapsed":2367020,"internal_node_id":"0.0-13.0-3.27","match_key":"l","participant_id":"COGS219_2020_36"},{"rt":null,"stimulus":"Sounds/cat_label.wav","key_press":null,"block":1,"trial_type":"audio-keyboard-response","trial_index":164,"time_elapsed":2367850,"internal_node_id":"0.0-13.0-0.28","match_key":"l","participant_id":"COGS219_2020_36"},{"rt":null,"stimulus":"<p style=\"font-size: 48px;\">+</p>","key_press":null,"block":1,"trial_type":"html-keyboard-response","trial_index":165,"time_elapsed":2368848,"internal_node_id":"0.0-13.0-1.28","match_key":"l","participant_id":"COGS219_2020_36"},{"rt":915.1200000196695,"stimulus":"Images/car_cartoon.png","key_press":65,"stim_onset":1583102872771,"block":1,"match_type":"non-match","image_category":"car","sound_category":"cat","audio_type":"label","phase":"test","trial_type":"image-keyboard-response","trial_index":166,"time_elapsed":2369764,"internal_node_id":"0.0-13.0-2.28","match_key":"l","participant_id":"COGS219_2020_36","correct":true},{"rt":null,"stimulus":"Sounds/correct.wav","key_press":null,"block":1,"trial_type":"audio-keyboard-response","trial_index":167,"time_elapsed":2371770,"internal_node_id":"0.0-13.0-3.28","match_key":"l","participant_id":"COGS219_2020_36"},{"rt":null,"stimulus":"Sounds/rooster_sound.wav","key_press":null,"block":1,"trial_type":"audio-keyboard-response","trial_index":168,"time_elapsed":2372471,"internal_node_id":"0.0-13.0-0.29","match_key":"l","participant_id":"COGS219_2020_36"},{"rt":null,"stimulus":"<p style=\"font-size: 48px;\">+</p>","key_press":null,"block":1,"trial_type":"html-keyboard-response","trial_index":169,"time_elapsed":2373465,"internal_node_id":"0.0-13.0-1.29","match_key":"l","participant_id":"COGS219_2020_36"},{"rt":1034.4000000040978,"stimulus":"Images/motorcycle_1.png","key_press":65,"stim_onset":1583102877388,"block":1,"match_type":"non-match","image_category":"motorcycle","sound_category":"rooster","audio_type":"sound","phase":"test","trial_type":"image-keyboard-response","trial_index":170,"time_elapsed":2374500,"internal_node_id":"0.0-13.0-2.29","match_key":"l","participant_id":"COGS219_2020_36","correct":true},{"rt":null,"stimulus":"Sounds/correct.wav","key_press":null,"block":1,"trial_type":"audio-keyboard-response","trial_index":171,"time_elapsed":2376503,"internal_node_id":"0.0-13.0-3.29","match_key":"l","participant_id":"COGS219_2020_36"},{"rt":null,"stimulus":"Sounds/cow_label.wav","key_press":null,"block":1,"trial_type":"audio-keyboard-response","trial_index":172,"time_elapsed":2377531,"internal_node_id":"0.0-13.0-0.30","match_key":"l","participant_id":"COGS219_2020_36"},{"rt":null,"stimulus":"<p style=\"font-size: 48px;\">+</p>","key_press":null,"block":1,"trial_type":"html-keyboard-response","trial_index":173,"time_elapsed":2378531,"internal_node_id":"0.0-13.0-1.30","match_key":"l","participant_id":"COGS219_2020_36"},{"rt":1983.8700001128018,"stimulus":"Images/cow_3.png","key_press":65,"stim_onset":1583102882455,"block":1,"match_type":"match","image_category":"cow","sound_category":"cow","audio_type":"label","phase":"test","trial_type":"image-keyboard-response","trial_index":174,"time_elapsed":2380516,"internal_node_id":"0.0-13.0-2.30","match_key":"l","participant_id":"COGS219_2020_36","correct":false},{"rt":null,"stimulus":"Sounds/incorrect.wav","key_press":null,"block":1,"trial_type":"audio-keyboard-response","trial_index":175,"time_elapsed":2382523,"internal_node_id":"0.0-13.0-3.30","match_key":"l","participant_id":"COGS219_2020_36"},{"rt":null,"stimulus":"Sounds/frog_label.wav","key_press":null,"block":1,"trial_type":"audio-keyboard-response","trial_index":176,"time_elapsed":2383411,"internal_node_id":"0.0-13.0-0.31","match_key":"l","participant_id":"COGS219_2020_36"},{"rt":null,"stimulus":"<p style=\"font-size: 48px;\">+</p>","key_press":null,"block":1,"trial_type":"html-keyboard-response","trial_index":177,"time_elapsed":2384415,"internal_node_id":"0.0-13.0-1.31","match_key":"l","participant_id":"COGS219_2020_36"},{"rt":1204.1549999266863,"stimulus":"Images/frog_orig.png","key_press":76,"stim_onset":1583102888338,"block":1,"match_type":"match","image_category":"frog","sound_category":"frog","audio_type":"label","phase":"test","trial_type":"image-keyboard-response","trial_index":178,"time_elapsed":2385620,"internal_node_id":"0.0-13.0-2.31","match_key":"l","participant_id":"COGS219_2020_36","correct":true},{"rt":null,"stimulus":"Sounds/correct.wav","key_press":null,"block":1,"trial_type":"audio-keyboard-response","trial_index":179,"time_elapsed":2387624,"internal_node_id":"0.0-13.0-3.31","match_key":"l","participant_id":"COGS219_2020_36"},{"rt":null,"stimulus":"Sounds/gun_sound.wav","key_press":null,"block":1,"trial_type":"audio-keyboard-response","trial_index":180,"time_elapsed":2388211,"internal_node_id":"0.0-13.0-0.32","match_key":"l","participant_id":"COGS219_2020_36"},{"rt":null,"stimulus":"<p style=\"font-size: 48px;\">+</p>","key_press":null,"block":1,"trial_type":"html-keyboard-response","trial_index":181,"time_elapsed":2389215,"internal_node_id":"0.0-13.0-1.32","match_key":"l","participant_id":"COGS219_2020_36"},{"rt":1508.159999968484,"stimulus":"Images/gun_1.png","key_press":76,"stim_onset":1583102893138,"block":1,"match_type":"match","image_category":"gun","sound_category":"gun","audio_type":"sound","phase":"test","trial_type":"image-keyboard-response","trial_index":182,"time_elapsed":2390724,"internal_node_id":"0.0-13.0-2.32","match_key":"l","participant_id":"COGS219_2020_36","correct":true},{"rt":null,"stimulus":"Sounds/correct.wav","key_press":null,"block":1,"trial_type":"audio-keyboard-response","trial_index":183,"time_elapsed":2392739,"internal_node_id":"0.0-13.0-3.32","match_key":"l","participant_id":"COGS219_2020_36"},{"rt":null,"stimulus":"Sounds/gun_sound.wav","key_press":null,"block":1,"trial_type":"audio-keyboard-response","trial_index":184,"time_elapsed":2393291,"internal_node_id":"0.0-13.0-0.33","match_key":"l","participant_id":"COGS219_2020_36"},{"rt":null,"stimulus":"<p style=\"font-size: 48px;\">+</p>","key_press":null,"block":1,"trial_type":"html-keyboard-response","trial_index":185,"time_elapsed":2394282,"internal_node_id":"0.0-13.0-1.33","match_key":"l","participant_id":"COGS219_2020_36"},{"rt":1177.5400000624359,"stimulus":"Images/motorcycle_3.png","key_press":65,"stim_onset":1583102898205,"block":1,"match_type":"non-match","image_category":"motorcycle","sound_category":"gun","audio_type":"sound","phase":"test","trial_type":"image-keyboard-response","trial_index":186,"time_elapsed":2395460,"internal_node_id":"0.0-13.0-2.33","match_key":"l","participant_id":"COGS219_2020_36","correct":true},{"rt":null,"stimulus":"Sounds/correct.wav","key_press":null,"block":1,"trial_type":"audio-keyboard-response","trial_index":187,"time_elapsed":2397468,"internal_node_id":"0.0-13.0-3.33","match_key":"l","participant_id":"COGS219_2020_36"},{"rt":null,"stimulus":"Sounds/train_label.wav","key_press":null,"block":1,"trial_type":"audio-keyboard-response","trial_index":188,"time_elapsed":2398751,"internal_node_id":"0.0-13.0-0.34","match_key":"l","participant_id":"COGS219_2020_36"},{"rt":null,"stimulus":"<p style=\"font-size: 48px;\">+</p>","key_press":null,"block":1,"trial_type":"html-keyboard-response","trial_index":189,"time_elapsed":2399748,"internal_node_id":"0.0-13.0-1.34","match_key":"l","participant_id":"COGS219_2020_36"},{"rt":1134.9049999844283,"stimulus":"Images/train_2.png","key_press":76,"stim_onset":1583102903672,"block":1,"match_type":"match","image_category":"train","sound_category":"train","audio_type":"label","phase":"test","trial_type":"image-keyboard-response","trial_index":190,"time_elapsed":2400884,"internal_node_id":"0.0-13.0-2.34","match_key":"l","participant_id":"COGS219_2020_36","correct":true},{"rt":null,"stimulus":"Sounds/correct.wav","key_press":null,"block":1,"trial_type":"audio-keyboard-response","trial_index":191,"time_elapsed":2402888,"internal_node_id":"0.0-13.0-3.34","match_key":"l","participant_id":"COGS219_2020_36"},{"rt":null,"stimulus":"Sounds/dog_sound.wav","key_press":null,"block":1,"trial_type":"audio-keyboard-response","trial_index":192,"time_elapsed":2403591,"internal_node_id":"0.0-13.0-0.35","match_key":"l","participant_id":"COGS219_2020_36"},{"rt":null,"stimulus":"<p style=\"font-size: 48px;\">+</p>","key_press":null,"block":1,"trial_type":"html-keyboard-response","trial_index":193,"time_elapsed":2404582,"internal_node_id":"0.0-13.0-1.35","match_key":"l","participant_id":"COGS219_2020_36"},{"rt":1469.3550001829863,"stimulus":"Images/train_1.png","key_press":65,"stim_onset":1583102908505,"block":1,"match_type":"non-match","image_category":"train","sound_category":"dog","audio_type":"sound","phase":"test","trial_type":"image-keyboard-response","trial_index":194,"time_elapsed":2406052,"internal_node_id":"0.0-13.0-2.35","match_key":"l","participant_id":"COGS219_2020_36","correct":true},{"rt":null,"stimulus":"Sounds/correct.wav","key_press":null,"block":1,"trial_type":"audio-keyboard-response","trial_index":195,"time_elapsed":2408059,"internal_node_id":"0.0-13.0-3.35","match_key":"l","participant_id":"COGS219_2020_36"},{"rt":null,"stimulus":"Sounds/rooster_label.wav","key_press":null,"block":1,"trial_type":"audio-keyboard-response","trial_index":196,"time_elapsed":2408751,"internal_node_id":"0.0-13.0-0.36","match_key":"l","participant_id":"COGS219_2020_36"},{"rt":null,"stimulus":"<p style=\"font-size: 48px;\">+</p>","key_press":null,"block":1,"trial_type":"html-keyboard-response","trial_index":197,"time_elapsed":2409748,"internal_node_id":"0.0-13.0-1.36","match_key":"l","participant_id":"COGS219_2020_36"},{"rt":1054.5799999963492,"stimulus":"Images/rooster_orig.png","key_press":76,"stim_onset":1583102913672,"block":1,"match_type":"match","image_category":"rooster","sound_category":"rooster","audio_type":"label","phase":"test","trial_type":"image-keyboard-response","trial_index":198,"time_elapsed":2410804,"internal_node_id":"0.0-13.0-2.36","match_key":"l","participant_id":"COGS219_2020_36","correct":true},{"rt":null,"stimulus":"Sounds/correct.wav","key_press":null,"block":1,"trial_type":"audio-keyboard-response","trial_index":199,"time_elapsed":2412819,"internal_node_id":"0.0-13.0-3.36","match_key":"l","participant_id":"COGS219_2020_36"},{"rt":null,"stimulus":"Sounds/dog_sound.wav","key_press":null,"block":1,"trial_type":"audio-keyboard-response","trial_index":200,"time_elapsed":2413511,"internal_node_id":"0.0-13.0-0.37","match_key":"l","participant_id":"COGS219_2020_36"},{"rt":null,"stimulus":"<p style=\"font-size: 48px;\">+</p>","key_press":null,"block":1,"trial_type":"html-keyboard-response","trial_index":201,"time_elapsed":2414515,"internal_node_id":"0.0-13.0-1.37","match_key":"l","participant_id":"COGS219_2020_36"},{"rt":1136.1349998041987,"stimulus":"Images/dog_1.png","key_press":76,"stim_onset":1583102918438,"block":1,"match_type":"match","image_category":"dog","sound_category":"dog","audio_type":"sound","phase":"test","trial_type":"image-keyboard-response","trial_index":202,"time_elapsed":2415652,"internal_node_id":"0.0-13.0-2.37","match_key":"l","participant_id":"COGS219_2020_36","correct":true},{"rt":null,"stimulus":"Sounds/correct.wav","key_press":null,"block":1,"trial_type":"audio-keyboard-response","trial_index":203,"time_elapsed":2417669,"internal_node_id":"0.0-13.0-3.37","match_key":"l","participant_id":"COGS219_2020_36"},{"rt":null,"stimulus":"Sounds/whistle_label.wav","key_press":null,"block":1,"trial_type":"audio-keyboard-response","trial_index":204,"time_elapsed":2418371,"internal_node_id":"0.0-13.0-0.38","match_key":"l","participant_id":"COGS219_2020_36"},{"rt":null,"stimulus":"<p style=\"font-size: 48px;\">+</p>","key_press":null,"block":1,"trial_type":"html-keyboard-response","trial_index":205,"time_elapsed":2419365,"internal_node_id":"0.0-13.0-1.38","match_key":"l","participant_id":"COGS219_2020_36"},{"rt":813.8049999251962,"stimulus":"Images/whistle_1.png","key_press":76,"stim_onset":1583102923288,"block":1,"match_type":"match","image_category":"whistle","sound_category":"whistle","audio_type":"label","phase":"test","trial_type":"image-keyboard-response","trial_index":206,"time_elapsed":2420180,"internal_node_id":"0.0-13.0-2.38","match_key":"l","participant_id":"COGS219_2020_36","correct":true},{"rt":null,"stimulus":"Sounds/correct.wav","key_press":null,"block":1,"trial_type":"audio-keyboard-response","trial_index":207,"time_elapsed":2422188,"internal_node_id":"0.0-13.0-3.38","match_key":"l","participant_id":"COGS219_2020_36"},{"rt":null,"stimulus":"Sounds/cow_sound.wav","key_press":null,"block":1,"trial_type":"audio-keyboard-response","trial_index":208,"time_elapsed":2423211,"internal_node_id":"0.0-13.0-0.39","match_key":"l","participant_id":"COGS219_2020_36"},{"rt":null,"stimulus":"<p style=\"font-size: 48px;\">+</p>","key_press":null,"block":1,"trial_type":"html-keyboard-response","trial_index":209,"time_elapsed":2424215,"internal_node_id":"0.0-13.0-1.39","match_key":"l","participant_id":"COGS219_2020_36"},{"rt":971.9249999616295,"stimulus":"Images/train_cartoon.png","key_press":65,"stim_onset":1583102928139,"block":1,"match_type":"non-match","image_category":"train","sound_category":"cow","audio_type":"sound","phase":"test","trial_type":"image-keyboard-response","trial_index":210,"time_elapsed":2425188,"internal_node_id":"0.0-13.0-2.39","match_key":"l","participant_id":"COGS219_2020_36","correct":true},{"rt":null,"stimulus":"Sounds/correct.wav","key_press":null,"block":1,"trial_type":"audio-keyboard-response","trial_index":211,"time_elapsed":2427204,"internal_node_id":"0.0-13.0-3.39","match_key":"l","participant_id":"COGS219_2020_36"},{"rt":null,"stimulus":"Sounds/frog_sound.wav","key_press":null,"block":1,"trial_type":"audio-keyboard-response","trial_index":212,"time_elapsed":2428111,"internal_node_id":"0.0-13.0-0.40","match_key":"l","participant_id":"COGS219_2020_36"},{"rt":null,"stimulus":"<p style=\"font-size: 48px;\">+</p>","key_press":null,"block":1,"trial_type":"html-keyboard-response","trial_index":213,"time_elapsed":2429116,"internal_node_id":"0.0-13.0-1.40","match_key":"l","participant_id":"COGS219_2020_36"},{"rt":1015.8849998842925,"stimulus":"Images/frog_3.png","key_press":76,"stim_onset":1583102933040,"block":1,"match_type":"match","image_category":"frog","sound_category":"frog","audio_type":"sound","phase":"test","trial_type":"image-keyboard-response","trial_index":214,"time_elapsed":2430133,"internal_node_id":"0.0-13.0-2.40","match_key":"l","participant_id":"COGS219_2020_36","correct":true},{"rt":null,"stimulus":"Sounds/correct.wav","key_press":null,"block":1,"trial_type":"audio-keyboard-response","trial_index":215,"time_elapsed":2432139,"internal_node_id":"0.0-13.0-3.40","match_key":"l","participant_id":"COGS219_2020_36"},{"rt":null,"stimulus":"Sounds/frog_sound.wav","key_press":null,"block":1,"trial_type":"audio-keyboard-response","trial_index":216,"time_elapsed":2433032,"internal_node_id":"0.0-13.0-0.41","match_key":"l","participant_id":"COGS219_2020_36"},{"rt":null,"stimulus":"<p style=\"font-size: 48px;\">+</p>","key_press":null,"block":1,"trial_type":"html-keyboard-response","trial_index":217,"time_elapsed":2434050,"internal_node_id":"0.0-13.0-1.41","match_key":"l","participant_id":"COGS219_2020_36"},{"rt":978.3999999053776,"stimulus":"Images/frog_cartoon.png","key_press":76,"stim_onset":1583102937973,"block":1,"match_type":"match","image_category":"frog","sound_category":"frog","audio_type":"sound","phase":"test","trial_type":"image-keyboard-response","trial_index":218,"time_elapsed":2435029,"internal_node_id":"0.0-13.0-2.41","match_key":"l","participant_id":"COGS219_2020_36","correct":true},{"rt":null,"stimulus":"Sounds/correct.wav","key_press":null,"block":1,"trial_type":"audio-keyboard-response","trial_index":219,"time_elapsed":2437038,"internal_node_id":"0.0-13.0-3.41","match_key":"l","participant_id":"COGS219_2020_36"},{"rt":null,"stimulus":"Sounds/motorcycle_label.wav","key_press":null,"block":1,"trial_type":"audio-keyboard-response","trial_index":220,"time_elapsed":2438172,"internal_node_id":"0.0-13.0-0.42","match_key":"l","participant_id":"COGS219_2020_36"},{"rt":null,"stimulus":"<p style=\"font-size: 48px;\">+</p>","key_press":null,"block":1,"trial_type":"html-keyboard-response","trial_index":221,"time_elapsed":2439166,"internal_node_id":"0.0-13.0-1.42","match_key":"l","participant_id":"COGS219_2020_36"},{"rt":1205.7499999646097,"stimulus":"Images/cow_3.png","key_press":65,"stim_onset":1583102943090,"block":1,"match_type":"non-match","image_category":"cow","sound_category":"motorcycle","audio_type":"label","phase":"test","trial_type":"image-keyboard-response","trial_index":222,"time_elapsed":2440373,"internal_node_id":"0.0-13.0-2.42","match_key":"l","participant_id":"COGS219_2020_36","correct":true},{"rt":null,"stimulus":"Sounds/correct.wav","key_press":null,"block":1,"trial_type":"audio-keyboard-response","trial_index":223,"time_elapsed":2442391,"internal_node_id":"0.0-13.0-3.42","match_key":"l","participant_id":"COGS219_2020_36"},{"rt":null,"stimulus":"Sounds/motorcycle_sound.wav","key_press":null,"block":1,"trial_type":"audio-keyboard-response","trial_index":224,"time_elapsed":2443512,"internal_node_id":"0.0-13.0-0.43","match_key":"l","participant_id":"COGS219_2020_36"},{"rt":null,"stimulus":"<p style=\"font-size: 48px;\">+</p>","key_press":null,"block":1,"trial_type":"html-keyboard-response","trial_index":225,"time_elapsed":2444516,"internal_node_id":"0.0-13.0-1.43","match_key":"l","participant_id":"COGS219_2020_36"},{"rt":1023.5399999655783,"stimulus":"Images/motorcycle_orig.png","key_press":76,"stim_onset":1583102948440,"block":1,"match_type":"match","image_category":"motorcycle","sound_category":"motorcycle","audio_type":"sound","phase":"test","trial_type":"image-keyboard-response","trial_index":226,"time_elapsed":2445541,"internal_node_id":"0.0-13.0-2.43","match_key":"l","participant_id":"COGS219_2020_36","correct":true},{"rt":null,"stimulus":"Sounds/correct.wav","key_press":null,"block":1,"trial_type":"audio-keyboard-response","trial_index":227,"time_elapsed":2447553,"internal_node_id":"0.0-13.0-3.43","match_key":"l","participant_id":"COGS219_2020_36"},{"rt":null,"stimulus":"Sounds/cat_sound.wav","key_press":null,"block":1,"trial_type":"audio-keyboard-response","trial_index":228,"time_elapsed":2448392,"internal_node_id":"0.0-13.0-0.44","match_key":"l","participant_id":"COGS219_2020_36"},{"rt":null,"stimulus":"<p style=\"font-size: 48px;\">+</p>","key_press":null,"block":1,"trial_type":"html-keyboard-response","trial_index":229,"time_elapsed":2449383,"internal_node_id":"0.0-13.0-1.44","match_key":"l","participant_id":"COGS219_2020_36"},{"rt":1212.9850001074374,"stimulus":"Images/motorcycle_2.png","key_press":65,"stim_onset":1583102953306,"block":1,"match_type":"non-match","image_category":"motorcycle","sound_category":"cat","audio_type":"sound","phase":"test","trial_type":"image-keyboard-response","trial_index":230,"time_elapsed":2450597,"internal_node_id":"0.0-13.0-2.44","match_key":"l","participant_id":"COGS219_2020_36","correct":true},{"rt":null,"stimulus":"Sounds/correct.wav","key_press":null,"block":1,"trial_type":"audio-keyboard-response","trial_index":231,"time_elapsed":2452606,"internal_node_id":"0.0-13.0-3.44","match_key":"l","participant_id":"COGS219_2020_36"},{"rt":null,"stimulus":"Sounds/cow_sound.wav","key_press":null,"block":1,"trial_type":"audio-keyboard-response","trial_index":232,"time_elapsed":2453632,"internal_node_id":"0.0-13.0-0.45","match_key":"l","participant_id":"COGS219_2020_36"},{"rt":null,"stimulus":"<p style=\"font-size: 48px;\">+</p>","key_press":null,"block":1,"trial_type":"html-keyboard-response","trial_index":233,"time_elapsed":2454650,"internal_node_id":"0.0-13.0-1.45","match_key":"l","participant_id":"COGS219_2020_36"},{"rt":2234.0450000483543,"stimulus":"Images/cow_orig.png","key_press":76,"stim_onset":1583102958573,"block":1,"match_type":"match","image_category":"cow","sound_category":"cow","audio_type":"sound","phase":"test","trial_type":"image-keyboard-response","trial_index":234,"time_elapsed":2456885,"internal_node_id":"0.0-13.0-2.45","match_key":"l","participant_id":"COGS219_2020_36","correct":true},{"rt":null,"stimulus":"Sounds/correct.wav","key_press":null,"block":1,"trial_type":"audio-keyboard-response","trial_index":235,"time_elapsed":2458891,"internal_node_id":"0.0-13.0-3.45","match_key":"l","participant_id":"COGS219_2020_36"},{"rt":null,"stimulus":"Sounds/dog_sound.wav","key_press":null,"block":1,"trial_type":"audio-keyboard-response","trial_index":236,"time_elapsed":2459612,"internal_node_id":"0.0-13.0-0.46","match_key":"l","participant_id":"COGS219_2020_36"},{"rt":null,"stimulus":"<p style=\"font-size: 48px;\">+</p>","key_press":null,"block":1,"trial_type":"html-keyboard-response","trial_index":237,"time_elapsed":2460617,"internal_node_id":"0.0-13.0-1.46","match_key":"l","participant_id":"COGS219_2020_36"},{"rt":1275.2750001382083,"stimulus":"Images/frog_cartoon.png","key_press":65,"stim_onset":1583102964540,"block":1,"match_type":"non-match","image_category":"frog","sound_category":"dog","audio_type":"sound","phase":"test","trial_type":"image-keyboard-response","trial_index":238,"time_elapsed":2461893,"internal_node_id":"0.0-13.0-2.46","match_key":"l","participant_id":"COGS219_2020_36","correct":true},{"rt":null,"stimulus":"Sounds/correct.wav","key_press":null,"block":1,"trial_type":"audio-keyboard-response","trial_index":239,"time_elapsed":2463909,"internal_node_id":"0.0-13.0-3.46","match_key":"l","participant_id":"COGS219_2020_36"},{"rt":null,"stimulus":"Sounds/gun_sound.wav","key_press":null,"block":1,"trial_type":"audio-keyboard-response","trial_index":240,"time_elapsed":2464492,"internal_node_id":"0.0-13.0-0.47","match_key":"l","participant_id":"COGS219_2020_36"},{"rt":null,"stimulus":"<p style=\"font-size: 48px;\">+</p>","key_press":null,"block":1,"trial_type":"html-keyboard-response","trial_index":241,"time_elapsed":2465483,"internal_node_id":"0.0-13.0-1.47","match_key":"l","participant_id":"COGS219_2020_36"},{"rt":1288.8050000183284,"stimulus":"Images/frog_orig.png","key_press":65,"stim_onset":1583102969407,"block":1,"match_type":"non-match","image_category":"frog","sound_category":"gun","audio_type":"sound","phase":"test","trial_type":"image-keyboard-response","trial_index":242,"time_elapsed":2466773,"internal_node_id":"0.0-13.0-2.47","match_key":"l","participant_id":"COGS219_2020_36","correct":true},{"rt":null,"stimulus":"Sounds/correct.wav","key_press":null,"block":1,"trial_type":"audio-keyboard-response","trial_index":243,"time_elapsed":2468791,"internal_node_id":"0.0-13.0-3.47","match_key":"l","participant_id":"COGS219_2020_36"},{"rt":null,"stimulus":"Sounds/frog_label.wav","key_press":null,"block":1,"trial_type":"audio-keyboard-response","trial_index":244,"time_elapsed":2469692,"internal_node_id":"0.0-13.0-0.48","match_key":"l","participant_id":"COGS219_2020_36"},{"rt":null,"stimulus":"<p style=\"font-size: 48px;\">+</p>","key_press":null,"block":1,"trial_type":"html-keyboard-response","trial_index":245,"time_elapsed":2470683,"internal_node_id":"0.0-13.0-1.48","match_key":"l","participant_id":"COGS219_2020_36"},{"rt":1080.745000159368,"stimulus":"Images/motorcycle_cartoon.png","key_press":65,"stim_onset":1583102974607,"block":1,"match_type":"non-match","image_category":"motorcycle","sound_category":"frog","audio_type":"label","phase":"test","trial_type":"image-keyboard-response","trial_index":246,"time_elapsed":2471765,"internal_node_id":"0.0-13.0-2.48","match_key":"l","participant_id":"COGS219_2020_36","correct":true},{"rt":null,"stimulus":"Sounds/correct.wav","key_press":null,"block":1,"trial_type":"audio-keyboard-response","trial_index":247,"time_elapsed":2473772,"internal_node_id":"0.0-13.0-3.48","match_key":"l","participant_id":"COGS219_2020_36"},{"rt":null,"stimulus":"Sounds/rooster_label.wav","key_press":null,"block":1,"trial_type":"audio-keyboard-response","trial_index":248,"time_elapsed":2474472,"internal_node_id":"0.0-13.0-0.49","match_key":"l","participant_id":"COGS219_2020_36"},{"rt":null,"stimulus":"<p style=\"font-size: 48px;\">+</p>","key_press":null,"block":1,"trial_type":"html-keyboard-response","trial_index":249,"time_elapsed":2475467,"internal_node_id":"0.0-13.0-1.49","match_key":"l","participant_id":"COGS219_2020_36"},{"rt":857.5249998830259,"stimulus":"Images/rooster_1.png","key_press":76,"stim_onset":1583102979390,"block":1,"match_type":"match","image_category":"rooster","sound_category":"rooster","audio_type":"label","phase":"test","trial_type":"image-keyboard-response","trial_index":250,"time_elapsed":2476325,"internal_node_id":"0.0-13.0-2.49","match_key":"l","participant_id":"COGS219_2020_36","correct":true},{"rt":null,"stimulus":"Sounds/correct.wav","key_press":null,"block":1,"trial_type":"audio-keyboard-response","trial_index":251,"time_elapsed":2478337,"internal_node_id":"0.0-13.0-3.49","match_key":"l","participant_id":"COGS219_2020_36"},{"rt":null,"stimulus":"Sounds/whistle_label.wav","key_press":null,"block":1,"trial_type":"audio-keyboard-response","trial_index":252,"time_elapsed":2479032,"internal_node_id":"0.0-13.0-0.50","match_key":"l","participant_id":"COGS219_2020_36"},{"rt":null,"stimulus":"<p style=\"font-size: 48px;\">+</p>","key_press":null,"block":1,"trial_type":"html-keyboard-response","trial_index":253,"time_elapsed":2480050,"internal_node_id":"0.0-13.0-1.50","match_key":"l","participant_id":"COGS219_2020_36"},{"rt":770.0600000098348,"stimulus":"Images/whistle_cartoon.png","key_press":76,"stim_onset":1583102983973,"block":1,"match_type":"match","image_category":"whistle","sound_category":"whistle","audio_type":"label","phase":"test","trial_type":"image-keyboard-response","trial_index":254,"time_elapsed":2480821,"internal_node_id":"0.0-13.0-2.50","match_key":"l","participant_id":"COGS219_2020_36","correct":true},{"rt":null,"stimulus":"Sounds/correct.wav","key_press":null,"block":1,"trial_type":"audio-keyboard-response","trial_index":255,"time_elapsed":2482838,"internal_node_id":"0.0-13.0-3.50","match_key":"l","participant_id":"COGS219_2020_36"},{"rt":null,"stimulus":"Sounds/dog_sound.wav","key_press":null,"block":1,"trial_type":"audio-keyboard-response","trial_index":256,"time_elapsed":2483552,"internal_node_id":"0.0-13.0-0.51","match_key":"l","participant_id":"COGS219_2020_36"},{"rt":null,"stimulus":"<p style=\"font-size: 48px;\">+</p>","key_press":null,"block":1,"trial_type":"html-keyboard-response","trial_index":257,"time_elapsed":2484550,"internal_node_id":"0.0-13.0-1.51","match_key":"l","participant_id":"COGS219_2020_36"},{"rt":1117.890000110492,"stimulus":"Images/cat_orig.png","key_press":65,"stim_onset":1583102988473,"block":1,"match_type":"non-match","image_category":"cat","sound_category":"dog","audio_type":"sound","phase":"test","trial_type":"image-keyboard-response","trial_index":258,"time_elapsed":2485669,"internal_node_id":"0.0-13.0-2.51","match_key":"l","participant_id":"COGS219_2020_36","correct":true},{"rt":null,"stimulus":"Sounds/correct.wav","key_press":null,"block":1,"trial_type":"audio-keyboard-response","trial_index":259,"time_elapsed":2487673,"internal_node_id":"0.0-13.0-3.51","match_key":"l","participant_id":"COGS219_2020_36"},{"rt":null,"stimulus":"Sounds/cat_sound.wav","key_press":null,"block":1,"trial_type":"audio-keyboard-response","trial_index":260,"time_elapsed":2488512,"internal_node_id":"0.0-13.0-0.52","match_key":"l","participant_id":"COGS219_2020_36"},{"rt":null,"stimulus":"<p style=\"font-size: 48px;\">+</p>","key_press":null,"block":1,"trial_type":"html-keyboard-response","trial_index":261,"time_elapsed":2489501,"internal_node_id":"0.0-13.0-1.52","match_key":"l","participant_id":"COGS219_2020_36"},{"rt":888.099999865517,"stimulus":"Images/cat_1.png","key_press":76,"stim_onset":1583102993424,"block":1,"match_type":"match","image_category":"cat","sound_category":"cat","audio_type":"sound","phase":"test","trial_type":"image-keyboard-response","trial_index":262,"time_elapsed":2490390,"internal_node_id":"0.0-13.0-2.52","match_key":"l","participant_id":"COGS219_2020_36","correct":true},{"rt":null,"stimulus":"Sounds/correct.wav","key_press":null,"block":1,"trial_type":"audio-keyboard-response","trial_index":263,"time_elapsed":2492405,"internal_node_id":"0.0-13.0-3.52","match_key":"l","participant_id":"COGS219_2020_36"},{"rt":null,"stimulus":"Sounds/train_sound.wav","key_press":null,"block":1,"trial_type":"audio-keyboard-response","trial_index":264,"time_elapsed":2493713,"internal_node_id":"0.0-13.0-0.53","match_key":"l","participant_id":"COGS219_2020_36"},{"rt":null,"stimulus":"<p style=\"font-size: 48px;\">+</p>","key_press":null,"block":1,"trial_type":"html-keyboard-response","trial_index":265,"time_elapsed":2494718,"internal_node_id":"0.0-13.0-1.53","match_key":"l","participant_id":"COGS219_2020_36"},{"rt":1142.689999891445,"stimulus":"Images/rooster_3.png","key_press":65,"stim_onset":1583102998641,"block":1,"match_type":"non-match","image_category":"rooster","sound_category":"train","audio_type":"sound","phase":"test","trial_type":"image-keyboard-response","trial_index":266,"time_elapsed":2495862,"internal_node_id":"0.0-13.0-2.53","match_key":"l","participant_id":"COGS219_2020_36","correct":true},{"rt":null,"stimulus":"Sounds/correct.wav","key_press":null,"block":1,"trial_type":"audio-keyboard-response","trial_index":267,"time_elapsed":2497871,"internal_node_id":"0.0-13.0-3.53","match_key":"l","participant_id":"COGS219_2020_36"},{"rt":null,"stimulus":"Sounds/car_sound.wav","key_press":null,"block":1,"trial_type":"audio-keyboard-response","trial_index":268,"time_elapsed":2498953,"internal_node_id":"0.0-13.0-0.54","match_key":"l","participant_id":"COGS219_2020_36"},{"rt":null,"stimulus":"<p style=\"font-size: 48px;\">+</p>","key_press":null,"block":1,"trial_type":"html-keyboard-response","trial_index":269,"time_elapsed":2499951,"internal_node_id":"0.0-13.0-1.54","match_key":"l","participant_id":"COGS219_2020_36"},{"rt":1109.730000142008,"stimulus":"Images/car_2.png","key_press":76,"stim_onset":1583103003874,"block":1,"match_type":"match","image_category":"car","sound_category":"car","audio_type":"sound","phase":"test","trial_type":"image-keyboard-response","trial_index":270,"time_elapsed":2501062,"internal_node_id":"0.0-13.0-2.54","match_key":"l","participant_id":"COGS219_2020_36","correct":true},{"rt":null,"stimulus":"Sounds/correct.wav","key_press":null,"block":1,"trial_type":"audio-keyboard-response","trial_index":271,"time_elapsed":2503071,"internal_node_id":"0.0-13.0-3.54","match_key":"l","participant_id":"COGS219_2020_36"},{"rt":null,"stimulus":"Sounds/train_sound.wav","key_press":null,"block":1,"trial_type":"audio-keyboard-response","trial_index":272,"time_elapsed":2504353,"internal_node_id":"0.0-13.0-0.55","match_key":"l","participant_id":"COGS219_2020_36"},{"rt":null,"stimulus":"<p style=\"font-size: 48px;\">+</p>","key_press":null,"block":1,"trial_type":"html-keyboard-response","trial_index":273,"time_elapsed":2505351,"internal_node_id":"0.0-13.0-1.55","match_key":"l","participant_id":"COGS219_2020_36"},{"rt":1213.6199998203665,"stimulus":"Images/cow_2.png","key_press":65,"stim_onset":1583103009274,"block":1,"match_type":"non-match","image_category":"cow","sound_category":"train","audio_type":"sound","phase":"test","trial_type":"image-keyboard-response","trial_index":274,"time_elapsed":2506566,"internal_node_id":"0.0-13.0-2.55","match_key":"l","participant_id":"COGS219_2020_36","correct":true},{"rt":null,"stimulus":"Sounds/correct.wav","key_press":null,"block":1,"trial_type":"audio-keyboard-response","trial_index":275,"time_elapsed":2508573,"internal_node_id":"0.0-13.0-3.55","match_key":"l","participant_id":"COGS219_2020_36"},{"rt":null,"stimulus":"Sounds/train_sound.wav","key_press":null,"block":1,"trial_type":"audio-keyboard-response","trial_index":276,"time_elapsed":2509853,"internal_node_id":"0.0-13.0-0.56","match_key":"l","participant_id":"COGS219_2020_36"},{"rt":null,"stimulus":"<p style=\"font-size: 48px;\">+</p>","key_press":null,"block":1,"trial_type":"html-keyboard-response","trial_index":277,"time_elapsed":2510851,"internal_node_id":"0.0-13.0-1.56","match_key":"l","participant_id":"COGS219_2020_36"},{"rt":1089.6749999374151,"stimulus":"Images/whistle_2.png","key_press":65,"stim_onset":1583103014774,"block":1,"match_type":"non-match","image_category":"whistle","sound_category":"train","audio_type":"sound","phase":"test","trial_type":"image-keyboard-response","trial_index":278,"time_elapsed":2511942,"internal_node_id":"0.0-13.0-2.56","match_key":"l","participant_id":"COGS219_2020_36","correct":true},{"rt":null,"stimulus":"Sounds/correct.wav","key_press":null,"block":1,"trial_type":"audio-keyboard-response","trial_index":279,"time_elapsed":2513955,"internal_node_id":"0.0-13.0-3.56","match_key":"l","participant_id":"COGS219_2020_36"},{"rt":null,"stimulus":"Sounds/motorcycle_label.wav","key_press":null,"block":1,"trial_type":"audio-keyboard-response","trial_index":280,"time_elapsed":2515093,"internal_node_id":"0.0-13.0-0.57","match_key":"l","participant_id":"COGS219_2020_36"},{"rt":null,"stimulus":"<p style=\"font-size: 48px;\">+</p>","key_press":null,"block":1,"trial_type":"html-keyboard-response","trial_index":281,"time_elapsed":2516084,"internal_node_id":"0.0-13.0-1.57","match_key":"l","participant_id":"COGS219_2020_36"},{"rt":1248.1999997980893,"stimulus":"Images/motorcycle_1.png","key_press":76,"stim_onset":1583103020008,"block":1,"match_type":"match","image_category":"motorcycle","sound_category":"motorcycle","audio_type":"label","phase":"test","trial_type":"image-keyboard-response","trial_index":282,"time_elapsed":2517334,"internal_node_id":"0.0-13.0-2.57","match_key":"l","participant_id":"COGS219_2020_36","correct":true},{"rt":null,"stimulus":"Sounds/correct.wav","key_press":null,"block":1,"trial_type":"audio-keyboard-response","trial_index":283,"time_elapsed":2519345,"internal_node_id":"0.0-13.0-3.57","match_key":"l","participant_id":"COGS219_2020_36"},{"rt":null,"stimulus":"Sounds/cat_sound.wav","key_press":null,"block":1,"trial_type":"audio-keyboard-response","trial_index":284,"time_elapsed":2520193,"internal_node_id":"0.0-13.0-0.58","match_key":"l","participant_id":"COGS219_2020_36"},{"rt":null,"stimulus":"<p style=\"font-size: 48px;\">+</p>","key_press":null,"block":1,"trial_type":"html-keyboard-response","trial_index":285,"time_elapsed":2521185,"internal_node_id":"0.0-13.0-1.58","match_key":"l","participant_id":"COGS219_2020_36"},{"rt":1108.1600000616163,"stimulus":"Images/cat_3.png","key_press":76,"stim_onset":1583103025108,"block":1,"match_type":"match","image_category":"cat","sound_category":"cat","audio_type":"sound","phase":"test","trial_type":"image-keyboard-response","trial_index":286,"time_elapsed":2522294,"internal_node_id":"0.0-13.0-2.58","match_key":"l","participant_id":"COGS219_2020_36","correct":true},{"rt":null,"stimulus":"Sounds/correct.wav","key_press":null,"block":1,"trial_type":"audio-keyboard-response","trial_index":287,"time_elapsed":2524306,"internal_node_id":"0.0-13.0-3.58","match_key":"l","participant_id":"COGS219_2020_36"},{"rt":null,"stimulus":"Sounds/cow_sound.wav","key_press":null,"block":1,"trial_type":"audio-keyboard-response","trial_index":288,"time_elapsed":2525333,"internal_node_id":"0.0-13.0-0.59","match_key":"l","participant_id":"COGS219_2020_36"},{"rt":null,"stimulus":"<p style=\"font-size: 48px;\">+</p>","key_press":null,"block":1,"trial_type":"html-keyboard-response","trial_index":289,"time_elapsed":2526335,"internal_node_id":"0.0-13.0-1.59","match_key":"l","participant_id":"COGS219_2020_36"},{"rt":805.7399999815971,"stimulus":"Images/cow_2.png","key_press":76,"stim_onset":1583103030258,"block":1,"match_type":"match","image_category":"cow","sound_category":"cow","audio_type":"sound","phase":"test","trial_type":"image-keyboard-response","trial_index":290,"time_elapsed":2527142,"internal_node_id":"0.0-13.0-2.59","match_key":"l","participant_id":"COGS219_2020_36","correct":true},{"rt":null,"stimulus":"Sounds/correct.wav","key_press":null,"block":1,"trial_type":"audio-keyboard-response","trial_index":291,"time_elapsed":2529157,"internal_node_id":"0.0-13.0-3.59","match_key":"l","participant_id":"COGS219_2020_36"},{"rt":null,"stimulus":"Sounds/gun_label.wav","key_press":null,"block":1,"trial_type":"audio-keyboard-response","trial_index":292,"time_elapsed":2529733,"internal_node_id":"0.0-13.0-0.60","match_key":"l","participant_id":"COGS219_2020_36"},{"rt":null,"stimulus":"<p style=\"font-size: 48px;\">+</p>","key_press":null,"block":1,"trial_type":"html-keyboard-response","trial_index":293,"time_elapsed":2530735,"internal_node_id":"0.0-13.0-1.60","match_key":"l","participant_id":"COGS219_2020_36"},{"rt":1350.0000000931323,"stimulus":"Images/car_1.png","key_press":65,"stim_onset":1583103034658,"block":1,"match_type":"non-match","image_category":"car","sound_category":"gun","audio_type":"label","phase":"test","trial_type":"image-keyboard-response","trial_index":294,"time_elapsed":2532086,"internal_node_id":"0.0-13.0-2.60","match_key":"l","participant_id":"COGS219_2020_36","correct":true},{"rt":null,"stimulus":"Sounds/correct.wav","key_press":null,"block":1,"trial_type":"audio-keyboard-response","trial_index":295,"time_elapsed":2534093,"internal_node_id":"0.0-13.0-3.60","match_key":"l","participant_id":"COGS219_2020_36"},{"rt":null,"stimulus":"Sounds/frog_sound.wav","key_press":null,"block":1,"trial_type":"audio-keyboard-response","trial_index":296,"time_elapsed":2534993,"internal_node_id":"0.0-13.0-0.61","match_key":"l","participant_id":"COGS219_2020_36"},{"rt":null,"stimulus":"<p style=\"font-size: 48px;\">+</p>","key_press":null,"block":1,"trial_type":"html-keyboard-response","trial_index":297,"time_elapsed":2535985,"internal_node_id":"0.0-13.0-1.61","match_key":"l","participant_id":"COGS219_2020_36"},{"rt":676.1649998370558,"stimulus":"Images/frog_1.png","key_press":76,"stim_onset":1583103039908,"block":1,"match_type":"match","image_category":"frog","sound_category":"frog","audio_type":"sound","phase":"test","trial_type":"image-keyboard-response","trial_index":298,"time_elapsed":2536662,"internal_node_id":"0.0-13.0-2.61","match_key":"l","participant_id":"COGS219_2020_36","correct":true},{"rt":null,"stimulus":"Sounds/correct.wav","key_press":null,"block":1,"trial_type":"audio-keyboard-response","trial_index":299,"time_elapsed":2538673,"internal_node_id":"0.0-13.0-3.61","match_key":"l","participant_id":"COGS219_2020_36"},{"rt":null,"stimulus":"Sounds/cow_sound.wav","key_press":null,"block":1,"trial_type":"audio-keyboard-response","trial_index":300,"time_elapsed":2539673,"internal_node_id":"0.0-13.0-0.62","match_key":"l","participant_id":"COGS219_2020_36"},{"rt":null,"stimulus":"<p style=\"font-size: 48px;\">+</p>","key_press":null,"block":1,"trial_type":"html-keyboard-response","trial_index":301,"time_elapsed":2540668,"internal_node_id":"0.0-13.0-1.62","match_key":"l","participant_id":"COGS219_2020_36"},{"rt":904.7900000587106,"stimulus":"Images/cow_cartoon.png","key_press":76,"stim_onset":1583103044591,"block":1,"match_type":"match","image_category":"cow","sound_category":"cow","audio_type":"sound","phase":"test","trial_type":"image-keyboard-response","trial_index":302,"time_elapsed":2541574,"internal_node_id":"0.0-13.0-2.62","match_key":"l","participant_id":"COGS219_2020_36","correct":true},{"rt":null,"stimulus":"Sounds/correct.wav","key_press":null,"block":1,"trial_type":"audio-keyboard-response","trial_index":303,"time_elapsed":2543589,"internal_node_id":"0.0-13.0-3.62","match_key":"l","participant_id":"COGS219_2020_36"},{"rt":null,"stimulus":"Sounds/cow_sound.wav","key_press":null,"block":1,"trial_type":"audio-keyboard-response","trial_index":304,"time_elapsed":2544573,"internal_node_id":"0.0-13.0-0.63","match_key":"l","participant_id":"COGS219_2020_36"},{"rt":null,"stimulus":"<p style=\"font-size: 48px;\">+</p>","key_press":null,"block":1,"trial_type":"html-keyboard-response","trial_index":305,"time_elapsed":2545568,"internal_node_id":"0.0-13.0-1.63","match_key":"l","participant_id":"COGS219_2020_36"},{"rt":868.650000076741,"stimulus":"Images/car_2.png","key_press":65,"stim_onset":1583103049491,"block":1,"match_type":"non-match","image_category":"car","sound_category":"cow","audio_type":"sound","phase":"test","trial_type":"image-keyboard-response","trial_index":306,"time_elapsed":2546438,"internal_node_id":"0.0-13.0-2.63","match_key":"l","participant_id":"COGS219_2020_36","correct":true},{"rt":null,"stimulus":"Sounds/correct.wav","key_press":null,"block":1,"trial_type":"audio-keyboard-response","trial_index":307,"time_elapsed":2548440,"internal_node_id":"0.0-13.0-3.63","match_key":"l","participant_id":"COGS219_2020_36"},{"rt":null,"stimulus":"Sounds/whistle_label.wav","key_press":null,"block":1,"trial_type":"audio-keyboard-response","trial_index":308,"time_elapsed":2549133,"internal_node_id":"0.0-13.0-0.64","match_key":"l","participant_id":"COGS219_2020_36"},{"rt":null,"stimulus":"<p style=\"font-size: 48px;\">+</p>","key_press":null,"block":1,"trial_type":"html-keyboard-response","trial_index":309,"time_elapsed":2550136,"internal_node_id":"0.0-13.0-1.64","match_key":"l","participant_id":"COGS219_2020_36"},{"rt":1022.0600001048297,"stimulus":"Images/gun_1.png","key_press":65,"stim_onset":1583103054059,"block":1,"match_type":"non-match","image_category":"gun","sound_category":"whistle","audio_type":"label","phase":"test","trial_type":"image-keyboard-response","trial_index":310,"time_elapsed":2551159,"internal_node_id":"0.0-13.0-2.64","match_key":"l","participant_id":"COGS219_2020_36","correct":true},{"rt":null,"stimulus":"Sounds/correct.wav","key_press":null,"block":1,"trial_type":"audio-keyboard-response","trial_index":311,"time_elapsed":2553173,"internal_node_id":"0.0-13.0-3.64","match_key":"l","participant_id":"COGS219_2020_36"},{"rt":null,"stimulus":"Sounds/cat_label.wav","key_press":null,"block":1,"trial_type":"audio-keyboard-response","trial_index":312,"time_elapsed":2554013,"internal_node_id":"0.0-13.0-0.65","match_key":"l","participant_id":"COGS219_2020_36"},{"rt":null,"stimulus":"<p style=\"font-size: 48px;\">+</p>","key_press":null,"block":1,"trial_type":"html-keyboard-response","trial_index":313,"time_elapsed":2555019,"internal_node_id":"0.0-13.0-1.65","match_key":"l","participant_id":"COGS219_2020_36"},{"rt":712.6850001513958,"stimulus":"Images/cat_2.png","key_press":76,"stim_onset":1583103058942,"block":1,"match_type":"match","image_category":"cat","sound_category":"cat","audio_type":"label","phase":"test","trial_type":"image-keyboard-response","trial_index":314,"time_elapsed":2555735,"internal_node_id":"0.0-13.0-2.65","match_key":"l","participant_id":"COGS219_2020_36","correct":true},{"rt":null,"stimulus":"Sounds/correct.wav","key_press":null,"block":1,"trial_type":"audio-keyboard-response","trial_index":315,"time_elapsed":2557750,"internal_node_id":"0.0-13.0-3.65","match_key":"l","participant_id":"COGS219_2020_36"},{"rt":null,"stimulus":"Sounds/car_label.wav","key_press":null,"block":1,"trial_type":"audio-keyboard-response","trial_index":316,"time_elapsed":2558833,"internal_node_id":"0.0-13.0-0.66","match_key":"l","participant_id":"COGS219_2020_36"},{"rt":null,"stimulus":"<p style=\"font-size: 48px;\">+</p>","key_press":null,"block":1,"trial_type":"html-keyboard-response","trial_index":317,"time_elapsed":2559836,"internal_node_id":"0.0-13.0-1.66","match_key":"l","participant_id":"COGS219_2020_36"},{"rt":810.1150000002235,"stimulus":"Images/car_1.png","key_press":76,"stim_onset":1583103063759,"block":1,"match_type":"match","image_category":"car","sound_category":"car","audio_type":"label","phase":"test","trial_type":"image-keyboard-response","trial_index":318,"time_elapsed":2560647,"internal_node_id":"0.0-13.0-2.66","match_key":"l","participant_id":"COGS219_2020_36","correct":true},{"rt":null,"stimulus":"Sounds/correct.wav","key_press":null,"block":1,"trial_type":"audio-keyboard-response","trial_index":319,"time_elapsed":2562656,"internal_node_id":"0.0-13.0-3.66","match_key":"l","participant_id":"COGS219_2020_36"},{"rt":null,"stimulus":"Sounds/rooster_label.wav","key_press":null,"block":1,"trial_type":"audio-keyboard-response","trial_index":320,"time_elapsed":2563354,"internal_node_id":"0.0-13.0-0.67","match_key":"l","participant_id":"COGS219_2020_36"},{"rt":null,"stimulus":"<p style=\"font-size: 48px;\">+</p>","key_press":null,"block":1,"trial_type":"html-keyboard-response","trial_index":321,"time_elapsed":2564352,"internal_node_id":"0.0-13.0-1.67","match_key":"l","participant_id":"COGS219_2020_36"},{"rt":773.1600000988692,"stimulus":"Images/cow_1.png","key_press":65,"stim_onset":1583103068276,"block":1,"match_type":"non-match","image_category":"cow","sound_category":"rooster","audio_type":"label","phase":"test","trial_type":"image-keyboard-response","trial_index":322,"time_elapsed":2565127,"internal_node_id":"0.0-13.0-2.67","match_key":"l","participant_id":"COGS219_2020_36","correct":true},{"rt":null,"stimulus":"Sounds/correct.wav","key_press":null,"block":1,"trial_type":"audio-keyboard-response","trial_index":323,"time_elapsed":2567140,"internal_node_id":"0.0-13.0-3.67","match_key":"l","participant_id":"COGS219_2020_36"},{"rt":null,"stimulus":"Sounds/motorcycle_sound.wav","key_press":null,"block":1,"trial_type":"audio-keyboard-response","trial_index":324,"time_elapsed":2568253,"internal_node_id":"0.0-13.0-0.68","match_key":"l","participant_id":"COGS219_2020_36"},{"rt":null,"stimulus":"<p style=\"font-size: 48px;\">+</p>","key_press":null,"block":1,"trial_type":"html-keyboard-response","trial_index":325,"time_elapsed":2569252,"internal_node_id":"0.0-13.0-1.68","match_key":"l","participant_id":"COGS219_2020_36"},{"rt":1056.8250000942498,"stimulus":"Images/motorcycle_2.png","key_press":76,"stim_onset":1583103073176,"block":1,"match_type":"match","image_category":"motorcycle","sound_category":"motorcycle","audio_type":"sound","phase":"test","trial_type":"image-keyboard-response","trial_index":326,"time_elapsed":2570310,"internal_node_id":"0.0-13.0-2.68","match_key":"l","participant_id":"COGS219_2020_36","correct":true},{"rt":null,"stimulus":"Sounds/correct.wav","key_press":null,"block":1,"trial_type":"audio-keyboard-response","trial_index":327,"time_elapsed":2572323,"internal_node_id":"0.0-13.0-3.68","match_key":"l","participant_id":"COGS219_2020_36"},{"rt":null,"stimulus":"Sounds/train_sound.wav","key_press":null,"block":1,"trial_type":"audio-keyboard-response","trial_index":328,"time_elapsed":2573633,"internal_node_id":"0.0-13.0-0.69","match_key":"l","participant_id":"COGS219_2020_36"},{"rt":null,"stimulus":"<p style=\"font-size: 48px;\">+</p>","key_press":null,"block":1,"trial_type":"html-keyboard-response","trial_index":329,"time_elapsed":2574636,"internal_node_id":"0.0-13.0-1.69","match_key":"l","participant_id":"COGS219_2020_36"},{"rt":1577.8149999678135,"stimulus":"Images/car_3.png","key_press":65,"stim_onset":1583103078559,"block":1,"match_type":"non-match","image_category":"car","sound_category":"train","audio_type":"sound","phase":"test","trial_type":"image-keyboard-response","trial_index":330,"time_elapsed":2576215,"internal_node_id":"0.0-13.0-2.69","match_key":"l","participant_id":"COGS219_2020_36","correct":true},{"rt":null,"stimulus":"Sounds/correct.wav","key_press":null,"block":1,"trial_type":"audio-keyboard-response","trial_index":331,"time_elapsed":2578226,"internal_node_id":"0.0-13.0-3.69","match_key":"l","participant_id":"COGS219_2020_36"},{"rt":null,"stimulus":"Sounds/whistle_sound.wav","key_press":null,"block":1,"trial_type":"audio-keyboard-response","trial_index":332,"time_elapsed":2578933,"internal_node_id":"0.0-13.0-0.70","match_key":"l","participant_id":"COGS219_2020_36"},{"rt":null,"stimulus":"<p style=\"font-size: 48px;\">+</p>","key_press":null,"block":1,"trial_type":"html-keyboard-response","trial_index":333,"time_elapsed":2579936,"internal_node_id":"0.0-13.0-1.70","match_key":"l","participant_id":"COGS219_2020_36"},{"rt":2997.674999991432,"stimulus":"Images/dog_cartoon.png","key_press":65,"stim_onset":1583103083859,"block":1,"match_type":"non-match","image_category":"dog","sound_category":"whistle","audio_type":"sound","phase":"test","trial_type":"image-keyboard-response","trial_index":334,"time_elapsed":2582935,"internal_node_id":"0.0-13.0-2.70","match_key":"l","participant_id":"COGS219_2020_36","correct":true},{"rt":null,"stimulus":"Sounds/correct.wav","key_press":null,"block":1,"trial_type":"audio-keyboard-response","trial_index":335,"time_elapsed":2584941,"internal_node_id":"0.0-13.0-3.70","match_key":"l","participant_id":"COGS219_2020_36"},{"rt":null,"stimulus":"Sounds/car_label.wav","key_press":null,"block":1,"trial_type":"audio-keyboard-response","trial_index":336,"time_elapsed":2586013,"internal_node_id":"0.0-13.0-0.71","match_key":"l","participant_id":"COGS219_2020_36"},{"rt":null,"stimulus":"<p style=\"font-size: 48px;\">+</p>","key_press":null,"block":1,"trial_type":"html-keyboard-response","trial_index":337,"time_elapsed":2587020,"internal_node_id":"0.0-13.0-1.71","match_key":"l","participant_id":"COGS219_2020_36"},{"rt":1402.1350000984967,"stimulus":"Images/car_cartoon.png","key_press":76,"stim_onset":1583103090943,"block":1,"match_type":"match","image_category":"car","sound_category":"car","audio_type":"label","phase":"test","trial_type":"image-keyboard-response","trial_index":338,"time_elapsed":2588423,"internal_node_id":"0.0-13.0-2.71","match_key":"l","participant_id":"COGS219_2020_36","correct":true},{"rt":null,"stimulus":"Sounds/correct.wav","key_press":null,"block":1,"trial_type":"audio-keyboard-response","trial_index":339,"time_elapsed":2590427,"internal_node_id":"0.0-13.0-3.71","match_key":"l","participant_id":"COGS219_2020_36"},{"rt":null,"stimulus":"Sounds/frog_sound.wav","key_press":null,"block":1,"trial_type":"audio-keyboard-response","trial_index":340,"time_elapsed":2591334,"internal_node_id":"0.0-13.0-0.72","match_key":"l","participant_id":"COGS219_2020_36"},{"rt":null,"stimulus":"<p style=\"font-size: 48px;\">+</p>","key_press":null,"block":1,"trial_type":"html-keyboard-response","trial_index":341,"time_elapsed":2592336,"internal_node_id":"0.0-13.0-1.72","match_key":"l","participant_id":"COGS219_2020_36"},{"rt":853.364999871701,"stimulus":"Images/gun_2.png","key_press":65,"stim_onset":1583103096259,"block":1,"match_type":"non-match","image_category":"gun","sound_category":"frog","audio_type":"sound","phase":"test","trial_type":"image-keyboard-response","trial_index":342,"time_elapsed":2593191,"internal_node_id":"0.0-13.0-2.72","match_key":"l","participant_id":"COGS219_2020_36","correct":true},{"rt":null,"stimulus":"Sounds/correct.wav","key_press":null,"block":1,"trial_type":"audio-keyboard-response","trial_index":343,"time_elapsed":2595208,"internal_node_id":"0.0-13.0-3.72","match_key":"l","participant_id":"COGS219_2020_36"},{"rt":null,"stimulus":"Sounds/car_sound.wav","key_press":null,"block":1,"trial_type":"audio-keyboard-response","trial_index":344,"time_elapsed":2596293,"internal_node_id":"0.0-13.0-0.73","match_key":"l","participant_id":"COGS219_2020_36"},{"rt":null,"stimulus":"<p style=\"font-size: 48px;\">+</p>","key_press":null,"block":1,"trial_type":"html-keyboard-response","trial_index":345,"time_elapsed":2597286,"internal_node_id":"0.0-13.0-1.73","match_key":"l","participant_id":"COGS219_2020_36"},{"rt":927.3050001356751,"stimulus":"Images/rooster_2.png","key_press":65,"stim_onset":1583103101209,"block":1,"match_type":"non-match","image_category":"rooster","sound_category":"car","audio_type":"sound","phase":"test","trial_type":"image-keyboard-response","trial_index":346,"time_elapsed":2598215,"internal_node_id":"0.0-13.0-2.73","match_key":"l","participant_id":"COGS219_2020_36","correct":true},{"rt":null,"stimulus":"Sounds/correct.wav","key_press":null,"block":1,"trial_type":"audio-keyboard-response","trial_index":347,"time_elapsed":2600223,"internal_node_id":"0.0-13.0-3.73","match_key":"l","participant_id":"COGS219_2020_36"},{"rt":null,"stimulus":"Sounds/cat_sound.wav","key_press":null,"block":1,"trial_type":"audio-keyboard-response","trial_index":348,"time_elapsed":2601074,"internal_node_id":"0.0-13.0-0.74","match_key":"l","participant_id":"C