"rt","responses","trial_type","trial_index","time_elapsed","internal_node_id","match_key","participant_id","stimulus","key_press","block","stim_onset","match_type","image_category","sound_category","audio_type","phase","correct"
"3855.03500001505","{""Q0"":""05""}","survey-text","0","3888","0.0-0.0","a","05","","","","","","","","","",""
"31814.860000042245","","html-keyboard-response","1","35714","0.0-1.0","a","05","<p>Use KEYBOARD 2 (match LEFT)</p><p>Press MATCH to continue.</p>","65","","","","","","","",""
"14423.990000039339","","html-keyboard-response","2","50140","0.0-2.0","a","05","<p>Welcome to the experiment.</p>","122","","","","","","","",""
"33840.5849999981","","html-keyboard-response","3","83984","0.0-3.0","a","05","<p>Thank you for agreeing to participate in this study.</p><p>If during any part of the procedure you must stop for any reason, please inform the researcher that you do not wish to continue.</p>","32","","","","","","","",""
"1645.5049999058247","","html-keyboard-response","4","85631","0.0-4.0","a","05","<p>In this experiment, you will hear various words or sounds and see pictures of various animals and objects.</p><p>Most of the images will be of common everyday objects, such as cars, cats, cows, firearms, frogs, chickens, whistles, trains, motorcycles, and dogs.</p><p>Some of the images will be real-life stills, while others will be cartoons.</p>","32","","","","","","","",""
"1822.9200000641868","","html-keyboard-response","5","87455","0.0-5.0","a","05","<p>Sometimes, the word/sound will match the picture, for example you'll hear a meowing sound and see a cat.</p><p>Other times, the picture will not match the sound or word.</p><p>Your task is to decide as quickly as possible if the word/sound matches the picture or not. </p>","32","","","","","","","",""
"1150.9649999206886","","html-keyboard-response","6","88607","0.0-6.0","a","05","<p>For example, if you hear the word ""cat"" or hear a meowing sound, and then see a picture of a cat, you should press the MATCH key.</p><p> If the sound and image do not match, press the NOT-MATCH key to indicate that there is not a match.</p>","32","","","","","","","",""
"1702.7049999451265","","html-keyboard-response","7","90311","0.0-7.0","a","05","<p>If you make a mistake, you will hear a buzzing sound instead of a more pleasant sound.</p><p> Try to respond as quickly as possible, while making as few errors as possible. If you are making mistakes, you are probably rushing.</p>","32","","","","","","","",""
"1990.9099999349564","","html-keyboard-response","8","92303","0.0-8.0","a","05","<p>Please try to not move or blink your eyes during the presentation of the images. You can move and blink between images.</p><p>During the experiment there will be some breaks during which you can rest your eyes.</p>","32","","","","","","","",""
"1879.4350000098348","","html-keyboard-response","9","94183","0.0-9.0","a","05","<p>We will begin with 10 practice trials. Please let the experimenter know if you have any questions.</p>","32","","","","","","","",""
"null","","audio-keyboard-response","10","95215","0.0-10.0-0.0","a","05","Sounds/cow_label.wav","null","0","","","","","","",""
"null","","html-keyboard-response","11","96219","0.0-10.0-1.0","a","05","<p style=""font-size: 48px;"">+</p>","null","0","","","","","","",""
"4418.259999947622","","image-keyboard-response","12","100640","0.0-10.0-2.0","a","05","Images/cow_orig.png","65","0","1581378964698","match","cow","cow","label","practice","true"
"null","","audio-keyboard-response","13","102659","0.0-10.0-3.0","a","05","Sounds/correct.wav","null","0","","","","","","",""
"null","","audio-keyboard-response","14","103654","0.0-10.0-0.1","a","05","Sounds/cow_label.wav","null","0","","","","","","",""
"null","","html-keyboard-response","15","104652","0.0-10.0-1.1","a","05","<p style=""font-size: 48px;"">+</p>","null","0","","","","","","",""
"1577.4550000205636","","image-keyboard-response","16","106231","0.0-10.0-2.1","a","05","Images/cat_orig.png","76","0","1581378973132","non-match","cat","cow","label","practice","true"
"null","","audio-keyboard-response","17","108242","0.0-10.0-3.1","a","05","Sounds/correct.wav","null","0","","","","","","",""
"null","","audio-keyboard-response","18","108894","0.0-10.0-0.2","a","05","Sounds/dog_label.wav","null","0","","","","","","",""
"null","","html-keyboard-response","19","109886","0.0-10.0-1.2","a","05","<p style=""font-size: 48px;"">+</p>","null","0","","","","","","",""
"848.009999957867","","image-keyboard-response","20","110735","0.0-10.0-2.2","a","05","Images/dog_orig.png","65","0","1581378978365","match","dog","dog","label","practice","true"
"null","","audio-keyboard-response","21","112744","0.0-10.0-3.2","a","05","Sounds/correct.wav","null","0","","","","","","",""
"null","","audio-keyboard-response","22","113654","0.0-10.0-0.3","a","05","Sounds/frog_sound.wav","null","0","","","","","","",""
"null","","html-keyboard-response","23","114653","0.0-10.0-1.3","a","05","<p style=""font-size: 48px;"">+</p>","null","0","","","","","","",""
"1145.1099999248981","","image-keyboard-response","24","115799","0.0-10.0-2.3","a","05","Images/frog_3.png","65","0","1581378983132","match","frog","frog","sound","practice","true"
"null","","audio-keyboard-response","25","117808","0.0-10.0-3.3","a","05","Sounds/correct.wav","null","0","","","","","","",""
"null","","audio-keyboard-response","26","118434","0.0-10.0-0.4","a","05","Sounds/dog_label.wav","null","0","","","","","","",""
"null","","html-keyboard-response","27","119453","0.0-10.0-1.4","a","05","<p style=""font-size: 48px;"">+</p>","null","0","","","","","","",""
"1057.435000082478","","image-keyboard-response","28","120511","0.0-10.0-2.4","a","05","Images/dog_1.png","65","0","1581378987932","match","dog","dog","label","practice","true"
"null","","audio-keyboard-response","29","122522","0.0-10.0-3.4","a","05","Sounds/correct.wav","null","0","","","","","","",""
"null","","audio-keyboard-response","30","123094","0.0-10.0-0.5","a","05","Sounds/gun_label.wav","null","0","","","","","","",""
"null","","html-keyboard-response","31","124086","0.0-10.0-1.5","a","05","<p style=""font-size: 48px;"">+</p>","null","0","","","","","","",""
"783.945000031963","","image-keyboard-response","32","124871","0.0-10.0-2.5","a","05","Images/gun_orig.png","65","0","1581378992565","match","gun","gun","label","practice","true"
"null","","audio-keyboard-response","33","126876","0.0-10.0-3.5","a","05","Sounds/correct.wav","null","0","","","","","","",""
"null","","audio-keyboard-response","34","128154","0.0-10.0-0.6","a","05","Sounds/train_label.wav","null","0","","","","","","",""
"null","","html-keyboard-response","35","129153","0.0-10.0-1.6","a","05","<p style=""font-size: 48px;"">+</p>","null","0","","","","","","",""
"956.7849999293685","","image-keyboard-response","36","130111","0.0-10.0-2.6","a","05","Images/train_3.png","65","0","1581378997632","match","train","train","label","practice","true"
"null","","audio-keyboard-response","37","132124","0.0-10.0-3.6","a","05","Sounds/correct.wav","null","0","","","","","","",""
"null","","audio-keyboard-response","38","132954","0.0-10.0-0.7","a","05","Sounds/cat_sound.wav","null","0","","","","","","",""
"null","","html-keyboard-response","39","133953","0.0-10.0-1.7","a","05","<p style=""font-size: 48px;"">+</p>","null","0","","","","","","",""
"941.3950000889599","","image-keyboard-response","40","134895","0.0-10.0-2.7","a","05","Images/dog_3.png","76","0","1581379002432","non-match","dog","cat","sound","practice","true"
"null","","audio-keyboard-response","41","136907","0.0-10.0-3.7","a","05","Sounds/correct.wav","null","0","","","","","","",""
"null","","audio-keyboard-response","42","137494","0.0-10.0-0.8","a","05","Sounds/gun_sound.wav","null","0","","","","","","",""
"null","","html-keyboard-response","43","138486","0.0-10.0-1.8","a","05","<p style=""font-size: 48px;"">+</p>","null","0","","","","","","",""
"1623.9249999634922","","image-keyboard-response","44","140111","0.0-10.0-2.8","a","05","Images/whistle_2.png","76","0","1581379006965","non-match","whistle","gun","sound","practice","true"
"null","","audio-keyboard-response","45","142114","0.0-10.0-3.8","a","05","Sounds/correct.wav","null","0","","","","","","",""
"null","","audio-keyboard-response","46","142954","0.0-10.0-0.9","a","05","Sounds/cat_label.wav","null","0","","","","","","",""
"null","","html-keyboard-response","47","143953","0.0-10.0-1.9","a","05","<p style=""font-size: 48px;"">+</p>","null","0","","","","","","",""
"573.439999949187","","image-keyboard-response","48","144528","0.0-10.0-2.9","a","05","Images/cat_1.png","65","0","1581379012432","match","cat","cat","label","practice","true"
"null","","audio-keyboard-response","49","146541","0.0-10.0-3.9","a","05","Sounds/correct.wav","null","0","","","","","","",""
"16938.005000003614","","html-keyboard-response","50","163480","0.0-11.0","a","05","<p>The rest of the experiment is divided into five blocks with 100 trials in each block. It will take about 45 minutes to complete.</p><p>The experimenter will be in the outer room and you can communicate with them through the monitor if you have any questions or wish to stop the experiment.</p>","32","","","","","","","",""
"96887.05500005744","","html-keyboard-response","51","260367","0.0-12.0","a","05","<p>Remember, please try not to move or blink your eyes during the presentation of the images. </p><p>At the end of the experiment, we will show you your scores on the task so you can see how you did.</p><p>The experiment will start on the next screen.</p>","32","","","","","","","",""
"null","","audio-keyboard-response","52","262967","0.0-13.0-0.0","a","05","Sounds/gun_label.wav","null","1","","","","","","",""
"null","","html-keyboard-response","53","263970","0.0-13.0-1.0","a","05","<p style=""font-size: 48px;"">+</p>","null","1","","","","","","",""
"787.2199999401346","","image-keyboard-response","54","264758","0.0-13.0-2.0","a","05","Images/frog_1.png","76","1","1581379132449","non-match","frog","gun","label","test","true"
"null","","audio-keyboard-response","55","266775","0.0-13.0-3.0","a","05","Sounds/correct.wav","null","1","","","","","","",""
"null","","audio-keyboard-response","56","267888","0.0-13.0-0.1","a","05","Sounds/motorcycle_sound.wav","null","1","","","","","","",""
"null","","html-keyboard-response","57","268886","0.0-13.0-1.1","a","05","<p style=""font-size: 48px;"">+</p>","null","1","","","","","","",""
"1542.8150000516325","","image-keyboard-response","58","270430","0.0-13.0-2.1","a","05","Images/train_3.png","76","1","1581379137366","non-match","train","motorcycle","sound","test","true"
"null","","audio-keyboard-response","59","272443","0.0-13.0-3.1","a","05","Sounds/correct.wav","null","1","","","","","","",""
"null","","audio-keyboard-response","60","273147","0.0-13.0-0.2","a","05","Sounds/rooster_label.wav","null","1","","","","","","",""
"null","","html-keyboard-response","61","274137","0.0-13.0-1.2","a","05","<p style=""font-size: 48px;"">+</p>","null","1","","","","","","",""
"508.59500002115965","","image-keyboard-response","62","274646","0.0-13.0-2.2","a","05","Images/rooster_cartoon.png","65","1","1581379142616","match","rooster","rooster","label","test","true"
"null","","audio-keyboard-response","63","276659","0.0-13.0-3.2","a","05","Sounds/correct.wav","null","1","","","","","","",""
"null","","audio-keyboard-response","64","277367","0.0-13.0-0.3","a","05","Sounds/whistle_label.wav","null","1","","","","","","",""
"null","","html-keyboard-response","65","278370","0.0-13.0-1.3","a","05","<p style=""font-size: 48px;"">+</p>","null","1","","","","","","",""
"506.98500010184944","","image-keyboard-response","66","278878","0.0-13.0-2.3","a","05","Images/whistle_orig.png","65","1","1581379146849","match","whistle","whistle","label","test","true"
"null","","audio-keyboard-response","67","280892","0.0-13.0-3.3","a","05","Sounds/correct.wav","null","1","","","","","","",""
"null","","audio-keyboard-response","68","281587","0.0-13.0-0.4","a","05","Sounds/rooster_sound.wav","null","1","","","","","","",""
"null","","html-keyboard-response","69","282587","0.0-13.0-1.4","a","05","<p style=""font-size: 48px;"">+</p>","null","1","","","","","","",""
"762.5949999783188","","image-keyboard-response","70","283350","0.0-13.0-2.4","a","05","Images/whistle_orig.png","76","1","1581379151066","non-match","whistle","rooster","sound","test","true"
"null","","audio-keyboard-response","71","285358","0.0-13.0-3.4","a","05","Sounds/correct.wav","null","1","","","","","","",""
"null","","audio-keyboard-response","72","286027","0.0-13.0-0.5","a","05","Sounds/whistle_label.wav","null","1","","","","","","",""
"null","","html-keyboard-response","73","287020","0.0-13.0-1.5","a","05","<p style=""font-size: 48px;"">+</p>","null","1","","","","","","",""
"553.0649999855086","","image-keyboard-response","74","287574","0.0-13.0-2.5","a","05","Images/whistle_1.png","65","1","1581379155499","match","whistle","whistle","label","test","true"
"null","","audio-keyboard-response","75","289591","0.0-13.0-3.5","a","05","Sounds/correct.wav","null","1","","","","","","",""
"null","","audio-keyboard-response","76","290707","0.0-13.0-0.6","a","05","Sounds/motorcycle_sound.wav","null","1","","","","","","",""
"null","","html-keyboard-response","77","291704","0.0-13.0-1.6","a","05","<p style=""font-size: 48px;"">+</p>","null","1","","","","","","",""
"837.5850000884384","","image-keyboard-response","78","292542","0.0-13.0-2.6","a","05","Images/gun_cartoon.png","76","1","1581379160183","non-match","gun","motorcycle","sound","test","true"
"null","","audio-keyboard-response","79","294557","0.0-13.0-3.6","a","05","Sounds/correct.wav","null","1","","","","","","",""
"null","","audio-keyboard-response","80","295627","0.0-13.0-0.7","a","05","Sounds/car_sound.wav","null","1","","","","","","",""
"null","","html-keyboard-response","81","296620","0.0-13.0-1.7","a","05","<p style=""font-size: 48px;"">+</p>","null","1","","","","","","",""
"521.1100000888109","","image-keyboard-response","82","297142","0.0-13.0-2.7","a","05","Images/car_2.png","65","1","1581379165099","match","car","car","sound","test","true"
"null","","audio-keyboard-response","83","299158","0.0-13.0-3.7","a","05","Sounds/correct.wav","null","1","","","","","","",""
"null","","audio-keyboard-response","84","299867","0.0-13.0-0.8","a","05","Sounds/whistle_sound.wav","null","1","","","","","","",""
"null","","html-keyboard-response","85","300870","0.0-13.0-1.8","a","05","<p style=""font-size: 48px;"">+</p>","null","1","","","","","","",""
"614.8800000082701","","image-keyboard-response","86","301486","0.0-13.0-2.8","a","05","Images/whistle_2.png","65","1","1581379169349","match","whistle","whistle","sound","test","true"
"null","","audio-keyboard-response","87","303493","0.0-13.0-3.8","a","05","Sounds/correct.wav","null","1","","","","","","",""
"null","","audio-keyboard-response","88","304327","0.0-13.0-0.9","a","05","Sounds/cat_sound.wav","null","1","","","","","","",""
"null","","html-keyboard-response","89","305320","0.0-13.0-1.9","a","05","<p style=""font-size: 48px;"">+</p>","null","1","","","","","","",""
"452.7749998960644","","image-keyboard-response","90","305774","0.0-13.0-2.9","a","05","Images/cat_1.png","65","1","1581379173800","match","cat","cat","sound","test","true"
"null","","audio-keyboard-response","91","307791","0.0-13.0-3.9","a","05","Sounds/correct.wav","null","1","","","","","","",""
"null","","audio-keyboard-response","92","308627","0.0-13.0-0.10","a","05","Sounds/cat_label.wav","null","1","","","","","","",""
"null","","html-keyboard-response","93","309620","0.0-13.0-1.10","a","05","<p style=""font-size: 48px;"">+</p>","null","1","","","","","","",""
"497.05000000540167","","image-keyboard-response","94","310118","0.0-13.0-2.10","a","05","Images/cat_cartoon.png","65","1","1581379178100","match","cat","cat","label","test","true"
"null","","audio-keyboard-response","95","312126","0.0-13.0-3.10","a","05","Sounds/correct.wav","null","1","","","","","","",""
"null","","audio-keyboard-response","96","313147","0.0-13.0-0.11","a","05","Sounds/cow_label.wav","null","1","","","","","","",""
"null","","html-keyboard-response","97","314137","0.0-13.0-1.11","a","05","<p style=""font-size: 48px;"">+</p>","null","1","","","","","","",""
"700.0700000207871","","image-keyboard-response","98","314838","0.0-13.0-2.11","a","05","Images/cow_2.png","65","1","1581379182616","match","cow","cow","label","test","true"
"null","","audio-keyboard-response","99","316845","0.0-13.0-3.11","a","05","Sounds/correct.wav","null","1","","","","","","",""
"null","","audio-keyboard-response","100","318127","0.0-13.0-0.12","a","05","Sounds/train_label.wav","null","1","","","","","","",""
"null","","html-keyboard-response","101","319121","0.0-13.0-1.12","a","05","<p style=""font-size: 48px;"">+</p>","null","1","","","","","","",""
"828.8050000555813","","image-keyboard-response","102","319950","0.0-13.0-2.12","a","05","Images/whistle_1.png","76","1","1581379187600","non-match","whistle","train","label","test","true"
"null","","audio-keyboard-response","103","321960","0.0-13.0-3.12","a","05","Sounds/correct.wav","null","1","","","","","","",""
"null","","audio-keyboard-response","104","322667","0.0-13.0-0.13","a","05","Sounds/dog_sound.wav","null","1","","","","","","",""
"null","","html-keyboard-response","105","323671","0.0-13.0-1.13","a","05","<p style=""font-size: 48px;"">+</p>","null","1","","","","","","",""
"686.5699999034405","","image-keyboard-response","106","324363","0.0-13.0-2.13","a","05","Images/motorcycle_cartoon.png","76","1","1581379192150","non-match","motorcycle","dog","sound","test","true"
"null","","audio-keyboard-response","107","326379","0.0-13.0-3.13","a","05","Sounds/correct.wav","null","1","","","","","","",""
"null","","audio-keyboard-response","108","327072","0.0-13.0-0.14","a","05","Sounds/rooster_sound.wav","null","1","","","","","","",""
"null","","html-keyboard-response","109","328076","0.0-13.0-1.14","a","05","<p style=""font-size: 48px;"">+</p>","null","1","","","","","","",""
"877.7400000253692","","image-keyboard-response","110","328955","0.0-13.0-2.14","a","05","Images/rooster_orig.png","65","1","1581379196555","match","rooster","rooster","sound","test","true"
"null","","audio-keyboard-response","111","330966","0.0-13.0-3.14","a","05","Sounds/correct.wav","null","1","","","","","","",""
"null","","audio-keyboard-response","112","331672","0.0-13.0-0.15","a","05","Sounds/whistle_sound.wav","null","1","","","","","","",""
"null","","html-keyboard-response","113","332676","0.0-13.0-1.15","a","05","<p style=""font-size: 48px;"">+</p>","null","1","","","","","","",""
"742.4850000534207","","image-keyboard-response","114","333419","0.0-13.0-2.15","a","05","Images/whistle_cartoon.png","65","1","1581379201155","match","whistle","whistle","sound","test","true"
"null","","audio-keyboard-response","115","335429","0.0-13.0-3.15","a","05","Sounds/correct.wav","null","1","","","","","","",""
"null","","audio-keyboard-response","116","336272","0.0-13.0-0.16","a","05","Sounds/cat_label.wav","null","1","","","","","","",""
"null","","html-keyboard-response","117","337276","0.0-13.0-1.16","a","05","<p style=""font-size: 48px;"">+</p>","null","1","","","","","","",""
"654.3149999342859","","image-keyboard-response","118","337931","0.0-13.0-2.16","a","05","Images/cat_3.png","65","1","1581379205755","match","cat","cat","label","test","true"
"null","","audio-keyboard-response","119","339948","0.0-13.0-3.16","a","05","Sounds/correct.wav","null","1","","","","","","",""
"null","","audio-keyboard-response","120","340652","0.0-13.0-0.17","a","05","Sounds/whistle_label.wav","null","1","","","","","","",""
"null","","html-keyboard-response","121","341642","0.0-13.0-1.17","a","05","<p style=""font-size: 48px;"">+</p>","null","1","","","","","","",""
"543.7150000361726","","image-keyboard-response","122","342187","0.0-13.0-2.17","a","05","Images/motorcycle_3.png","76","1","1581379210122","non-match","motorcycle","whistle","label","test","true"
"null","","audio-keyboard-response","123","344199","0.0-13.0-3.17","a","05","Sounds/correct.wav","null","1","","","","","","",""
"null","","audio-keyboard-response","124","345012","0.0-13.0-0.18","a","05","Sounds/cat_label.wav","null","1","","","","","","",""
"null","","html-keyboard-response","125","346009","0.0-13.0-1.18","a","05","<p style=""font-size: 48px;"">+</p>","null","1","","","","","","",""
"729.0650000795722","","image-keyboard-response","126","346739","0.0-13.0-2.18","a","05","Images/cow_2.png","76","1","1581379214488","non-match","cow","cat","label","test","true"
"null","","audio-keyboard-response","127","348748","0.0-13.0-3.18","a","05","Sounds/correct.wav","null","1","","","","","","",""
"null","","audio-keyboard-response","128","349332","0.0-13.0-0.19","a","05","Sounds/gun_sound.wav","null","1","","","","","","",""
"null","","html-keyboard-response","129","350326","0.0-13.0-1.19","a","05","<p style=""font-size: 48px;"">+</p>","null","1","","","","","","",""
"612.6800000201911","","image-keyboard-response","130","350939","0.0-13.0-2.19","a","05","Images/whistle_2.png","76","1","1581379218805","non-match","whistle","gun","sound","test","true"
"null","","audio-keyboard-response","131","352950","0.0-13.0-3.19","a","05","Sounds/correct.wav","null","1","","","","","","",""
"null","","audio-keyboard-response","132","354032","0.0-13.0-0.20","a","05","Sounds/car_sound.wav","null","1","","","","","","",""
"null","","html-keyboard-response","133","355026","0.0-13.0-1.20","a","05","<p style=""font-size: 48px;"">+</p>","null","1","","","","","","",""
"472.319999942556","","image-keyboard-response","134","355499","0.0-13.0-2.20","a","05","Images/cow_cartoon.png","76","1","1581379223505","non-match","cow","car","sound","test","true"
"null","","audio-keyboard-response","135","357513","0.0-13.0-3.20","a","05","Sounds/correct.wav","null","1","","","","","","",""
"null","","audio-keyboard-response","136","358092","0.0-13.0-0.21","a","05","Sounds/gun_label.wav","null","1","","","","","","",""
"null","","html-keyboard-response","137","359109","0.0-13.0-1.21","a","05","<p style=""font-size: 48px;"">+</p>","null","1","","","","","","",""
"373.06999997235835","","image-keyboard-response","138","359483","0.0-13.0-2.21","a","05","Images/gun_orig.png","65","1","1581379227588","match","gun","gun","label","test","true"
"null","","audio-keyboard-response","139","361494","0.0-13.0-3.21","a","05","Sounds/correct.wav","null","1","","","","","","",""
"null","","audio-keyboard-response","140","362552","0.0-13.0-0.22","a","05","Sounds/car_sound.wav","null","1","","","","","","",""
"null","","html-keyboard-response","141","363543","0.0-13.0-1.22","a","05","<p style=""font-size: 48px;"">+</p>","null","1","","","","","","",""
"579.8299999441952","","image-keyboard-response","142","364123","0.0-13.0-2.22","a","05","Images/car_3.png","65","1","1581379232022","match","car","car","sound","test","true"
"null","","audio-keyboard-response","143","366131","0.0-13.0-3.22","a","05","Sounds/correct.wav","null","1","","","","","","",""
"null","","audio-keyboard-response","144","367272","0.0-13.0-0.23","a","05","Sounds/motorcycle_label.wav","null","1","","","","","","",""
"null","","html-keyboard-response","145","368276","0.0-13.0-1.23","a","05","<p style=""font-size: 48px;"">+</p>","null","1","","","","","","",""
"565.8950000070035","","image-keyboard-response","146","368843","0.0-13.0-2.23","a","05","Images/motorcycle_cartoon.png","65","1","1581379236755","match","motorcycle","motorcycle","label","test","true"
"null","","audio-keyboard-response","147","370848","0.0-13.0-3.23","a","05","Sounds/correct.wav","null","1","","","","","","",""
"null","","audio-keyboard-response","148","371552","0.0-13.0-0.24","a","05","Sounds/rooster_label.wav","null","1","","","","","","",""
"null","","html-keyboard-response","149","372543","0.0-13.0-1.24","a","05","<p style=""font-size: 48px;"">+</p>","null","1","","","","","","",""
"659.4349999213591","","image-keyboard-response","150","373203","0.0-13.0-2.24","a","05","Images/dog_3.png","76","1","1581379241022","non-match","dog","rooster","label","test","true"
"null","","audio-keyboard-response","151","375214","0.0-13.0-3.24","a","05","Sounds/correct.wav","null","1","","","","","","",""
"null","","audio-keyboard-response","152","375932","0.0-13.0-0.25","a","05","Sounds/dog_sound.wav","null","1","","","","","","",""
"null","","html-keyboard-response","153","376926","0.0-13.0-1.25","a","05","<p style=""font-size: 48px;"">+</p>","null","1","","","","","","",""
"708.4000000031665","","image-keyboard-response","154","377635","0.0-13.0-2.25","a","05","Images/dog_orig.png","65","1","1581379245405","match","dog","dog","sound","test","true"
"null","","audio-keyboard-response","155","379650","0.0-13.0-3.25","a","05","Sounds/correct.wav","null","1","","","","","","",""
"null","","audio-keyboard-response","156","380332","0.0-13.0-0.26","a","05","Sounds/dog_sound.wav","null","1","","","","","","",""
"null","","html-keyboard-response","157","381326","0.0-13.0-1.26","a","05","<p style=""font-size: 48px;"">+</p>","null","1","","","","","","",""
"484.07999996561557","","image-keyboard-response","158","381811","0.0-13.0-2.26","a","05","Images/dog_1.png","65","1","1581379249805","match","dog","dog","sound","test","true"
"null","","audio-keyboard-response","159","383815","0.0-13.0-3.26","a","05","Sounds/correct.wav","null","1","","","","","","",""
"null","","audio-keyboard-response","160","384837","0.0-13.0-0.27","a","05","Sounds/cow_sound.wav","null","1","","","","","","",""
"null","","html-keyboard-response","161","385831","0.0-13.0-1.27","a","05","<p style=""font-size: 48px;"">+</p>","null","1","","","","","","",""
"840.169999981299","","image-keyboard-response","162","386672","0.0-13.0-2.27","a","05","Images/train_orig.png","76","1","1581379254310","non-match","train","cow","sound","test","true"
"null","","audio-keyboard-response","163","388684","0.0-13.0-3.27","a","05","Sounds/correct.wav","null","1","","","","","","",""
"null","","audio-keyboard-response","164","389377","0.0-13.0-0.28","a","05","Sounds/rooster_label.wav","null","1","","","","","","",""
"null","","html-keyboard-response","165","390382","0.0-13.0-1.28","a","05","<p style=""font-size: 48px;"">+</p>","null","1","","","","","","",""
"657.6049999566749","","image-keyboard-response","166","391040","0.0-13.0-2.28","a","05","Images/car_2.png","76","1","1581379258860","non-match","car","rooster","label","test","true"
"null","","audio-keyboard-response","167","393051","0.0-13.0-3.28","a","05","Sounds/correct.wav","null","1","","","","","","",""
"null","","audio-keyboard-response","168","393957","0.0-13.0-0.29","a","05","Sounds/frog_label.wav","null","1","","","","","","",""
"null","","html-keyboard-response","169","394948","0.0-13.0-1.29","a","05","<p style=""font-size: 48px;"">+</p>","null","1","","","","","","",""
"723.2500000391155","","image-keyboard-response","170","395672","0.0-13.0-2.29","a","05","Images/frog_3.png","65","1","1581379263427","match","frog","frog","label","test","true"
"null","","audio-keyboard-response","171","397686","0.0-13.0-3.29","a","05","Sounds/correct.wav","null","1","","","","","","",""
"null","","audio-keyboard-response","172","398257","0.0-13.0-0.30","a","05","Sounds/gun_sound.wav","null","1","","","","","","",""
"null","","html-keyboard-response","173","399248","0.0-13.0-1.30","a","05","<p style=""font-size: 48px;"">+</p>","null","1","","","","","","",""
"1231.2849999871105","","image-keyboard-response","174","400480","0.0-13.0-2.30","a","05","Images/gun_2.png","76","1","1581379267727","match","gun","gun","sound","test","false"
"null","","audio-keyboard-response","175","402487","0.0-13.0-3.30","a","05","Sounds/incorrect.wav","null","1","","","","","","",""
"null","","audio-keyboard-response","176","403197","0.0-13.0-0.31","a","05","Sounds/dog_sound.wav","null","1","","","","","","",""
"null","","html-keyboard-response","177","404215","0.0-13.0-1.31","a","05","<p style=""font-size: 48px;"">+</p>","null","1","","","","","","",""
"1272.6699999766424","","image-keyboard-response","178","405488","0.0-13.0-2.31","a","05","Images/rooster_orig.png","76","1","1581379272694","non-match","rooster","dog","sound","test","true"
"null","","audio-keyboard-response","179","407504","0.0-13.0-3.31","a","05","Sounds/correct.wav","null","1","","","","","","",""
"null","","audio-keyboard-response","180","408637","0.0-13.0-0.32","a","05","Sounds/motorcycle_label.wav","null","1","","","","","","",""
"null","","html-keyboard-response","181","409631","0.0-13.0-1.32","a","05","<p style=""font-size: 48px;"">+</p>","null","1","","","","","","",""
"567.7750000031665","","image-keyboard-response","182","410200","0.0-13.0-2.32","a","05","Images/dog_orig.png","76","1","1581379278111","non-match","dog","motorcycle","label","test","true"
"null","","audio-keyboard-response","183","412205","0.0-13.0-3.32","a","05","Sounds/correct.wav","null","1","","","","","","",""
"null","","audio-keyboard-response","184","413277","0.0-13.0-0.33","a","05","Sounds/car_sound.wav","null","1","","","","","","",""
"null","","html-keyboard-response","185","414281","0.0-13.0-1.33","a","05","<p style=""font-size: 48px;"">+</p>","null","1","","","","","","",""
"845.7850000122562","","image-keyboard-response","186","415128","0.0-13.0-2.33","a","05","Images/frog_2.png","76","1","1581379282761","non-match","frog","car","sound","test","true"
"null","","audio-keyboard-response","187","417137","0.0-13.0-3.33","a","05","Sounds/correct.wav","null","1","","","","","","",""
"null","","audio-keyboard-response","188","417837","0.0-13.0-0.34","a","05","Sounds/dog_sound.wav","null","1","","","","","","",""
"null","","html-keyboard-response","189","418832","0.0-13.0-1.34","a","05","<p style=""font-size: 48px;"">+</p>","null","1","","","","","","",""
"767.4950000364333","","image-keyboard-response","190","419600","0.0-13.0-2.34","a","05","Images/dog_3.png","65","1","1581379287311","match","dog","dog","sound","test","true"
"null","","audio-keyboard-response","191","421603","0.0-13.0-3.34","a","05","Sounds/correct.wav","null","1","","","","","","",""
"null","","audio-keyboard-response","192","422497","0.0-13.0-0.35","a","05","Sounds/frog_label.wav","null","1","","","","","","",""
"null","","html-keyboard-response","193","423515","0.0-13.0-1.35","a","05","<p style=""font-size: 48px;"">+</p>","null","1","","","","","","",""
"556.3300000503659","","image-keyboard-response","194","424072","0.0-13.0-2.35","a","05","Images/motorcycle_orig.png","76","1","1581379291994","non-match","motorcycle","frog","label","test","true"
"null","","audio-keyboard-response","195","426086","0.0-13.0-3.35","a","05","Sounds/correct.wav","null","1","","","","","","",""
"null","","audio-keyboard-response","196","426957","0.0-13.0-0.36","a","05","Sounds/frog_label.wav","null","1","","","","","","",""
"null","","html-keyboard-response","197","427948","0.0-13.0-1.36","a","05","<p style=""font-size: 48px;"">+</p>","null","1","","","","","","",""
"514.8849999532104","","image-keyboard-response","198","428464","0.0-13.0-2.36","a","05","Images/rooster_3.png","76","1","1581379296427","non-match","rooster","frog","label","test","true"
"null","","audio-keyboard-response","199","430472","0.0-13.0-3.36","a","05","Sounds/correct.wav","null","1","","","","","","",""
"null","","audio-keyboard-response","200","431497","0.0-13.0-0.37","a","05","Sounds/cow_label.wav","null","1","","","","","","",""
"null","","html-keyboard-response","201","432515","0.0-13.0-1.37","a","05","<p style=""font-size: 48px;"">+</p>","null","1","","","","","","",""
"564.2999999690801","","image-keyboard-response","202","433080","0.0-13.0-2.37","a","05","Images/cow_orig.png","65","1","1581379300994","match","cow","cow","label","test","true"
"null","","audio-keyboard-response","203","435089","0.0-13.0-3.37","a","05","Sounds/correct.wav","null","1","","","","","","",""
"null","","audio-keyboard-response","204","436077","0.0-13.0-0.38","a","05","Sounds/cow_label.wav","null","1","","","","","","",""
"null","","html-keyboard-response","205","437082","0.0-13.0-1.38","a","05","<p style=""font-size: 48px;"">+</p>","null","1","","","","","","",""
"565.2649999829009","","image-keyboard-response","206","437648","0.0-13.0-2.38","a","05","Images/cat_3.png","76","1","1581379305561","non-match","cat","cow","label","test","true"
"null","","audio-keyboard-response","207","439656","0.0-13.0-3.38","a","05","Sounds/correct.wav","null","1","","","","","","",""
"null","","audio-keyboard-response","208","440357","0.0-13.0-0.39","a","05","Sounds/rooster_label.wav","null","1","","","","","","",""
"null","","html-keyboard-response","209","441348","0.0-13.0-1.39","a","05","<p style=""font-size: 48px;"">+</p>","null","1","","","","","","",""
"682.6599999330938","","image-keyboard-response","210","442032","0.0-13.0-2.39","a","05","Images/rooster_2.png","65","1","1581379309828","match","rooster","rooster","label","test","true"
"null","","audio-keyboard-response","211","444040","0.0-13.0-3.39","a","05","Sounds/correct.wav","null","1","","","","","","",""
"null","","audio-keyboard-response","212","444737","0.0-13.0-0.40","a","05","Sounds/whistle_label.wav","null","1","","","","","","",""
"null","","html-keyboard-response","213","445737","0.0-13.0-1.40","a","05","<p style=""font-size: 48px;"">+</p>","null","1","","","","","","",""
"907.6099999947473","","image-keyboard-response","214","446646","0.0-13.0-2.40","a","05","Images/frog_3.png","76","1","1581379314216","non-match","frog","whistle","label","test","true"
"null","","audio-keyboard-response","215","448652","0.0-13.0-3.40","a","05","Sounds/correct.wav","null","1","","","","","","",""
"null","","audio-keyboard-response","216","449502","0.0-13.0-0.41","a","05","Sounds/cat_sound.wav","null","1","","","","","","",""
"null","","html-keyboard-response","217","450520","0.0-13.0-1.41","a","05","<p style=""font-size: 48px;"">+</p>","null","1","","","","","","",""
"876.164999906905","","image-keyboard-response","218","451397","0.0-13.0-2.41","a","05","Images/gun_1.png","76","1","1581379319000","non-match","gun","cat","sound","test","true"
"null","","audio-keyboard-response","219","453408","0.0-13.0-3.41","a","05","Sounds/correct.wav","null","1","","","","","","",""
"null","","audio-keyboard-response","220","454062","0.0-13.0-0.42","a","05","Sounds/dog_label.wav","null","1","","","","","","",""
"null","","html-keyboard-response","221","455054","0.0-13.0-1.42","a","05","<p style=""font-size: 48px;"">+</p>","null","1","","","","","","",""
"662.6549999928102","","image-keyboard-response","222","455718","0.0-13.0-2.42","a","05","Images/gun_2.png","76","1","1581379323533","non-match","gun","dog","label","test","true"
"null","","audio-keyboard-response","223","457726","0.0-13.0-3.42","a","05","Sounds/correct.wav","null","1","","","","","","",""
"null","","audio-keyboard-response","224","458622","0.0-13.0-0.43","a","05","Sounds/frog_label.wav","null","1","","","","","","",""
"null","","html-keyboard-response","225","459621","0.0-13.0-1.43","a","05","<p style=""font-size: 48px;"">+</p>","null","1","","","","","","",""
"424.0950000239536","","image-keyboard-response","226","460046","0.0-13.0-2.43","a","05","Images/frog_2.png","65","1","1581379328100","match","frog","frog","label","test","true"
"null","","audio-keyboard-response","227","462060","0.0-13.0-3.43","a","05","Sounds/correct.wav","null","1","","","","","","",""
"null","","audio-keyboard-response","228","463082","0.0-13.0-0.44","a","05","Sounds/cow_sound.wav","null","1","","","","","","",""
"null","","html-keyboard-response","229","464088","0.0-13.0-1.44","a","05","<p style=""font-size: 48px;"">+</p>","null","1","","","","","","",""
"533.24000001885","","image-keyboard-response","230","464622","0.0-13.0-2.44","a","05","Images/cow_3.png","65","1","1581379332566","match","cow","cow","sound","test","true"
"null","","audio-keyboard-response","231","466628","0.0-13.0-3.44","a","05","Sounds/correct.wav","null","1","","","","","","",""
"null","","audio-keyboard-response","232","467642","0.0-13.0-0.45","a","05","Sounds/cow_label.wav","null","1","","","","","","",""
"null","","html-keyboard-response","233","468637","0.0-13.0-1.45","a","05","<p style=""font-size: 48px;"">+</p>","null","1","","","","","","",""
"519.2399999359623","","image-keyboard-response","234","469157","0.0-13.0-2.45","a","05","Images/cow_cartoon.png","65","1","1581379337116","match","cow","cow","label","test","true"
"null","","audio-keyboard-response","235","471175","0.0-13.0-3.45","a","05","Sounds/correct.wav","null","1","","","","","","",""
"null","","audio-keyboard-response","236","472482","0.0-13.0-0.46","a","05","Sounds/train_sound.wav","null","1","","","","","","",""
"null","","html-keyboard-response","237","473488","0.0-13.0-1.46","a","05","<p style=""font-size: 48px;"">+</p>","null","1","","","","","","",""
"628.9200000464916","","image-keyboard-response","238","474118","0.0-13.0-2.46","a","05","Images/train_cartoon.png","65","1","1581379341967","match","train","train","sound","test","true"
"null","","audio-keyboard-response","239","476129","0.0-13.0-3.46","a","05","Sounds/correct.wav","null","1","","","","","","",""
"null","","audio-keyboard-response","240","476842","0.0-13.0-0.47","a","05","Sounds/dog_sound.wav","null","1","","","","","","",""
"null","","html-keyboard-response","241","477837","0.0-13.0-1.47","a","05","<p style=""font-size: 48px;"">+</p>","null","1","","","","","","",""
"735.1799999596551","","image-keyboard-response","242","478574","0.0-13.0-2.47","a","05","Images/cat_2.png","76","1","1581379346317","non-match","cat","dog","sound","test","true"
"null","","audio-keyboard-response","243","480578","0.0-13.0-3.47","a","05","Sounds/correct.wav","null","1","","","","","","",""
"null","","audio-keyboard-response","244","481422","0.0-13.0-0.48","a","05","Sounds/cat_sound.wav","null","1","","","","","","",""
"null","","html-keyboard-response","245","482421","0.0-13.0-1.48","a","05","<p style=""font-size: 48px;"">+</p>","null","1","","","","","","",""
"775.8749999338761","","image-keyboard-response","246","483198","0.0-13.0-2.48","a","05","Images/rooster_2.png","76","1","1581379350900","non-match","rooster","cat","sound","test","true"
"null","","audio-keyboard-response","247","485209","0.0-13.0-3.48","a","05","Sounds/correct.wav","null","1","","","","","","",""
"null","","audio-keyboard-response","248","485862","0.0-13.0-0.49","a","05","Sounds/dog_label.wav","null","1","","","","","","",""
"null","","html-keyboard-response","249","486854","0.0-13.0-1.49","a","05","<p style=""font-size: 48px;"">+</p>","null","1","","","","","","",""
"734.5350000541657","","image-keyboard-response","250","487590","0.0-13.0-2.49","a","05","Images/cow_1.png","76","1","1581379355333","non-match","cow","dog","label","test","true"
"null","","audio-keyboard-response","251","489593","0.0-13.0-3.49","a","05","Sounds/correct.wav","null","1","","","","","","",""
"null","","audio-keyboard-response","252","490282","0.0-13.0-0.50","a","05","Sounds/whistle_label.wav","null","1","","","","","","",""
"null","","html-keyboard-response","253","491271","0.0-13.0-1.50","a","05","<p style=""font-size: 48px;"">+</p>","null","1","","","","","","",""
"613.4699999820441","","image-keyboard-response","254","491886","0.0-13.0-2.50","a","05","Images/cat_orig.png","76","1","1581379359750","non-match","cat","whistle","label","test","true"
"null","","audio-keyboard-response","255","493893","0.0-13.0-3.50","a","05","Sounds/correct.wav","null","1","","","","","","",""
"null","","audio-keyboard-response","256","494902","0.0-13.0-0.51","a","05","Sounds/cow_sound.wav","null","1","","","","","","",""
"null","","html-keyboard-response","257","495921","0.0-13.0-1.51","a","05","<p style=""font-size: 48px;"">+</p>","null","1","","","","","","",""
"347.30500006116927","","image-keyboard-response","258","496270","0.0-13.0-2.51","a","05","Images/cow_1.png","65","1","1581379364400","match","cow","cow","sound","test","true"
"null","","audio-keyboard-response","259","498277","0.0-13.0-3.51","a","05","Sounds/correct.wav","null","1","","","","","","",""
"null","","audio-keyboard-response","260","499102","0.0-13.0-0.52","a","05","Sounds/cat_sound.wav","null","1","","","","","","",""
"null","","html-keyboard-response","261","500104","0.0-13.0-1.52","a","05","<p style=""font-size: 48px;"">+</p>","null","1","","","","","","",""
"748.5399999422953","","image-keyboard-response","262","500854","0.0-13.0-2.52","a","05","Images/cat_2.png","65","1","1581379368583","match","cat","cat","sound","test","true"
"null","","audio-keyboard-response","263","502860","0.0-13.0-3.52","a","05","Sounds/correct.wav","null","1","","","","","","",""
"null","","audio-keyboard-response","264","503542","0.0-13.0-0.53","a","05","Sounds/whistle_label.wav","null","1","","","","","","",""
"null","","html-keyboard-response","265","504538","0.0-13.0-1.53","a","05","<p style=""font-size: 48px;"">+</p>","null","1","","","","","","",""
"1002.9399999184534","","image-keyboard-response","266","505542","0.0-13.0-2.53","a","05","Images/whistle_3.png","65","1","1581379373017","match","whistle","whistle","label","test","true"
"null","","audio-keyboard-response","267","507564","0.0-13.0-3.53","a","05","Sounds/correct.wav","null","1","","","","","","",""
"null","","audio-keyboard-response","268","508147","0.0-13.0-0.54","a","05","Sounds/gun_label.wav","null","1","","","","","","",""
"null","","html-keyboard-response","269","509143","0.0-13.0-1.54","a","05","<p style=""font-size: 48px;"">+</p>","null","1","","","","","","",""
"706.6399999894202","","image-keyboard-response","270","509850","0.0-13.0-2.54","a","05","Images/gun_3.png","65","1","1581379377622","match","gun","gun","label","test","true"
"null","","audio-keyboard-response","271","511863","0.0-13.0-3.54","a","05","Sounds/correct.wav","null","1","","","","","","",""
"null","","audio-keyboard-response","272","513147","0.0-13.0-0.55","a","05","Sounds/train_label.wav","null","1","","","","","","",""
"null","","html-keyboard-response","273","514143","0.0-13.0-1.55","a","05","<p style=""font-size: 48px;"">+</p>","null","1","","","","","","",""
"675.0400000018999","","image-keyboard-response","274","514819","0.0-13.0-2.55","a","05","Images/cat_1.png","76","1","1581379382622","non-match","cat","train","label","test","true"
"null","","audio-keyboard-response","275","516830","0.0-13.0-3.55","a","05","Sounds/correct.wav","null","1","","","","","","",""
"null","","audio-keyboard-response","276","517387","0.0-13.0-0.56","a","05","Sounds/gun_label.wav","null","1","","","","","","",""
"null","","html-keyboard-response","277","518376","0.0-13.0-1.56","a","05","<p style=""font-size: 48px;"">+</p>","null","1","","","","","","",""
"633.2499999552965","","image-keyboard-response","278","519011","0.0-13.0-2.56","a","05","Images/gun_cartoon.png","65","1","1581379386855","match","gun","gun","label","test","true"
"null","","audio-keyboard-response","279","521020","0.0-13.0-3.56","a","05","Sounds/correct.wav","null","1","","","","","","",""
"null","","audio-keyboard-response","280","522167","0.0-13.0-0.57","a","05","Sounds/motorcycle_label.wav","null","1","","","","","","",""
"null","","html-keyboard-response","281","523160","0.0-13.0-1.57","a","05","<p style=""font-size: 48px;"">+</p>","null","1","","","","","","",""
"602.0900000585243","","image-keyboard-response","282","523763","0.0-13.0-2.57","a","05","Images/motorcycle_orig.png","65","1","1581379391639","match","motorcycle","motorcycle","label","test","true"
"null","","audio-keyboard-response","283","525780","0.0-13.0-3.57","a","05","Sounds/correct.wav","null","1","","","","","","",""
"null","","audio-keyboard-response","284","526487","0.0-13.0-0.58","a","05","Sounds/rooster_sound.wav","null","1","","","","","","",""
"null","","html-keyboard-response","285","527476","0.0-13.0-1.58","a","05","<p style=""font-size: 48px;"">+</p>","null","1","","","","","","",""
"533.460000064224","","image-keyboard-response","286","528011","0.0-13.0-2.58","a","05","Images/rooster_3.png","65","1","1581379395955","match","rooster","rooster","sound","test","true"
"null","","audio-keyboard-response","287","530017","0.0-13.0-3.58","a","05","Sounds/correct.wav","null","1","","","","","","",""
"null","","audio-keyboard-response","288","531307","0.0-13.0-0.59","a","05","Sounds/train_sound.wav","null","1","","","","","","",""
"null","","html-keyboard-response","289","532310","0.0-13.0-1.59","a","05","<p style=""font-size: 48px;"">+</p>","null","1","","","","","","",""
"395.6900000339374","","image-keyboard-response","290","532707","0.0-13.0-2.59","a","05","Images/train_1.png","65","1","1581379400789","match","train","train","sound","test","true"
"null","","audio-keyboard-response","291","534715","0.0-13.0-3.59","a","05","Sounds/correct.wav","null","1","","","","","","",""
"null","","audio-keyboard-response","292","535987","0.0-13.0-0.60","a","05","Sounds/train_sound.wav","null","1","","","","","","",""
"null","","html-keyboard-response","293","536993","0.0-13.0-1.60","a","05","<p style=""font-size: 48px;"">+</p>","null","1","","","","","","",""
"960.3349999524653","","image-keyboard-response","294","537954","0.0-13.0-2.60","a","05","Images/frog_orig.png","76","1","1581379405472","non-match","frog","train","sound","test","true"
"null","","audio-keyboard-response","295","539963","0.0-13.0-3.60","a","05","Sounds/correct.wav","null","1","","","","","","",""
"null","","audio-keyboard-response","296","540867","0.0-13.0-0.61","a","05","Sounds/frog_sound.wav","null","1","","","","","","",""
"null","","html-keyboard-response","297","541860","0.0-13.0-1.61","a","05","<p style=""font-size: 48px;"">+</p>","null","1","","","","","","",""
"653.9000000339001","","image-keyboard-response","298","542515","0.0-13.0-2.61","a","05","Images/gun_3.png","76","1","1581379410339","non-match","gun","frog","sound","test","true"
"null","","audio-keyboard-response","299","544531","0.0-13.0-3.61","a","05","Sounds/correct.wav","null","1","","","","","","",""
"null","","audio-keyboard-response","300","545607","0.0-13.0-0.62","a","05","Sounds/car_label.wav","null","1","","","","","","",""
"null","","html-keyboard-response","301","546610","0.0-13.0-1.62","a","05","<p style=""font-size: 48px;"">+</p>","null","1","","","","","","",""
"703.6200000438839","","image-keyboard-response","302","547315","0.0-13.0-2.62","a","05","Images/car_cartoon.png","65","1","1581379415089","match","car","car","label","test","true"
"null","","audio-keyboard-response","303","549330","0.0-13.0-3.62","a","05","Sounds/correct.wav","null","1","","","","","","",""
"null","","audio-keyboard-response","304","550387","0.0-13.0-0.63","a","05","Sounds/car_label.wav","null","1","","","","","","",""
"null","","html-keyboard-response","305","551377","0.0-13.0-1.63","a","05","<p style=""font-size: 48px;"">+</p>","null","1","","","","","","",""
"1177.0500000566244","","image-keyboard-response","306","552555","0.0-13.0-2.63","a","05","Images/train_cartoon.png","76","1","1581379419856","non-match","train","car","label","test","true"
"null","","audio-keyboard-response","307","554570","0.0-13.0-3.63","a","05","Sounds/correct.wav","null","1","","","","","","",""
"null","","audio-keyboard-response","308","555267","0.0-13.0-0.64","a","05","Sounds/rooster_label.wav","null","1","","","","","","",""
"null","","html-keyboard-response","309","556260","0.0-13.0-1.64","a","05","<p style=""font-size: 48px;"">+</p>","null","1","","","","","","",""
"525.4200000781566","","image-keyboard-response","310","556787","0.0-13.0-2.64","a","05","Images/motorcycle_2.png","76","1","1581379424739","non-match","motorcycle","rooster","label","test","true"
"null","","audio-keyboard-response","311","558797","0.0-13.0-3.64","a","05","Sounds/correct.wav","null","1","","","","","","",""
"null","","audio-keyboard-response","312","559367","0.0-13.0-0.65","a","05","Sounds/gun_sound.wav","null","1","","","","","","",""
"null","","html-keyboard-response","313","560360","0.0-13.0-1.65","a","05","<p style=""font-size: 48px;"">+</p>","null","1","","","","","","",""
"793.5200000647455","","image-keyboard-response","314","561155","0.0-13.0-2.65","a","05","Images/cow_orig.png","76","1","1581379428839","non-match","cow","gun","sound","test","true"
"null","","audio-keyboard-response","315","563164","0.0-13.0-3.65","a","05","Sounds/correct.wav","null","1","","","","","","",""
"null","","audio-keyboard-response","316","564007","0.0-13.0-0.66","a","05","Sounds/cat_sound.wav","null","1","","","","","","",""
"null","","html-keyboard-response","317","565010","0.0-13.0-1.66","a","05","<p style=""font-size: 48px;"">+</p>","null","1","","","","","","",""
"671.3500000769272","","image-keyboard-response","318","565683","0.0-13.0-2.66","a","05","Images/dog_cartoon.png","76","1","1581379433489","non-match","dog","cat","sound","test","true"
"null","","audio-keyboard-response","319","567703","0.0-13.0-3.66","a","05","Sounds/correct.wav","null","1","","","","","","",""
"null","","audio-keyboard-response","320","568392","0.0-13.0-0.67","a","05","Sounds/rooster_sound.wav","null","1","","","","","","",""
"null","","html-keyboard-response","321","569382","0.0-13.0-1.67","a","05","<p style=""font-size: 48px;"">+</p>","null","1","","","","","","",""
"800.8850000333041","","image-keyboard-response","322","570183","0.0-13.0-2.67","a","05","Images/rooster_1.png","65","1","1581379437861","match","rooster","rooster","sound","test","true"
"null","","audio-keyboard-response","323","572187","0.0-13.0-3.67","a","05","Sounds/correct.wav","null","1","","","","","","",""
"null","","audio-keyboard-response","324","573332","0.0-13.0-0.68","a","05","Sounds/motorcycle_label.wav","null","1","","","","","","",""
"null","","html-keyboard-response","325","574332","0.0-13.0-1.68","a","05","<p style=""font-size: 48px;"">+</p>","null","1","","","","","","",""
"714.9799999315292","","image-keyboard-response","326","575048","0.0-13.0-2.68","a","05","Images/motorcycle_3.png","65","1","1581379442811","match","motorcycle","motorcycle","label","test","true"
"null","","audio-keyboard-response","327","577055","0.0-13.0-3.68","a","05","Sounds/correct.wav","null","1","","","","","","",""
"null","","audio-keyboard-response","328","577632","0.0-13.0-0.69","a","05","Sounds/gun_sound.wav","null","1","","","","","","",""
"null","","html-keyboard-response","329","578632","0.0-13.0-1.69","a","05","<p style=""font-size: 48px;"">+</p>","null","1","","","","","","",""
"855.0749999703839","","image-keyboard-response","330","579488","0.0-13.0-2.69","a","05","Images/gun_1.png","65","1","1581379447111","match","gun","gun","sound","test","true"
"null","","audio-keyboard-response","331","581502","0.0-13.0-3.69","a","05","Sounds/correct.wav","null","1","","","","","","",""
"null","","audio-keyboard-response","332","582212","0.0-13.0-0.70","a","05","Sounds/dog_sound.wav","null","1","","","","","","",""
"null","","html-keyboard-response","333","583215","0.0-13.0-1.70","a","05","<p style=""font-size: 48px;"">+</p>","null","1","","","","","","",""
"463.1749999243766","","image-keyboard-response","334","583679","0.0-13.0-2.70","a","05","Images/dog_cartoon.png","65","1","1581379451694","match","dog","dog","sound","test","true"
"null","","audio-keyboard-response","335","585691","0.0-13.0-3.70","a","05","Sounds/correct.wav","null","1","","","","","","",""
"null","","audio-keyboard-response","336","586592","0.0-13.0-0.71","a","05","Sounds/frog_label.wav","null","1","","","","","","",""
"null","","html-keyboard-response","337","587582","0.0-13.0-1.71","a","05","<p style=""font-size: 48px;"">+</p>","null","1","","","","","","",""
"599.4249999057502","","image-keyboard-response","338","588183","0.0-13.0-2.71","a","05","Images/frog_cartoon.png","65","1","1581379456061","match","frog","frog","label","test","true"
"null","","audio-keyboard-response","339","590187","0.0-13.0-3.71","a","05","Sounds/correct.wav","null","1","","","","","","",""
"null","","audio-keyboard-response","340","591052","0.0-13.0-0.72","a","05","Sounds/frog_label.wav","null","1","","","","","","",""
"null","","html-keyboard-response","341","592049","0.0-13.0-1.72","a","05","<p style=""font-size: 48px;"">+</p>","null","1","","","","","","",""
"430.0800000783056","","image-keyboard-response","342","592480","0.0-13.0-2.72","a","05","Images/frog_1.png","65","1","1581379460528","match","frog","frog","label","test","true"
"null","","audio-keyboard-response","343","594485","0.0-13.0-3.72","a","05","Sounds/correct.wav","null","1","","","","","","",""
"null","","audio-keyboard-response","344","595792","0.0-13.0-0.73","a","05","Sounds/train_sound.wav","null","1","","","","","","",""
"null","","html-keyboard-response","345","596782","0.0-13.0-1.73","a","05","<p style=""font-size: 48px;"">+</p>","null","1","","","","","","",""
"464.6450000582263","","image-keyboard-response","346","597248","0.0-13.0-2.73","a","05","Images/train_2.png","65","1","1581379465261","match","train","train","sound","test","true"
"null","","audio-keyboard-response","347","599256","0.0-13.0-3.73","a","05","Sounds/correct.wav","null","1","","","","","","",""
"null","","audio-keyboard-response","348","599832","0.0-13.0-0.74","a","05","Sounds/gun_sound.wav","null","1","","","","","","",""
"null","","html-keyboard-response","349","600832","0.0-13.0-1.74","a","05","<p style=""font-size: 48px;"">+</p>","null","1","","","","","","",""
"590.3699999907985","","image-keyboard-response","350","601423","0.0-13.0-2.74","a","05","Images/car_3.png","76","1","1581379469311","non-match","car","gun","sound","test","true"
"null","","audio-keyboard-response","351","603436","0.0-13.0-3.74","a","05","Sounds/correct.wav","null","1","","","","","","",""
"null","","audio-keyboard-response","352","604352","0.0-13.0-0.75","a","05","Sounds/frog_sound.wav","null","1","","","","","","",""
"null","","html-keyboard-response","353","605349","0.0-13.0-1.75","a","05","<p style=""font-size: 48px;"">+</p>","null","1","","","","","","",""
"721.819999977015","","image-keyboard-response","354","606072","0.0-13.0-2.75","a","05","Images/car_orig.png","76","1","1581379473828","non-match","car","frog","sound","test","true"
"null","","audio-keyboard-response","355","608086","0.0-13.0-3.75","a","05","Sounds/correct.wav","null","1","","","","","","",""
"null","","audio-keyboard-response","356","609172","0.0-13.0-0.76","a","05","Sounds/car_sound.wav","null","1","","","","","","",""
"null","","html-keyboard-response","357","610166","0.0-13.0-1.76","a","05","<p style=""font-size: 48px;"">+</p>","null","1","","","","","","",""
"1025.2450000261888","","image-keyboard-response","358","611192","0.0-13.0-2.76","a","05","Images/whistle_3.png","76","1","1581379478644","non-match","whistle","car","sound","test","true"
"null","","audio-keyboard-response","359","613203","0.0-13.0-3.76","a","05","Sounds/correct.wav","null","1","","","","","","",""
"null","","audio-keyboard-response","360","614092","0.0-13.0-0.77","a","05","Sounds/frog_sound.wav","null","1","","","","","","",""
"null","","html-keyboard-response","361","615082","0.0-13.0-1.77","a","05","<p style=""font-size: 48px;"">+</p>","null","1","","","","","","",""
"1188.620000029914","","image-keyboard-response","362","616272","0.0-13.0-2.77","a","05","Images/frog_orig.png","65","1","1581379483561","match","frog","frog","sound","test","true"
"null","","audio-keyboard-response","363","618287","0.0-13.0-3.77","a","05","Sounds/correct.wav","null","1","","","","","","",""
"null","","audio-keyboard-response","364","619572","0.0-13.0-0.78","a","05","Sounds/train_sound.wav","null","1","","","","","","",""
"null","","html-keyboard-response","365","620566","0.0-13.0-1.78","a","05","<p style=""font-size: 48px;"">+</p>","null","1","","","","","","",""
"456.79500000551343","","image-keyboard-response","366","621023","0.0-13.0-2.78","a","05","Images/train_3.png","65","1","1581379489045","match","train","train","sound","test","true"
"null","","audio-keyboard-response","367","623035","0.0-13.0-3.78","a","05","Sounds/correct.wav","null","1","","","","","","",""
"null","","audio-keyboard-response","368","624092","0.0-13.0-0.79","a","05","Sounds/car_sound.wav","null","1","","","","","","",""
"null","","html-keyboard-response","369","625082","0.0-13.0-1.79","a","05","<p style=""font-size: 48px;"">+</p>","null","1","","","","","","",""
"436.42499996349216","","image-keyboard-response","370","625520","0.0-13.0-2.79","a","05","Images/cat_cartoon.png","76","1","1581379493561","non-match","cat","car","sound","test","true"
"null","","audio-keyboard-response","371","627536","0.0-13.0-3.79","a","05","Sounds/correct.wav","null","1","","","","","","",""
"null","","audio-keyboard-response","372","628433","0.0-13.0-0.80","a","05","Sounds/frog_sound.wav","null","1","","","","","","",""
"null","","html-keyboard-response","373","629433","0.0-13.0-1.80","a","05","<p style=""font-size: 48px;"">+</p>","null","1","","","","","","",""
"414.19000003952533","","image-keyboard-response","374","629848","0.0-13.0-2.80","a","05","Images/cow_3.png","76","1","1581379497912","non-match","cow","frog","sound","test","true"
"null","","audio-keyboard-response","375","631856","0.0-13.0-3.80","a","05","Sounds/correct.wav","null","1","","","","","","",""
"null","","audio-keyboard-response","376","633133","0.0-13.0-0.81","a","05","Sounds/train_label.wav","null","1","","","","","","",""
"null","","html-keyboard-response","377","634133","0.0-13.0-1.81","a","05","<p style=""font-size: 48px;"">+</p>","null","1","","","","","","",""
"546.280000009574","","image-keyboard-response","378","634680","0.0-13.0-2.81","a","05","Images/rooster_cartoon.png","76","1","1581379502612","non-match","rooster","train","label","test","true"
"null","","audio-keyboard-response","379","636688","0.0-13.0-3.81","a","05","Sounds/correct.wav","null","1","","","","","","",""
"null","","audio-keyboard-response","380","637813","0.0-13.0-0.82","a","05","Sounds/motorcycle_sound.wav","null","1","","","","","","",""
"null","","html-keyboard-response","381","638816","0.0-13.0-1.82","a","05","<p style=""font-size: 48px;"">+</p>","null","1","","","","","","",""
"478.5649999976158","","image-keyboard-response","382","639296","0.0-13.0-2.82","a","05","Images/motorcycle_2.png","65","1","1581379507295","match","motorcycle","motorcycle","sound","test","true"
"null","","audio-keyboard-response","383","641305","0.0-13.0-3.82","a","05","Sounds/correct.wav","null","1","","","","","","",""
"null","","audio-keyboard-response","384","642333","0.0-13.0-0.83","a","05","Sounds/cow_sound.wav","null","1","","","","","","",""
"null","","html-keyboard-response","385","643333","0.0-13.0-1.83","a","05","<p style=""font-size: 48px;"">+</p>","null","1","","","","","","",""
"633.7599999969825","","image-keyboard-response","386","643968","0.0-13.0-2.83","a","05","Images/gun_orig.png","76","1","1581379511812","non-match","gun","cow","sound","test","true"
"null","","audio-keyboard-response","387","645988","0.0-13.0-3.83","a","05","Sounds/correct.wav","null","1","","","","","","",""
"null","","audio-keyboard-response","388","646573","0.0-13.0-0.84","a","05","Sounds/gun_label.wav","null","1","","","","","","",""
"null","","html-keyboard-response","389","647566","0.0-13.0-1.84","a","05","<p style=""font-size: 48px;"">+</p>","null","1","","","","","","",""
"440.4799999902025","","image-keyboard-response","390","648008","0.0-13.0-2.84","a","05","Images/train_1.png","76","1","1581379516045","non-match","train","gun","label","test","true"
"null","","audio-keyboard-response","391","650020","0.0-13.0-3.84","a","05","Sounds/correct.wav","null","1","","","","","","",""
"null","","audio-keyboard-response","392","651093","0.0-13.0-0.85","a","05","Sounds/car_label.wav","null","1","","","","","","",""
"null","","html-keyboard-response","393","652083","0.0-13.0-1.85","a","05","<p style=""font-size: 48px;"">+</p>","null","1","","","","","","",""
"385.6199999572709","","image-keyboard-response","394","652472","0.0-13.0-2.85","a","05","Images/car_orig.png","65","1","1581379520562","match","car","car","label","test","true"
"null","","audio-keyboard-response","395","654488","0.0-13.0-3.85","a","05","Sounds/correct.wav","null","1","","","","","","",""
"null","","audio-keyboard-response","396","655193","0.0-13.0-0.86","a","05","Sounds/whistle_label.wav","null","1","","","","","","",""
"null","","html-keyboard-response","397","656183","0.0-13.0-1.86","a","05","<p style=""font-size: 48px;"">+</p>","null","1","","","","","","",""
"663.9250000007451","","image-keyboard-response","398","656848","0.0-13.0-2.86","a","05","Images/dog_1.png","76","1","1581379524662","non-match","dog","whistle","label","test","true"
"null","","audio-keyboard-response","399","658857","0.0-13.0-3.86","a","05","Sounds/correct.wav","null","1","","","","","","",""
"null","","audio-keyboard-response","400","659993","0.0-13.0-0.87","a","05","Sounds/motorcycle_label.wav","null","1","","","","","","",""
"null","","html-keyboard-response","401","660983","0.0-13.0-1.87","a","05","<p style=""font-size: 48px;"">+</p>","null","1","","","","","","",""
"495.9149999776855","","image-keyboard-response","402","661480","0.0-13.0-2.87","a","05","Images/whistle_cartoon.png","76","1","1581379529462","non-match","whistle","motorcycle","label","test","true"
"null","","audio-keyboard-response","403","663490","0.0-13.0-3.87","a","05","Sounds/correct.wav","null","1","","","","","","",""
"null","","audio-keyboard-response","404","664513","0.0-13.0-0.88","a","05","Sounds/cow_label.wav","null","1","","","","","","",""
"null","","html-keyboard-response","405","665517","0.0-13.0-1.88","a","05","<p style=""font-size: 48px;"">+</p>","null","1","","","","","","",""
"634.3099999940023","","image-keyboard-response","406","666152","0.0-13.0-2.88","a","05","Images/car_cartoon.png","76","1","1581379533996","non-match","car","cow","label","test","true"
"null","","audio-keyboard-response","407","668155","0.0-13.0-3.88","a","05","Sounds/correct.wav","null","1","","","","","","",""
"null","","audio-keyboard-response","408","668993","0.0-13.0-0.89","a","05","Sounds/cat_label.wav","null","1","","","","","","",""
"null","","html-keyboard-response","409","669983","0.0-13.0-1.89","a","05","<p style=""font-size: 48px;"">+</p>","null","1","","","","","","",""
"839.9549999739975","","image-keyboard-response","410","670824","0.0-13.0-2.89","a","05","Images/cat_orig.png","65","1","1581379538462","match","cat","cat","label","test","true"
"null","","audio-keyboard-response","411","672838","0.0-13.0-3.89","a","05","Sounds/correct.wav","null","1","","","","","","",""
"null","","audio-keyboard-response","412","673533","0.0-13.0-0.90","a","05","Sounds/rooster_sound.wav","null","1","","","","","","",""
"null","","html-keyboard-response","413","674533","0.0-13.0-1.90","a","05","<p style=""font-size: 48px;"">+</p>","null","1","","","","","","",""
"809.6199999563396","","image-keyboard-response","414","675344","0.0-13.0-2.90","a","05","Images/frog_cartoon.png","76","1","1581379543012","non-match","frog","rooster","sound","test","true"
"null","","audio-keyboard-response","415","677353","0.0-13.0-3.90","a","05","Sounds/correct.wav","null","1","","","","","","",""
"null","","audio-keyboard-response","416","678473","0.0-13.0-0.91","a","05","Sounds/motorcycle_sound.wav","null","1","","","","","","",""
"null","","html-keyboard-response","417","679467","0.0-13.0-1.91","a","05","<p style=""font-size: 48px;"">+</p>","null","1","","","","","","",""
"795.1050000265241","","image-keyboard-response","418","680264","0.0-13.0-2.91","a","05","Images/motorcycle_1.png","65","1","1581379547946","match","motorcycle","motorcycle","sound","test","true"
"null","","audio-keyboard-response","419","682274","0.0-13.0-3.91","a","05","Sounds/correct.wav","null","1","","","","","","",""
"null","","audio-keyboard-response","420","683413","0.0-13.0-0.92","a","05","Sounds/motorcycle_label.wav","null","1","","","","","","",""
"null","","html-keyboard-response","421","684417","0.0-13.0-1.92","a","05","<p style=""font-size: 48px;"">+</p>","null","1","","","","","","",""
"550.6149999564514","","image-keyboard-response","422","684968","0.0-13.0-2.92","a","05","Images/car_1.png","76","1","1581379552896","non-match","car","motorcycle","label","test","true"
"null","","audio-keyboard-response","423","686972","0.0-13.0-3.92","a","05","Sounds/correct.wav","null","1","","","","","","",""
"null","","audio-keyboard-response","424","688053","0.0-13.0-0.93","a","05","Sounds/car_label.wav","null","1","","","","","","",""
"null","","html-keyboard-response","425","689051","0.0-13.0-1.93","a","05","<p style=""font-size: 48px;"">+</p>","null","1","","","","","","",""
"596.9050000421703","","image-keyboard-response","426","689649","0.0-13.0-2.93","a","05","Images/rooster_1.png","76","1","1581379557530","non-match","rooster","car","label","test","true"
"null","","audio-keyboard-response","427","691656","0.0-13.0-3.93","a","05","Sounds/correct.wav","null","1","","","","","","",""
"null","","audio-keyboard-response","428","692713","0.0-13.0-0.94","a","05","Sounds/car_label.wav","null","1","","","","","","",""
"null","","html-keyboard-response","429","693717","0.0-13.0-1.94","a","05","<p style=""font-size: 48px;"">+</p>","null","1","","","","","","",""
"554.1249999077991","","image-keyboard-response","430","694273","0.0-13.0-2.94","a","05","Images/car_1.png","65","1","1581379562196","match","car","car","label","test","true"
"null","","audio-keyboard-response","431","696288","0.0-13.0-3.94","a","05","Sounds/correct.wav","null","1","","","","","","",""
"null","","audio-keyboard-response","432","697573","0.0-13.0-0.95","a","05","Sounds/train_label.wav","null","1","","","","","","",""
"null","","html-keyboard-response","433","698567","0.0-13.0-1.95","a","05","<p style=""font-size: 48px;"">+</p>","null","1","","","","","","",""
"927.0900000119582","","image-keyboard-response","434","699497","0.0-13.0-2.95","a","05","Images/train_orig.png","65","1","1581379567047","match","train","train","label","test","true"
"null","","audio-keyboard-response","435","701504","0.0-13.0-3.95","a","05","Sounds/correct.wav","null","1","","","","","","",""
"null","","audio-keyboard-response","436","702213","0.0-13.0-0.96","a","05","Sounds/dog_sound.wav","null","1","","","","","","",""
"null","","html-keyboard-response","437","703217","0.0-13.0-1.96","a","05","<p style=""font-size: 48px;"">+</p>","null","1","","","","","","",""
"646.0750000551343","","image-keyboard-response","438","703864","0.0-13.0-2.96","a","05","Images/dog_2.png","65","1","1581379571696","match","dog","dog","sound","test","true"
"null","","audio-keyboard-response","439","705874","0.0-13.0-3.96","a","05","Sounds/correct.wav","null","1","","","","","","",""
"null","","audio-keyboard-response","440","706893","0.0-13.0-0.97","a","05","Sounds/cow_label.wav","null","1","","","","","","",""
"null","","html-keyboard-response","441","707884","0.0-13.0-1.97","a","05","<p style=""font-size: 48px;"">+</p>","null","1","","","","","","",""
"723.5300000756979","","image-keyboard-response","442","708609","0.0-13.0-2.97","a","05","Images/motorcycle_1.png","76","1","1581379576363","non-match","motorcycle","cow","label","test","true"
"null","","audio-keyboard-response","443","710621","0.0-13.0-3.97","a","05","Sounds/correct.wav","null","1","","","","","","",""
"null","","audio-keyboard-response","444","711453","0.0-13.0-0.98","a","05","Sounds/cat_sound.wav","null","1","","","","","","",""
"null","","html-keyboard-response","445","712451","0.0-13.0-1.98","a","05","<p style=""font-size: 48px;"">+</p>","null","1","","","","","","",""
"852.684999932535","","image-keyboard-response","446","713305","0.0-13.0-2.98","a","05","Images/train_2.png","76","1","1581379580930","non-match","train","cat","sound","test","true"
"null","","audio-keyboard-response","447","715322","0.0-13.0-3.98","a","05","Sounds/correct.wav","null","1","","","","","","",""
"null","","audio-keyboard-response","448","716613","0.0-13.0-0.99","a","05","Sounds/train_sound.wav","null","1","","","","","","",""
"null","","html-keyboard-response","449","717618","0.0-13.0-1.99","a","05","<p style=""font-size: 48px;"">+</p>","null","1","","","","","","",""
"501.8850000342354","","image-keyboard-response","450","718120","0.0-13.0-2.99","a","05","Images/dog_2.png","76","1","1581379586097","non-match","dog","train","sound","test","true"
"null","","audio-keyboard-response","451","720138","0.0-13.0-3.99","a","05","Sounds/correct.wav","null","1","","","","","","",""
"25725.955000030808","","html-keyboard-response","452","745865","0.0-14.0","a","05","<p>Please take this opportunity to rest your eyes before proceeding.</p><p>When ready, press the enter key to continue to the next set of trials.</p>","13","","","","","","","",""
"null","","audio-keyboard-response","453","748734","0.0-15.0-0.0","a","05","Sounds/cat_label.wav","null","2","","","","","","",""
"null","","html-keyboard-response","454","749735","0.0-15.0-1.0","a","05","<p style=""font-size: 48px;"">+</p>","null","2","","","","","","",""
"736.7100000847131","","image-keyboard-response","455","750473","0.0-15.0-2.0","a","05","Images/frog_2.png","76","2","1581379618214","non-match","frog","cat","label","test","true"
"null","","audio-keyboard-response","456","752476","0.0-15.0-3.0","a","05","Sounds/correct.wav","null","2","","","","","","",""
"null","","audio-keyboard-response","457","753615","0.0-15.0-0.1","a","05","Sounds/motorcycle_label.wav","null","2","","","","","","",""
"null","","html-keyboard-response","458","754618","0.0-15.0-1.1","a","05","<p style=""font-size: 48px;"">+</p>","null","2","","","","","","",""
"677.4250000016764","","image-keyboard-response","459","755297","0.0-15.0-2.1","a","05","Images/cow_2.png","76","2","1581379623097","non-match","cow","motorcycle","label","test","true"
"null","","audio-keyboard-response","460","757307","0.0-15.0-3.1","a","05","Sounds/correct.wav","null","2","","","","","","",""
"null","","audio-keyboard-response","461","758015","0.0-15.0-0.2","a","05","Sounds/whistle_label.wav","null","2","","","","","","",""
"null","","html-keyboard-response","462","759019","0.0-15.0-1.2","a","05","<p style=""font-size: 48px;"">+</p>","null","2","","","","","","",""
"2005.0300000002608","","image-keyboard-response","463","761025","0.0-15.0-2.2","a","05","Images/whistle_1.png","65","2","1581379627497","match","whistle","whistle","label","test","true"
"null","","audio-keyboard-response","464","763041","0.0-15.0-3.2","a","05","Sounds/correct.wav","null","2","","","","","","",""
"null","","audio-keyboard-response","465","764115","0.0-15.0-0.3","a","05","Sounds/car_label.wav","null","2","","","","","","",""
"null","","html-keyboard-response","466","765118","0.0-15.0-1.3","a","05","<p style=""font-size: 48px;"">+</p>","null","2","","","","","","",""
"681.4950000261888","","image-keyboard-response","467","765801","0.0-15.0-2.3","a","05","Images/train_1.png","76","2","1581379633598","non-match","train","car","label","test","true"
"null","","audio-keyboard-response","468","767807","0.0-15.0-3.3","a","05","Sounds/correct.wav","null","2","","","","","","",""
"null","","audio-keyboard-response","469","768375","0.0-15.0-0.4","a","05","Sounds/gun_sound.wav","null","2","","","","","","",""
"null","","html-keyboard-response","470","769369","0.0-15.0-1.4","a","05","<p style=""font-size: 48px;"">+</p>","null","2","","","","","","",""
"327.41000002715737","","image-keyboard-response","471","769697","0.0-15.0-2.4","a","05","Images/gun_3.png","65","2","1581379637848","match","gun","gun","sound","test","true"
"null","","audio-keyboard-response","472","771705","0.0-15.0-3.4","a","05","Sounds/correct.wav","null","2","","","","","","",""
"null","","audio-keyboard-response","473","772535","0.0-15.0-0.5","a","05","Sounds/cat_sound.wav","null","2","","","","","","",""
"null","","html-keyboard-response","474","773535","0.0-15.0-1.5","a","05","<p style=""font-size: 48px;"">+</p>","null","2","","","","","","",""
"503.81499994546175","","image-keyboard-response","475","774041","0.0-15.0-2.5","a","05","Images/rooster_2.png","76","2","1581379642014","non-match","rooster","cat","sound","test","true"
"null","","audio-keyboard-response","476","776056","0.0-15.0-3.5","a","05","Sounds/correct.wav","null","2","","","","","","",""
"null","","audio-keyboard-response","477","776975","0.0-15.0-0.6","a","05","Sounds/frog_sound.wav","null","2","","","","","","",""
"null","","html-keyboard-response","478","777969","0.0-15.0-1.6","a","05","<p style=""font-size: 48px;"">+</p>","null","2","","","","","","",""
"567.7300000097603","","image-keyboard-response","479","778537","0.0-15.0-2.6","a","05","Images/gun_1.png","76","2","1581379646448","non-match","gun","frog","sound","test","true"
"null","","audio-keyboard-response","480","780544","0.0-15.0-3.6","a","05","Sounds/correct.wav","null","2","","","","","","",""
"null","","audio-keyboard-response","481","781255","0.0-15.0-0.7","a","05","Sounds/dog_sound.wav","null","2","","","","","","",""
"null","","html-keyboard-response","482","782252","0.0-15.0-1.7","a","05","<p style=""font-size: 48px;"">+</p>","null","2","","","","","","",""
"643.9849999733269","","image-keyboard-response","483","782897","0.0-15.0-2.7","a","05","Images/dog_2.png","65","2","1581379650731","match","dog","dog","sound","test","true"
"null","","audio-keyboard-response","484","784907","0.0-15.0-3.7","a","05","Sounds/correct.wav","null","2","","","","","","",""
"null","","audio-keyboard-response","485","786195","0.0-15.0-0.8","a","05","Sounds/train_label.wav","null","2","","","","","","",""
"null","","html-keyboard-response","486","787185","0.0-15.0-1.8","a","05","<p style=""font-size: 48px;"">+</p>","null","2","","","","","","",""
"1030.5800000205636","","image-keyboard-response","487","788217","0.0-15.0-2.8","a","05","Images/car_orig.png","65","2","1581379655664","non-match","car","train","label","test","false"
"null","","audio-keyboard-response","488","790226","0.0-15.0-3.8","a","05","Sounds/incorrect.wav","null","2","","","","","","",""
"null","","audio-keyboard-response","489","790935","0.0-15.0-0.9","a","05","Sounds/rooster_label.wav","null","2","","","","","","",""
"null","","html-keyboard-response","490","791936","0.0-15.0-1.9","a","05","<p style=""font-size: 48px;"">+</p>","null","2","","","","","","",""
"760.4500000597909","","image-keyboard-response","491","792697","0.0-15.0-2.9","a","05","Images/whistle_orig.png","76","2","1581379660415","non-match","whistle","rooster","label","test","true"
"null","","audio-keyboard-response","492","794705","0.0-15.0-3.9","a","05","Sounds/correct.wav","null","2","","","","","","",""
"null","","audio-keyboard-response","493","795275","0.0-15.0-0.10","a","05","Sounds/gun_sound.wav","null","2","","","","","","",""
"null","","html-keyboard-response","494","796269","0.0-15.0-1.10","a","05","<p style=""font-size: 48px;"">+</p>","null","2","","","","","","",""
"1418.2649999856949","","image-keyboard-response","495","797689","0.0-15.0-2.10","a","05","Images/dog_1.png","76","2","1581379664748","non-match","dog","gun","sound","test","true"
"null","","audio-keyboard-response","496","799694","0.0-15.0-3.10","a","05","Sounds/correct.wav","null","2","","","","","","",""
"null","","audio-keyboard-response","497","800775","0.0-15.0-0.11","a","05","Sounds/car_label.wav","null","2","","","","","","",""
"null","","html-keyboard-response","498","801769","0.0-15.0-1.11","a","05","<p style=""font-size: 48px;"">+</p>","null","2","","","","","","",""
"455.12000005692244","","image-keyboard-response","499","802225","0.0-15.0-2.11","a","05","Images/car_1.png","65","2","1581379670248","match","car","car","label","test","true"
"null","","audio-keyboard-response","500","804242","0.0-15.0-3.11","a","05","Sounds/correct.wav","null","2","","","","","","",""
"null","","audio-keyboard-response","501","805295","0.0-15.0-0.12","a","05","Sounds/car_label.wav","null","2","","","","","","",""
"null","","html-keyboard-response","502","806285","0.0-15.0-1.12","a","05","<p style=""font-size: 48px;"">+</p>","null","2","","","","","","",""
"498.38000000454485","","image-keyboard-response","503","806785","0.0-15.0-2.12","a","05","Images/cat_2.png","76","2","1581379674765","non-match","cat","car","label","test","true"
"null","","audio-keyboard-response","504","808791","0.0-15.0-3.12","a","05","Sounds/correct.wav","null","2","","","","","","",""
"null","","audio-keyboard-response","505","809875","0.0-15.0-0.13","a","05","Sounds/car_sound.wav","null","2","","","","","","",""
"null","","html-keyboard-response","506","810870","0.0-15.0-1.13","a","05","<p style=""font-size: 48px;"">+</p>","null","2","","","","","","",""
"826.6549999825656","","image-keyboard-response","507","811697","0.0-15.0-2.13","a","05","Images/car_3.png","65","2","1581379679349","match","car","car","sound","test","true"
"null","","audio-keyboard-response","508","813707","0.0-15.0-3.13","a","05","Sounds/correct.wav","null","2","","","","","","",""
"null","","audio-keyboard-response","509","814415","0.0-15.0-0.14","a","05","Sounds/dog_sound.wav","null","2","","","","","","",""
"null","","html-keyboard-response","510","815420","0.0-15.0-1.14","a","05","<p style=""font-size: 48px;"">+</p>","null","2","","","","","","",""
"661.0450000735","","image-keyboard-response","511","816082","0.0-15.0-2.14","a","05","Images/gun_cartoon.png","76","2","1581379683899","non-match","gun","dog","sound","test","true"
"null","","audio-keyboard-response","512","818092","0.0-15.0-3.14","a","05","Sounds/correct.wav","null","2","","","","","","",""
"null","","audio-keyboard-response","513","818795","0.0-15.0-0.15","a","05","Sounds/rooster_sound.wav","null","2","","","","","","",""
"null","","html-keyboard-response","514","819786","0.0-15.0-1.15","a","05","<p style=""font-size: 48px;"">+</p>","null","2","","","","","","",""
"438.13999998383224","","image-keyboard-response","515","820225","0.0-15.0-2.15","a","05","Images/rooster_1.png","65","2","1581379688265","match","rooster","rooster","sound","test","true"
"null","","audio-keyboard-response","516","822240","0.0-15.0-3.15","a","05","Sounds/correct.wav","null","2","","","","","","",""
"null","","audio-keyboard-response","517","823515","0.0-15.0-0.16","a","05","Sounds/train_label.wav","null","2","","","","","","",""
"null","","html-keyboard-response","518","824520","0.0-15.0-1.16","a","05","<p style=""font-size: 48px;"">+</p>","null","2","","","","","","",""
"432.78999999165535","","image-keyboard-response","519","824954","0.0-15.0-2.16","a","05","Images/train_1.png","65","2","1581379692999","match","train","train","label","test","true"
"null","","audio-keyboard-response","520","826959","0.0-15.0-3.16","a","05","Sounds/correct.wav","null","2","","","","","","",""
"null","","audio-keyboard-response","521","828095","0.0-15.0-0.17","a","05","Sounds/motorcycle_label.wav","null","2","","","","","","",""
"null","","html-keyboard-response","522","829086","0.0-15.0-1.17","a","05","<p style=""font-size: 48px;"">+</p>","null","2","","","","","","",""
"810.4400000302121","","image-keyboard-response","523","829898","0.0-15.0-2.17","a","05","Images/car_3.png","76","2","1581379697566","non-match","car","motorcycle","label","test","true"
"null","","audio-keyboard-response","524","831906","0.0-15.0-3.17","a","05","Sounds/correct.wav","null","2","","","","","","",""
"null","","audio-keyboard-response","525","833155","0.0-15.0-0.18","a","05","Sounds/train_label.wav","null","2","","","","","","",""
"null","","html-keyboard-response","526","834153","0.0-15.0-1.18","a","05","<p style=""font-size: 48px;"">+</p>","null","2","","","","","","",""
"1149.2149999830872","","image-keyboard-response","527","835306","0.0-15.0-2.18","a","05","Images/train_2.png","65","2","1581379702632","match","train","train","label","test","true"
"null","","audio-keyboard-response","528","837308","0.0-15.0-3.18","a","05","Sounds/correct.wav","null","2","","","","","","",""
"null","","audio-keyboard-response","529","838215","0.0-15.0-0.19","a","05","Sounds/frog_label.wav","null","2","","","","","","",""
"null","","html-keyboard-response","530","839220","0.0-15.0-1.19","a","05","<p style=""font-size: 48px;"">+</p>","null","2","","","","","","",""
"868.7800000188872","","image-keyboard-response","531","840090","0.0-15.0-2.19","a","05","Images/train_cartoon.png","76","2","1581379707699","non-match","train","frog","label","test","true"
"null","","audio-keyboard-response","532","842107","0.0-15.0-3.19","a","05","Sounds/correct.wav","null","2","","","","","","",""
"null","","audio-keyboard-response","533","843195","0.0-15.0-0.20","a","05","Sounds/car_sound.wav","null","2","","","","","","",""
"null","","html-keyboard-response","534","844187","0.0-15.0-1.20","a","05","<p style=""font-size: 48px;"">+</p>","null","2","","","","","","",""
"429.9200000241399","","image-keyboard-response","535","844618","0.0-15.0-2.20","a","05","Images/frog_3.png","76","2","1581379712666","non-match","frog","car","sound","test","true"
"null","","audio-keyboard-response","536","846625","0.0-15.0-3.20","a","05","Sounds/correct.wav","null","2","","","","","","",""
"null","","audio-keyboard-response","537","847195","0.0-15.0-0.21","a","05","Sounds/gun_sound.wav","null","2","","","","","","",""
"null","","html-keyboard-response","538","848187","0.0-15.0-1.21","a","05","<p style=""font-size: 48px;"">+</p>","null","2","","","","","","",""
"605.8450000127777","","image-keyboard-response","539","848793","0.0-15.0-2.21","a","05","Images/whistle_2.png","76","2","1581379716666","non-match","whistle","gun","sound","test","true"
"null","","audio-keyboard-response","540","850808","0.0-15.0-3.21","a","05","Sounds/correct.wav","null","2","","","","","","",""
"null","","audio-keyboard-response","541","851495","0.0-15.0-0.22","a","05","Sounds/whistle_sound.wav","null","2","","","","","","",""
"null","","html-keyboard-response","542","852487","0.0-15.0-1.22","a","05","<p style=""font-size: 48px;"">+</p>","null","2","","","","","","",""
"465.90500010643154","","image-keyboard-response","543","852954","0.0-15.0-2.22","a","05","Images/whistle_3.png","65","2","1581379720966","match","whistle","whistle","sound","test","true"
"null","","audio-keyboard-response","544","854961","0.0-15.0-3.22","a","05","Sounds/correct.wav","null","2","","","","","","",""
"null","","audio-keyboard-response","545","856075","0.0-15.0-0.23","a","05","Sounds/motorcycle_sound.wav","null","2","","","","","","",""
"null","","html-keyboard-response","546","857070","0.0-15.0-1.23","a","05","<p style=""font-size: 48px;"">+</p>","null","2","","","","","","",""
"594.5599999977276","","image-keyboard-response","547","857666","0.0-15.0-2.23","a","05","Images/motorcycle_orig.png","65","2","1581379725549","match","motorcycle","motorcycle","sound","test","true"
"null","","audio-keyboard-response","548","859678","0.0-15.0-3.23","a","05","Sounds/correct.wav","null","2","","","","","","",""
"null","","audio-keyboard-response","549","860755","0.0-15.0-0.24","a","05","Sounds/car_label.wav","null","2","","","","","","",""
"null","","html-keyboard-response","550","861753","0.0-15.0-1.24","a","05","<p style=""font-size: 48px;"">+</p>","null","2","","","","","","",""
"871.1349999066442","","image-keyboard-response","551","862626","0.0-15.0-2.24","a","05","Images/motorcycle_2.png","76","2","1581379730232","non-match","motorcycle","car","label","test","true"
"null","","audio-keyboard-response","552","864642","0.0-15.0-3.24","a","05","Sounds/correct.wav","null","2","","","","","","",""
"null","","audio-keyboard-response","553","865335","0.0-15.0-0.25","a","05","Sounds/rooster_sound.wav","null","2","","","","","","",""
"null","","html-keyboard-response","554","866353","0.0-15.0-1.25","a","05","<p style=""font-size: 48px;"">+</p>","null","2","","","","","","",""
"583.3349999738857","","image-keyboard-response","555","866938","0.0-15.0-2.25","a","05","Images/cow_3.png","76","2","1581379734833","non-match","cow","rooster","sound","test","true"
"null","","audio-keyboard-response","556","868943","0.0-15.0-3.25","a","05","Sounds/correct.wav","null","2","","","","","","",""
"null","","audio-keyboard-response","557","870035","0.0-15.0-0.26","a","05","Sounds/motorcycle_sound.wav","null","2","","","","","","",""
"null","","html-keyboard-response","558","871054","0.0-15.0-1.26","a","05","<p style=""font-size: 48px;"">+</p>","null","2","","","","","","",""
"883.0949999392033","","image-keyboard-response","559","871938","0.0-15.0-2.26","a","05","Images/train_2.png","76","2","1581379739533","non-match","train","motorcycle","sound","test","true"
"null","","audio-keyboard-response","560","873942","0.0-15.0-3.26","a","05","Sounds/correct.wav","null","2","","","","","","",""
"null","","audio-keyboard-response","561","874855","0.0-15.0-0.27","a","05","Sounds/frog_sound.wav","null","2","","","","","","",""
"null","","html-keyboard-response","562","875854","0.0-15.0-1.27","a","05","<p style=""font-size: 48px;"">+</p>","null","2","","","","","","",""
"731.0399999842048","","image-keyboard-response","563","876586","0.0-15.0-2.27","a","05","Images/cat_orig.png","76","2","1581379744333","non-match","cat","frog","sound","test","true"
"null","","audio-keyboard-response","564","878593","0.0-15.0-3.27","a","05","Sounds/correct.wav","null","2","","","","","","",""
"null","","audio-keyboard-response","565","879495","0.0-15.0-0.28","a","05","Sounds/frog_label.wav","null","2","","","","","","",""
"null","","html-keyboard-response","566","880487","0.0-15.0-1.28","a","05","<p style=""font-size: 48px;"">+</p>","null","2","","","","","","",""
"481.59000009763986","","image-keyboard-response","567","880970","0.0-15.0-2.28","a","05","Images/frog_orig.png","65","2","1581379748966","match","frog","frog","label","test","true"
"null","","audio-keyboard-response","568","882974","0.0-15.0-3.28","a","05","Sounds/correct.wav","null","2","","","","","","",""
"null","","audio-keyboard-response","569","883675","0.0-15.0-0.29","a","05","Sounds/rooster_label.wav","null","2","","","","","","",""
"null","","html-keyboard-response","570","884670","0.0-15.0-1.29","a","05","<p style=""font-size: 48px;"">+</p>","null","2","","","","","","",""
"497.9999999050051","","image-keyboard-response","571","885169","0.0-15.0-2.29","a","05","Images/gun_2.png","76","2","1581379753149","non-match","gun","rooster","label","test","true"
"null","","audio-keyboard-response","572","887176","0.0-15.0-3.29","a","05","Sounds/correct.wav","null","2","","","","","","",""
"null","","audio-keyboard-response","573","888075","0.0-15.0-0.30","a","05","Sounds/frog_sound.wav","null","2","","","","","","",""
"null","","html-keyboard-response","574","889070","0.0-15.0-1.30","a","05","<p style=""font-size: 48px;"">+</p>","null","2","","","","","","",""
"802.060000016354","","image-keyboard-response","575","889874","0.0-15.0-2.30","a","05","Images/dog_cartoon.png","76","2","1581379757549","non-match","dog","frog","sound","test","true"
"null","","audio-keyboard-response","576","891892","0.0-15.0-3.30","a","05","Sounds/correct.wav","null","2","","","","","","",""
"null","","audio-keyboard-response","577","893035","0.0-15.0-0.31","a","05","Sounds/motorcycle_label.wav","null","2","","","","","","",""
"null","","html-keyboard-response","578","894054","0.0-15.0-1.31","a","05","<p style=""font-size: 48px;"">+</p>","null","2","","","","","","",""
"858.8250000029802","","image-keyboard-response","579","894914","0.0-15.0-2.31","a","05","Images/whistle_3.png","76","2","1581379762533","non-match","whistle","motorcycle","label","test","true"
"null","","audio-keyboard-response","580","896923","0.0-15.0-3.31","a","05","Sounds/correct.wav","null","2","","","","","","",""
"null","","audio-keyboard-response","581","897936","0.0-15.0-0.32","a","05","Sounds/cow_label.wav","null","2","","","","","","",""
"null","","html-keyboard-response","582","898954","0.0-15.0-1.32","a","05","<p style=""font-size: 48px;"">+</p>","null","2","","","","","","",""
"678.74500004109","","image-keyboard-response","583","899634","0.0-15.0-2.32","a","05","Images/dog_2.png","76","2","1581379767433","non-match","dog","cow","label","test","true"
"null","","audio-keyboard-response","584","901642","0.0-15.0-3.32","a","05","Sounds/correct.wav","null","2","","","","","","",""
"null","","audio-keyboard-response","585","902636","0.0-15.0-0.33","a","05","Sounds/cow_label.wav","null","2","","","","","","",""
"null","","html-keyboard-response","586","903654","0.0-15.0-1.33","a","05","<p style=""font-size: 48px;"">+</p>","null","2","","","","","","",""
"434.55000000540167","","image-keyboard-response","587","904089","0.0-15.0-2.33","a","05","Images/motorcycle_cartoon.png","76","2","1581379772133","non-match","motorcycle","cow","label","test","true"
"null","","audio-keyboard-response","588","906093","0.0-15.0-3.33","a","05","Sounds/correct.wav","null","2","","","","","","",""
"null","","audio-keyboard-response","589","907395","0.0-15.0-0.34","a","05","Sounds/train_sound.wav","null","2","","","","","","",""
"null","","html-keyboard-response","590","908387","0.0-15.0-1.34","a","05","<p style=""font-size: 48px;"">+</p>","null","2","","","","","","",""
"380.6450000265613","","image-keyboard-response","591","908770","0.0-15.0-2.34","a","05","Images/train_cartoon.png","65","2","1581379776866","match","train","train","sound","test","true"
"null","","audio-keyboard-response","592","910776","0.0-15.0-3.34","a","05","Sounds/correct.wav","null","2","","","","","","",""
"null","","audio-keyboard-response","593","911675","0.0-15.0-0.35","a","05","Sounds/frog_label.wav","null","2","","","","","","",""
"null","","html-keyboard-response","594","912671","0.0-15.0-1.35","a","05","<p style=""font-size: 48px;"">+</p>","null","2","","","","","","",""
"777.7599999681115","","image-keyboard-response","595","913450","0.0-15.0-2.35","a","05","Images/frog_2.png","65","2","1581379781150","match","frog","frog","label","test","true"
"null","","audio-keyboard-response","596","915460","0.0-15.0-3.35","a","05","Sounds/correct.wav","null","2","","","","","","",""
"null","","audio-keyboard-response","597","916176","0.0-15.0-0.36","a","05","Sounds/dog_sound.wav","null","2","","","","","","",""
"null","","html-keyboard-response","598","917171","0.0-15.0-1.36","a","05","<p style=""font-size: 48px;"">+</p>","null","2","","","","","","",""
"637.9200000083074","","image-keyboard-response","599","917810","0.0-15.0-2.36","a","05","Images/dog_1.png","65","2","1581379785650","match","dog","dog","sound","test","true"
"null","","audio-keyboard-response","600","919825","0.0-15.0-3.36","a","05","Sounds/correct.wav","null","2","","","","","","",""
"null","","audio-keyboard-response","601","920835","0.0-15.0-0.37","a","05","Sounds/cow_label.wav","null","2","","","","","","",""
"null","","html-keyboard-response","602","921837","0.0-15.0-1.37","a","05","<p style=""font-size: 48px;"">+</p>","null","2","","","","","","",""
"923.380000051111","","image-keyboard-response","603","922762","0.0-15.0-2.37","a","05","Images/rooster_cartoon.png","76","2","1581379790316","non-match","rooster","cow","label","test","true"
"null","","audio-keyboard-response","604","924774","0.0-15.0-3.37","a","05","Sounds/correct.wav","null","2","","","","","","",""
"null","","audio-keyboard-response","605","925615","0.0-15.0-0.38","a","05","Sounds/cat_label.wav","null","2","","","","","","",""
"null","","html-keyboard-response","606","926604","0.0-15.0-1.38","a","05","<p style=""font-size: 48px;"">+</p>","null","2","","","","","","",""
"452.2550000110641","","image-keyboard-response","607","927058","0.0-15.0-2.38","a","05","Images/cat_1.png","65","2","1581379795083","match","cat","cat","label","test","true"
"null","","audio-keyboard-response","608","929073","0.0-15.0-3.38","a","05","Sounds/correct.wav","null","2","","","","","","",""
"null","","audio-keyboard-response","609","929775","0.0-15.0-0.39","a","05","Sounds/whistle_label.wav","null","2","","","","","","",""
"null","","html-keyboard-response","610","930771","0.0-15.0-1.39","a","05","<p style=""font-size: 48px;"">+</p>","null","2","","","","","","",""
"677.4999999906868","","image-keyboard-response","611","931449","0.0-15.0-2.39","a","05","Images/whistle_cartoon.png","65","2","1581379799250","match","whistle","whistle","label","test","true"
"null","","audio-keyboard-response","612","933460","0.0-15.0-3.39","a","05","Sounds/correct.wav","null","2","","","","","","",""
"null","","audio-keyboard-response","613","934455","0.0-15.0-0.40","a","05","Sounds/cow_label.wav","null","2","","","","","","",""
"null","","html-keyboard-response","614","935454","0.0-15.0-1.40","a","05","<p style=""font-size: 48px;"">+</p>","null","2","","","","","","",""
"658.8100000517443","","image-keyboard-response","615","936114","0.0-15.0-2.40","a","05","Images/cow_3.png","65","2","1581379803933","match","cow","cow","label","test","true"
"null","","audio-keyboard-response","616","938124","0.0-15.0-3.40","a","05","Sounds/correct.wav","null","2","","","","","","",""
"null","","audio-keyboard-response","617","938775","0.0-15.0-0.41","a","05","Sounds/dog_label.wav","null","2","","","","","","",""
"null","","html-keyboard-response","618","939771","0.0-15.0-1.41","a","05","<p style=""font-size: 48px;"">+</p>","null","2","","","","","","",""
"1277.6600000215694","","image-keyboard-response","619","941050","0.0-15.0-2.41","a","05","Images/cow_1.png","76","2","1581379808250","non-match","cow","dog","label","test","true"
"null","","audio-keyboard-response","620","943058","0.0-15.0-3.41","a","05","Sounds/correct.wav","null","2","","","","","","",""
"null","","audio-keyboard-response","621","943735","0.0-15.0-0.42","a","05","Sounds/whistle_label.wav","null","2","","","","","","",""
"null","","html-keyboard-response","622","944738","0.0-15.0-1.42","a","05","<p style=""font-size: 48px;"">+</p>","null","2","","","","","","",""
"526.8450001021847","","image-keyboard-response","623","945265","0.0-15.0-2.42","a","05","Images/car_2.png","76","2","1581379813217","non-match","car","whistle","label","test","true"
"null","","audio-keyboard-response","624","947274","0.0-15.0-3.42","a","05","Sounds/correct.wav","null","2","","","","","","",""
"null","","audio-keyboard-response","625","948295","0.0-15.0-0.43","a","05","Sounds/cow_sound.wav","null","2","","","","","","",""
"null","","html-keyboard-response","626","949287","0.0-15.0-1.43","a","05","<p style=""font-size: 48px;"">+</p>","null","2","","","","","","",""
"545.0349999591708","","image-keyboard-response","627","949834","0.0-15.0-2.43","a","05","Images/frog_orig.png","76","2","1581379817767","non-match","frog","cow","sound","test","true"
"null","","audio-keyboard-response","628","951843","0.0-15.0-3.43","a","05","Sounds/correct.wav","null","2","","","","","","",""
"null","","audio-keyboard-response","629","952475","0.0-15.0-0.44","a","05","Sounds/dog_label.wav","null","2","","","","","","",""
"null","","html-keyboard-response","630","953471","0.0-15.0-1.44","a","05","<p style=""font-size: 48px;"">+</p>","null","2","","","","","","",""
"569.469999987632","","image-keyboard-response","631","954042","0.0-15.0-2.44","a","05","Images/dog_3.png","65","2","1581379821950","match","dog","dog","label","test","true"
"null","","audio-keyboard-response","632","956052","0.0-15.0-3.44","a","05","Sounds/correct.wav","null","2","","","","","","",""
"null","","audio-keyboard-response","633","956895","0.0-15.0-0.45","a","05","Sounds/cat_sound.wav","null","2","","","","","","",""
"null","","html-keyboard-response","634","957888","0.0-15.0-1.45","a","05","<p style=""font-size: 48px;"">+</p>","null","2","","","","","","",""
"1216.855000006035","","image-keyboard-response","635","959105","0.0-15.0-2.45","a","05","Images/dog_orig.png","76","2","1581379826367","non-match","dog","cat","sound","test","true"
"null","","audio-keyboard-response","636","961109","0.0-15.0-3.45","a","05","Sounds/correct.wav","null","2","","","","","","",""
"null","","audio-keyboard-response","637","962235","0.0-15.0-0.46","a","05","Sounds/motorcycle_sound.wav","null","2","","","","","","",""
"null","","html-keyboard-response","638","963238","0.0-15.0-1.46","a","05","<p style=""font-size: 48px;"">+</p>","null","2","","","","","","",""
"850.9400000330061","","image-keyboard-response","639","964090","0.0-15.0-2.46","a","05","Images/motorcycle_1.png","65","2","1581379831717","match","motorcycle","motorcycle","sound","test","true"
"null","","audio-keyboard-response","640","966093","0.0-15.0-3.46","a","05","Sounds/correct.wav","null","2","","","","","","",""
"null","","audio-keyboard-response","641","966795","0.0-15.0-0.47","a","05","Sounds/rooster_sound.wav","null","2","","","","","","",""
"null","","html-keyboard-response","642","967788","0.0-15.0-1.47","a","05","<p style=""font-size: 48px;"">+</p>","null","2","","","","","","",""
"1244.5049999514595","","image-keyboard-response","643","969033","0.0-15.0-2.47","a","05","Images/rooster_2.png","65","2","1581379836267","match","rooster","rooster","sound","test","true"
"null","","audio-keyboard-response","644","971052","0.0-15.0-3.47","a","05","Sounds/correct.wav","null","2","","","","","","",""
"null","","audio-keyboard-response","645","971755","0.0-15.0-0.48","a","05","Sounds/rooster_label.wav","null","2","","","","","","",""
"null","","html-keyboard-response","646","972755","0.0-15.0-1.48","a","05","<p style=""font-size: 48px;"">+</p>","null","2","","","","","","",""
"405.6749999290332","","image-keyboard-response","647","973161","0.0-15.0-2.48","a","05","Images/rooster_3.png","65","2","1581379841234","match","rooster","rooster","label","test","true"
"null","","audio-keyboard-response","648","975175","0.0-15.0-3.48","a","05","Sounds/correct.wav","null","2","","","","","","",""
"null","","audio-keyboard-response","649","976315","0.0-15.0-0.49","a","05","Sounds/motorcycle_label.wav","null","2","","","","","","",""
"null","","html-keyboard-response","650","977321","0.0-15.0-1.49","a","05","<p style=""font-size: 48px;"">+</p>","null","2","","","","","","",""
"526.3949999352917","","image-keyboard-response","651","977850","0.0-15.0-2.49","a","05","Images/gun_3.png","76","2","1581379845800","non-match","gun","motorcycle","label","test","true"
"null","","audio-keyboard-response","652","979861","0.0-15.0-3.49","a","05","Sounds/correct.wav","null","2","","","","","","",""
"null","","audio-keyboard-response","653","980435","0.0-15.0-0.50","a","05","Sounds/gun_label.wav","null","2","","","","","","",""
"null","","html-keyboard-response","654","981438","0.0-15.0-1.50","a","05","<p style=""font-size: 48px;"">+</p>","null","2","","","","","","",""
"418.34500001277775","","image-keyboard-response","655","981857","0.0-15.0-2.50","a","05","Images/gun_cartoon.png","65","2","1581379849917","match","gun","gun","label","test","true"
"null","","audio-keyboard-response","656","983860","0.0-15.0-3.50","a","05","Sounds/correct.wav","null","2","","","","","","",""
"null","","audio-keyboard-response","657","984935","0.0-15.0-0.51","a","05","Sounds/car_sound.wav","null","2","","","","","","",""
"null","","html-keyboard-response","658","985938","0.0-15.0-1.51","a","05","<p style=""font-size: 48px;"">+</p>","null","2","","","","","","",""
"774.3899999186397","","image-keyboard-response","659","986713","0.0-15.0-2.51","a","05","Images/whistle_cartoon.png","76","2","1581379854417","non-match","whistle","car","sound","test","true"
"null","","audio-keyboard-response","660","988724","0.0-15.0-3.51","a","05","Sounds/correct.wav","null","2","","","","","","",""
"null","","audio-keyboard-response","661","989415","0.0-15.0-0.52","a","05","Sounds/rooster_sound.wav","null","2","","","","","","",""
"null","","html-keyboard-response","662","990405","0.0-15.0-1.52","a","05","<p style=""font-size: 48px;"">+</p>","null","2","","","","","","",""
