"rt","responses","trial_type","trial_index","time_elapsed","internal_node_id","match_key","participant_id","stimulus","key_press","block","stim_onset","match_type","image_category","sound_category","audio_type","phase","correct"
"33357.45500000121","{""Q0"":""COGS219_2020_18""}","survey-text","0","33402","0.0-0.0","a","COGS219_2020_18","","","","","","","","","",""
"87164.00000000067","","html-keyboard-response","1","120409","0.0-1.0","a","COGS219_2020_18","<p>Use KEYBOARD 2 (match LEFT)</p><p>Press MATCH to continue.</p>","65","","","","","","","",""
"2114470.8150000004","","html-keyboard-response","2","2234439","0.0-2.0","a","COGS219_2020_18","<p>Welcome to the experiment.</p>","39","","","","","","","",""
"10123.504999999423","","html-keyboard-response","3","2244567","0.0-3.0","a","COGS219_2020_18","<p>Thank you for agreeing to participate in this study.</p><p>If during any part of the procedure you must stop for any reason, please inform the researcher that you do not wish to continue.</p>","39","","","","","","","",""
"21630.904999997932","","html-keyboard-response","4","2266199","0.0-4.0","a","COGS219_2020_18","<p>In this experiment, you will hear various words or sounds and see pictures of various animals and objects.</p><p>Most of the images will be of common everyday objects, such as cars, cats, cows, firearms, frogs, chickens, whistles, trains, motorcycles, and dogs.</p><p>Some of the images will be real-life stills, while others will be cartoons.</p>","39","","","","","","","",""
"15414.759999999776","","html-keyboard-response","5","2281611","0.0-5.0","a","COGS219_2020_18","<p>Sometimes, the word/sound will match the picture, for example you'll hear a meowing sound and see a cat.</p><p>Other times, the picture will not match the sound or word.</p><p>Your task is to decide as quickly as possible if the word/sound matches the picture or not. </p>","39","","","","","","","",""
"13999.135000002105","","html-keyboard-response","6","2295611","0.0-6.0","a","COGS219_2020_18","<p>For example, if you hear the word ""cat"" or hear a meowing sound, and then see a picture of a cat, you should press the MATCH key.</p><p> If the sound and image do not match, press the NOT-MATCH key to indicate that there is not a match.</p>","39","","","","","","","",""
"12190.780000000726","","html-keyboard-response","7","2307803","0.0-7.0","a","COGS219_2020_18","<p>If you make a mistake, you will hear a buzzing sound instead of a more pleasant sound.</p><p> Try to respond as quickly as possible, while making as few errors as possible. If you are making mistakes, you are probably rushing.</p>","39","","","","","","","",""
"12430.930000002496","","html-keyboard-response","8","2320235","0.0-8.0","a","COGS219_2020_18","<p>Please try to not move or blink your eyes during the presentation of the images. You can move and blink between images.</p><p>During the experiment there will be some breaks during which you can rest your eyes.</p>","39","","","","","","","",""
"17478.449999998324","","html-keyboard-response","9","2337715","0.0-9.0","a","COGS219_2020_18","<p>We will begin with 10 practice trials. Please let the experimenter know if you have any questions.</p>","32","","","","","","","",""
"null","","audio-keyboard-response","10","2338719","0.0-10.0-0.0","a","COGS219_2020_18","Sounds/frog_sound.wav","null","0","","","","","","",""
"null","","html-keyboard-response","11","2339718","0.0-10.0-1.0","a","COGS219_2020_18","<p style=""font-size: 48px;"">+</p>","null","0","","","","","","",""
"626.4200000003912","","image-keyboard-response","12","2340347","0.0-10.0-2.0","a","COGS219_2020_18","Images/frog_orig.png","65","0","1581984971819","match","frog","frog","sound","practice","true"
"null","","audio-keyboard-response","13","2342356","0.0-10.0-3.0","a","COGS219_2020_18","Sounds/correct.wav","null","0","","","","","","",""
"null","","audio-keyboard-response","14","2343063","0.0-10.0-0.1","a","COGS219_2020_18","Sounds/whistle_sound.wav","null","0","","","","","","",""
"null","","html-keyboard-response","15","2344055","0.0-10.0-1.1","a","COGS219_2020_18","<p style=""font-size: 48px;"">+</p>","null","0","","","","","","",""
"541.7149999993853","","image-keyboard-response","16","2344598","0.0-10.0-2.1","a","COGS219_2020_18","Images/whistle_cartoon.png","65","0","1581984976155","match","whistle","whistle","sound","practice","true"
"null","","audio-keyboard-response","17","2346613","0.0-10.0-3.1","a","COGS219_2020_18","Sounds/correct.wav","null","0","","","","","","",""
"null","","audio-keyboard-response","18","2347303","0.0-10.0-0.2","a","COGS219_2020_18","Sounds/rooster_sound.wav","null","0","","","","","","",""
"null","","html-keyboard-response","19","2348305","0.0-10.0-1.2","a","COGS219_2020_18","<p style=""font-size: 48px;"">+</p>","null","0","","","","","","",""
"443.625","","image-keyboard-response","20","2348750","0.0-10.0-2.2","a","COGS219_2020_18","Images/cow_orig.png","76","0","1581984980406","non-match","cow","rooster","sound","practice","true"
"null","","audio-keyboard-response","21","2350754","0.0-10.0-3.2","a","COGS219_2020_18","Sounds/correct.wav","null","0","","","","","","",""
"null","","audio-keyboard-response","22","2351823","0.0-10.0-0.3","a","COGS219_2020_18","Sounds/car_sound.wav","null","0","","","","","","",""
"null","","html-keyboard-response","23","2352822","0.0-10.0-1.3","a","COGS219_2020_18","<p style=""font-size: 48px;"">+</p>","null","0","","","","","","",""
"1255.320000000298","","image-keyboard-response","24","2354078","0.0-10.0-2.3","a","COGS219_2020_18","Images/car_cartoon.png","65","0","1581984984922","match","car","car","sound","practice","true"
"null","","audio-keyboard-response","25","2356096","0.0-10.0-3.3","a","COGS219_2020_18","Sounds/correct.wav","null","0","","","","","","",""
"null","","audio-keyboard-response","26","2356943","0.0-10.0-0.4","a","COGS219_2020_18","Sounds/cat_label.wav","null","0","","","","","","",""
"null","","html-keyboard-response","27","2357939","0.0-10.0-1.4","a","COGS219_2020_18","<p style=""font-size: 48px;"">+</p>","null","0","","","","","","",""
"458.15500000026077","","image-keyboard-response","28","2358398","0.0-10.0-2.4","a","COGS219_2020_18","Images/cat_cartoon.png","65","0","1581984990039","match","cat","cat","label","practice","true"
"null","","audio-keyboard-response","29","2360410","0.0-10.0-3.4","a","COGS219_2020_18","Sounds/correct.wav","null","0","","","","","","",""
"null","","audio-keyboard-response","30","2361702","0.0-10.0-0.5","a","COGS219_2020_18","Sounds/train_sound.wav","null","0","","","","","","",""
"null","","html-keyboard-response","31","2362705","0.0-10.0-1.5","a","COGS219_2020_18","<p style=""font-size: 48px;"">+</p>","null","0","","","","","","",""
"523.695000000298","","image-keyboard-response","32","2363230","0.0-10.0-2.5","a","COGS219_2020_18","Images/train_orig.png","65","0","1581984994806","match","train","train","sound","practice","true"
"null","","audio-keyboard-response","33","2365247","0.0-10.0-3.5","a","COGS219_2020_18","Sounds/correct.wav","null","0","","","","","","",""
"null","","audio-keyboard-response","34","2365943","0.0-10.0-0.6","a","COGS219_2020_18","Sounds/whistle_label.wav","null","0","","","","","","",""
"null","","html-keyboard-response","35","2366939","0.0-10.0-1.6","a","COGS219_2020_18","<p style=""font-size: 48px;"">+</p>","null","0","","","","","","",""
"594.2800000007264","","image-keyboard-response","36","2367534","0.0-10.0-2.6","a","COGS219_2020_18","Images/car_cartoon.png","76","0","1581984999039","non-match","car","whistle","label","practice","true"
"null","","audio-keyboard-response","37","2369543","0.0-10.0-3.6","a","COGS219_2020_18","Sounds/correct.wav","null","0","","","","","","",""
"null","","audio-keyboard-response","38","2370622","0.0-10.0-0.7","a","COGS219_2020_18","Sounds/car_label.wav","null","0","","","","","","",""
"null","","html-keyboard-response","39","2371622","0.0-10.0-1.7","a","COGS219_2020_18","<p style=""font-size: 48px;"">+</p>","null","0","","","","","","",""
"806.9700000011362","","image-keyboard-response","40","2372430","0.0-10.0-2.7","a","COGS219_2020_18","Images/whistle_3.png","76","0","1581985003722","non-match","whistle","car","label","practice","true"
"null","","audio-keyboard-response","41","2374444","0.0-10.0-3.7","a","COGS219_2020_18","Sounds/correct.wav","null","0","","","","","","",""
"null","","audio-keyboard-response","42","2375023","0.0-10.0-0.8","a","COGS219_2020_18","Sounds/gun_label.wav","null","0","","","","","","",""
"null","","html-keyboard-response","43","2376022","0.0-10.0-1.8","a","COGS219_2020_18","<p style=""font-size: 48px;"">+</p>","null","0","","","","","","",""
"695.0799999977462","","image-keyboard-response","44","2376718","0.0-10.0-2.8","a","COGS219_2020_18","Images/gun_cartoon.png","65","0","1581985008122","match","gun","gun","label","practice","true"
"null","","audio-keyboard-response","45","2378735","0.0-10.0-3.8","a","COGS219_2020_18","Sounds/correct.wav","null","0","","","","","","",""
"null","","audio-keyboard-response","46","2379442","0.0-10.0-0.9","a","COGS219_2020_18","Sounds/rooster_label.wav","null","0","","","","","","",""
"null","","html-keyboard-response","47","2380439","0.0-10.0-1.9","a","COGS219_2020_18","<p style=""font-size: 48px;"">+</p>","null","0","","","","","","",""
"397.98000000137836","","image-keyboard-response","48","2380838","0.0-10.0-2.9","a","COGS219_2020_18","Images/rooster_orig.png","65","0","1581985012539","match","rooster","rooster","label","practice","true"
"null","","audio-keyboard-response","49","2382856","0.0-10.0-3.9","a","COGS219_2020_18","Sounds/correct.wav","null","0","","","","","","",""
"55789.9700000016","","html-keyboard-response","50","2438646","0.0-11.0","a","COGS219_2020_18","<p>The rest of the experiment is divided into five blocks with 100 trials in each block. It will take about 45 minutes to complete.</p><p>The experimenter will be in the outer room and you can communicate with them through the monitor if you have any questions or wish to stop the experiment.</p>","32","","","","","","","",""
"31727.100000000093","","html-keyboard-response","51","2470369","0.0-12.0","a","COGS219_2020_18","<p>Remember, please try not to move or blink your eyes during the presentation of the images. </p><p>At the end of the experiment, we will show you your scores on the task so you can see how you did.</p><p>The experiment will start on the next screen.</p>","32","","","","","","","",""
"null","","audio-keyboard-response","52","2473500","0.0-13.0-0.0","a","COGS219_2020_18","Sounds/motorcycle_sound.wav","null","1","","","","","","",""
"null","","html-keyboard-response","53","2474501","0.0-13.0-1.0","a","COGS219_2020_18","<p style=""font-size: 48px;"">+</p>","null","1","","","","","","",""
"658.4450000012293","","image-keyboard-response","54","2475160","0.0-13.0-2.0","a","COGS219_2020_18","Images/train_orig.png","76","1","1581985106601","non-match","train","motorcycle","sound","test","true"
"null","","audio-keyboard-response","55","2477166","0.0-13.0-3.0","a","COGS219_2020_18","Sounds/correct.wav","null","1","","","","","","",""
"null","","audio-keyboard-response","56","2478182","0.0-13.0-0.1","a","COGS219_2020_18","Sounds/cow_sound.wav","null","1","","","","","","",""
"null","","html-keyboard-response","57","2479184","0.0-13.0-1.1","a","COGS219_2020_18","<p style=""font-size: 48px;"">+</p>","null","1","","","","","","",""
"575.0499999993481","","image-keyboard-response","58","2479760","0.0-13.0-2.1","a","COGS219_2020_18","Images/car_orig.png","76","1","1581985111285","non-match","car","cow","sound","test","true"
"null","","audio-keyboard-response","59","2481772","0.0-13.0-3.1","a","COGS219_2020_18","Sounds/correct.wav","null","1","","","","","","",""
"null","","audio-keyboard-response","60","2483080","0.0-13.0-0.2","a","COGS219_2020_18","Sounds/train_sound.wav","null","1","","","","","","",""
"null","","html-keyboard-response","61","2484084","0.0-13.0-1.2","a","COGS219_2020_18","<p style=""font-size: 48px;"">+</p>","null","1","","","","","","",""
"451.1199999982491","","image-keyboard-response","62","2484536","0.0-13.0-2.2","a","COGS219_2020_18","Images/train_orig.png","65","1","1581985116184","match","train","train","sound","test","true"
"null","","audio-keyboard-response","63","2486548","0.0-13.0-3.2","a","COGS219_2020_18","Sounds/correct.wav","null","1","","","","","","",""
"null","","audio-keyboard-response","64","2487820","0.0-13.0-0.3","a","COGS219_2020_18","Sounds/train_sound.wav","null","1","","","","","","",""
"null","","html-keyboard-response","65","2488817","0.0-13.0-1.3","a","COGS219_2020_18","<p style=""font-size: 48px;"">+</p>","null","1","","","","","","",""
"541.7199999974109","","image-keyboard-response","66","2489360","0.0-13.0-2.3","a","COGS219_2020_18","Images/train_2.png","65","1","1581985120918","match","train","train","sound","test","true"
"null","","audio-keyboard-response","67","2491376","0.0-13.0-3.3","a","COGS219_2020_18","Sounds/correct.wav","null","1","","","","","","",""
"null","","audio-keyboard-response","68","2492220","0.0-13.0-0.4","a","COGS219_2020_18","Sounds/cat_label.wav","null","1","","","","","","",""
"null","","html-keyboard-response","69","2493218","0.0-13.0-1.4","a","COGS219_2020_18","<p style=""font-size: 48px;"">+</p>","null","1","","","","","","",""
"549.6400000010617","","image-keyboard-response","70","2493768","0.0-13.0-2.4","a","COGS219_2020_18","Images/rooster_3.png","76","1","1581985125318","non-match","rooster","cat","label","test","true"
"null","","audio-keyboard-response","71","2495777","0.0-13.0-3.4","a","COGS219_2020_18","Sounds/correct.wav","null","1","","","","","","",""
"null","","audio-keyboard-response","72","2496480","0.0-13.0-0.5","a","COGS219_2020_18","Sounds/dog_sound.wav","null","1","","","","","","",""
"null","","html-keyboard-response","73","2497484","0.0-13.0-1.5","a","COGS219_2020_18","<p style=""font-size: 48px;"">+</p>","null","1","","","","","","",""
"562.749999997206","","image-keyboard-response","74","2498048","0.0-13.0-2.5","a","COGS219_2020_18","Images/dog_1.png","65","1","1581985129584","match","dog","dog","sound","test","true"
"null","","audio-keyboard-response","75","2500057","0.0-13.0-3.5","a","COGS219_2020_18","Sounds/correct.wav","null","1","","","","","","",""
"null","","audio-keyboard-response","76","2501320","0.0-13.0-0.6","a","COGS219_2020_18","Sounds/train_sound.wav","null","1","","","","","","",""
"null","","html-keyboard-response","77","2502318","0.0-13.0-1.6","a","COGS219_2020_18","<p style=""font-size: 48px;"">+</p>","null","1","","","","","","",""
"513.6549999988638","","image-keyboard-response","78","2502832","0.0-13.0-2.6","a","COGS219_2020_18","Images/frog_2.png","76","1","1581985134418","non-match","frog","train","sound","test","true"
"null","","audio-keyboard-response","79","2504845","0.0-13.0-3.6","a","COGS219_2020_18","Sounds/correct.wav","null","1","","","","","","",""
"null","","audio-keyboard-response","80","2505660","0.0-13.0-0.7","a","COGS219_2020_18","Sounds/cat_label.wav","null","1","","","","","","",""
"null","","html-keyboard-response","81","2506651","0.0-13.0-1.7","a","COGS219_2020_18","<p style=""font-size: 48px;"">+</p>","null","1","","","","","","",""
"484.1300000003539","","image-keyboard-response","82","2507136","0.0-13.0-2.7","a","COGS219_2020_18","Images/cow_1.png","76","1","1581985138751","non-match","cow","cat","label","test","true"
"null","","audio-keyboard-response","83","2509148","0.0-13.0-3.7","a","COGS219_2020_18","Sounds/correct.wav","null","1","","","","","","",""
"null","","audio-keyboard-response","84","2510040","0.0-13.0-0.8","a","COGS219_2020_18","Sounds/frog_label.wav","null","1","","","","","","",""
"null","","html-keyboard-response","85","2511034","0.0-13.0-1.8","a","COGS219_2020_18","<p style=""font-size: 48px;"">+</p>","null","1","","","","","","",""
"437.15499999932945","","image-keyboard-response","86","2511472","0.0-13.0-2.8","a","COGS219_2020_18","Images/frog_3.png","65","1","1581985143135","match","frog","frog","label","test","true"
"null","","audio-keyboard-response","87","2513475","0.0-13.0-3.8","a","COGS219_2020_18","Sounds/correct.wav","null","1","","","","","","",""
"null","","audio-keyboard-response","88","2514320","0.0-13.0-0.9","a","COGS219_2020_18","Sounds/cat_sound.wav","null","1","","","","","","",""
"null","","html-keyboard-response","89","2515318","0.0-13.0-1.9","a","COGS219_2020_18","<p style=""font-size: 48px;"">+</p>","null","1","","","","","","",""
"369.5299999997951","","image-keyboard-response","90","2515688","0.0-13.0-2.9","a","COGS219_2020_18","Images/cat_orig.png","65","1","1581985147418","match","cat","cat","sound","test","true"
"null","","audio-keyboard-response","91","2517705","0.0-13.0-3.9","a","COGS219_2020_18","Sounds/correct.wav","null","1","","","","","","",""
"null","","audio-keyboard-response","92","2518360","0.0-13.0-0.10","a","COGS219_2020_18","Sounds/dog_label.wav","null","1","","","","","","",""
"null","","html-keyboard-response","93","2519351","0.0-13.0-1.10","a","COGS219_2020_18","<p style=""font-size: 48px;"">+</p>","null","1","","","","","","",""
"349.95499999821186","","image-keyboard-response","94","2519704","0.0-13.0-2.10","a","COGS219_2020_18","Images/dog_orig.png","65","1","1581985151451","match","dog","dog","label","test","true"
"null","","audio-keyboard-response","95","2521708","0.0-13.0-3.10","a","COGS219_2020_18","Sounds/correct.wav","null","1","","","","","","",""
"null","","audio-keyboard-response","96","2522520","0.0-13.0-0.11","a","COGS219_2020_18","Sounds/cat_sound.wav","null","1","","","","","","",""
"null","","html-keyboard-response","97","2523518","0.0-13.0-1.11","a","COGS219_2020_18","<p style=""font-size: 48px;"">+</p>","null","1","","","","","","",""
"377.5549999992363","","image-keyboard-response","98","2523896","0.0-13.0-2.11","a","COGS219_2020_18","Images/motorcycle_cartoon.png","76","1","1581985155618","non-match","motorcycle","cat","sound","test","true"
"null","","audio-keyboard-response","99","2525906","0.0-13.0-3.11","a","COGS219_2020_18","Sounds/correct.wav","null","1","","","","","","",""
"null","","audio-keyboard-response","100","2526600","0.0-13.0-0.12","a","COGS219_2020_18","Sounds/whistle_sound.wav","null","1","","","","","","",""
"null","","html-keyboard-response","101","2527618","0.0-13.0-1.12","a","COGS219_2020_18","<p style=""font-size: 48px;"">+</p>","null","1","","","","","","",""
"613.2650000001304","","image-keyboard-response","102","2528232","0.0-13.0-2.12","a","COGS219_2020_18","Images/train_3.png","65","1","1581985159718","non-match","train","whistle","sound","test","false"
"null","","audio-keyboard-response","103","2530236","0.0-13.0-3.12","a","COGS219_2020_18","Sounds/incorrect.wav","null","1","","","","","","",""
"null","","audio-keyboard-response","104","2530944","0.0-13.0-0.13","a","COGS219_2020_18","Sounds/dog_sound.wav","null","1","","","","","","",""
"null","","html-keyboard-response","105","2531939","0.0-13.0-1.13","a","COGS219_2020_18","<p style=""font-size: 48px;"">+</p>","null","1","","","","","","",""
"696.6499999980442","","image-keyboard-response","106","2532637","0.0-13.0-2.13","a","COGS219_2020_18","Images/cat_1.png","76","1","1581985164039","non-match","cat","dog","sound","test","true"
"null","","audio-keyboard-response","107","2534652","0.0-13.0-3.13","a","COGS219_2020_18","Sounds/correct.wav","null","1","","","","","","",""
"null","","audio-keyboard-response","108","2535325","0.0-13.0-0.14","a","COGS219_2020_18","Sounds/whistle_sound.wav","null","1","","","","","","",""
"null","","html-keyboard-response","109","2536322","0.0-13.0-1.14","a","COGS219_2020_18","<p style=""font-size: 48px;"">+</p>","null","1","","","","","","",""
"393.76500000059605","","image-keyboard-response","110","2536717","0.0-13.0-2.14","a","COGS219_2020_18","Images/whistle_cartoon.png","65","1","1581985168423","match","whistle","whistle","sound","test","true"
"null","","audio-keyboard-response","111","2538726","0.0-13.0-3.14","a","COGS219_2020_18","Sounds/correct.wav","null","1","","","","","","",""
"null","","audio-keyboard-response","112","2539744","0.0-13.0-0.15","a","COGS219_2020_18","Sounds/cow_sound.wav","null","1","","","","","","",""
"null","","html-keyboard-response","113","2540739","0.0-13.0-1.15","a","COGS219_2020_18","<p style=""font-size: 48px;"">+</p>","null","1","","","","","","",""
"328.81500000087544","","image-keyboard-response","114","2541069","0.0-13.0-2.15","a","COGS219_2020_18","Images/cow_orig.png","65","1","1581985172839","match","cow","cow","sound","test","true"
"null","","audio-keyboard-response","115","2543080","0.0-13.0-3.15","a","COGS219_2020_18","Sounds/correct.wav","null","1","","","","","","",""
"null","","audio-keyboard-response","116","2543664","0.0-13.0-0.16","a","COGS219_2020_18","Sounds/gun_sound.wav","null","1","","","","","","",""
"null","","html-keyboard-response","117","2544656","0.0-13.0-1.16","a","COGS219_2020_18","<p style=""font-size: 48px;"">+</p>","null","1","","","","","","",""
"611.7950000008568","","image-keyboard-response","118","2545269","0.0-13.0-2.16","a","COGS219_2020_18","Images/whistle_2.png","76","1","1581985176756","non-match","whistle","gun","sound","test","true"
"null","","audio-keyboard-response","119","2547276","0.0-13.0-3.16","a","COGS219_2020_18","Sounds/correct.wav","null","1","","","","","","",""
"null","","audio-keyboard-response","120","2548564","0.0-13.0-0.17","a","COGS219_2020_18","Sounds/train_sound.wav","null","1","","","","","","",""
"null","","html-keyboard-response","121","2549556","0.0-13.0-1.17","a","COGS219_2020_18","<p style=""font-size: 48px;"">+</p>","null","1","","","","","","",""
"431.874999998603","","image-keyboard-response","122","2549989","0.0-13.0-2.17","a","COGS219_2020_18","Images/dog_3.png","76","1","1581985181656","non-match","dog","train","sound","test","true"
"null","","audio-keyboard-response","123","2552006","0.0-13.0-3.17","a","COGS219_2020_18","Sounds/correct.wav","null","1","","","","","","",""
"null","","audio-keyboard-response","124","2552704","0.0-13.0-0.18","a","COGS219_2020_18","Sounds/rooster_sound.wav","null","1","","","","","","",""
"null","","html-keyboard-response","125","2553723","0.0-13.0-1.18","a","COGS219_2020_18","<p style=""font-size: 48px;"">+</p>","null","1","","","","","","",""
"409.214999999851","","image-keyboard-response","126","2554133","0.0-13.0-2.18","a","COGS219_2020_18","Images/dog_cartoon.png","76","1","1581985185823","non-match","dog","rooster","sound","test","true"
"null","","audio-keyboard-response","127","2556139","0.0-13.0-3.18","a","COGS219_2020_18","Sounds/correct.wav","null","1","","","","","","",""
"null","","audio-keyboard-response","128","2556724","0.0-13.0-0.19","a","COGS219_2020_18","Sounds/gun_label.wav","null","1","","","","","","",""
"null","","html-keyboard-response","129","2557723","0.0-13.0-1.19","a","COGS219_2020_18","<p style=""font-size: 48px;"">+</p>","null","1","","","","","","",""
"416.85499999905005","","image-keyboard-response","130","2558141","0.0-13.0-2.19","a","COGS219_2020_18","Images/gun_2.png","65","1","1581985189823","match","gun","gun","label","test","true"
"null","","audio-keyboard-response","131","2560155","0.0-13.0-3.19","a","COGS219_2020_18","Sounds/correct.wav","null","1","","","","","","",""
"null","","audio-keyboard-response","132","2561264","0.0-13.0-0.20","a","COGS219_2020_18","Sounds/motorcycle_sound.wav","null","1","","","","","","",""
"null","","html-keyboard-response","133","2562256","0.0-13.0-1.20","a","COGS219_2020_18","<p style=""font-size: 48px;"">+</p>","null","1","","","","","","",""
"459.820000000298","","image-keyboard-response","134","2562717","0.0-13.0-2.20","a","COGS219_2020_18","Images/dog_2.png","76","1","1581985194356","non-match","dog","motorcycle","sound","test","true"
"null","","audio-keyboard-response","135","2564721","0.0-13.0-3.20","a","COGS219_2020_18","Sounds/correct.wav","null","1","","","","","","",""
"null","","audio-keyboard-response","136","2565564","0.0-13.0-0.21","a","COGS219_2020_18","Sounds/cat_sound.wav","null","1","","","","","","",""
"null","","html-keyboard-response","137","2566556","0.0-13.0-1.21","a","COGS219_2020_18","<p style=""font-size: 48px;"">+</p>","null","1","","","","","","",""
"391.45000000251457","","image-keyboard-response","138","2566949","0.0-13.0-2.21","a","COGS219_2020_18","Images/frog_orig.png","76","1","1581985198656","non-match","frog","cat","sound","test","true"
"null","","audio-keyboard-response","139","2568959","0.0-13.0-3.21","a","COGS219_2020_18","Sounds/correct.wav","null","1","","","","","","",""
"null","","audio-keyboard-response","140","2570044","0.0-13.0-0.22","a","COGS219_2020_18","Sounds/car_sound.wav","null","1","","","","","","",""
"null","","html-keyboard-response","141","2571039","0.0-13.0-1.22","a","COGS219_2020_18","<p style=""font-size: 48px;"">+</p>","null","1","","","","","","",""
"412.20499999728054","","image-keyboard-response","142","2571453","0.0-13.0-2.22","a","COGS219_2020_18","Images/frog_3.png","76","1","1581985203140","non-match","frog","car","sound","test","true"
"null","","audio-keyboard-response","143","2573457","0.0-13.0-3.22","a","COGS219_2020_18","Sounds/correct.wav","null","1","","","","","","",""
"null","","audio-keyboard-response","144","2574744","0.0-13.0-0.23","a","COGS219_2020_18","Sounds/train_sound.wav","null","1","","","","","","",""
"null","","html-keyboard-response","145","2575740","0.0-13.0-1.23","a","COGS219_2020_18","<p style=""font-size: 48px;"">+</p>","null","1","","","","","","",""
"494.875","","image-keyboard-response","146","2576237","0.0-13.0-2.23","a","COGS219_2020_18","Images/train_1.png","65","1","1581985207840","match","train","train","sound","test","true"
"null","","audio-keyboard-response","147","2578250","0.0-13.0-3.23","a","COGS219_2020_18","Sounds/correct.wav","null","1","","","","","","",""
"null","","audio-keyboard-response","148","2578824","0.0-13.0-0.24","a","COGS219_2020_18","Sounds/gun_label.wav","null","1","","","","","","",""
"null","","html-keyboard-response","149","2579823","0.0-13.0-1.24","a","COGS219_2020_18","<p style=""font-size: 48px;"">+</p>","null","1","","","","","","",""
"492.6650000018999","","image-keyboard-response","150","2580317","0.0-13.0-2.24","a","COGS219_2020_18","Images/gun_3.png","65","1","1581985211923","match","gun","gun","label","test","true"
"null","","audio-keyboard-response","151","2582334","0.0-13.0-3.24","a","COGS219_2020_18","Sounds/correct.wav","null","1","","","","","","",""
"null","","audio-keyboard-response","152","2582984","0.0-13.0-0.25","a","COGS219_2020_18","Sounds/dog_label.wav","null","1","","","","","","",""
"null","","html-keyboard-response","153","2583973","0.0-13.0-1.25","a","COGS219_2020_18","<p style=""font-size: 48px;"">+</p>","null","1","","","","","","",""
"446.6099999989383","","image-keyboard-response","154","2584421","0.0-13.0-2.25","a","COGS219_2020_18","Images/dog_3.png","65","1","1581985216073","match","dog","dog","label","test","true"
"null","","audio-keyboard-response","155","2586423","0.0-13.0-3.25","a","COGS219_2020_18","Sounds/correct.wav","null","1","","","","","","",""
"null","","audio-keyboard-response","156","2587124","0.0-13.0-0.26","a","COGS219_2020_18","Sounds/whistle_label.wav","null","1","","","","","","",""
"null","","html-keyboard-response","157","2588123","0.0-13.0-1.26","a","COGS219_2020_18","<p style=""font-size: 48px;"">+</p>","null","1","","","","","","",""
"408.90999999828637","","image-keyboard-response","158","2588533","0.0-13.0-2.26","a","COGS219_2020_18","Images/dog_1.png","76","1","1581985220223","non-match","dog","whistle","label","test","true"
"null","","audio-keyboard-response","159","2590541","0.0-13.0-3.26","a","COGS219_2020_18","Sounds/correct.wav","null","1","","","","","","",""
"null","","audio-keyboard-response","160","2591444","0.0-13.0-0.27","a","COGS219_2020_18","Sounds/frog_sound.wav","null","1","","","","","","",""
"null","","html-keyboard-response","161","2592439","0.0-13.0-1.27","a","COGS219_2020_18","<p style=""font-size: 48px;"">+</p>","null","1","","","","","","",""
"324.05500000109896","","image-keyboard-response","162","2592764","0.0-13.0-2.27","a","COGS219_2020_18","Images/frog_2.png","65","1","1581985224540","match","frog","frog","sound","test","true"
"null","","audio-keyboard-response","163","2594780","0.0-13.0-3.27","a","COGS219_2020_18","Sounds/correct.wav","null","1","","","","","","",""
"null","","audio-keyboard-response","164","2595664","0.0-13.0-0.28","a","COGS219_2020_18","Sounds/frog_sound.wav","null","1","","","","","","",""
"null","","html-keyboard-response","165","2596656","0.0-13.0-1.28","a","COGS219_2020_18","<p style=""font-size: 48px;"">+</p>","null","1","","","","","","",""
"419.3799999994226","","image-keyboard-response","166","2597076","0.0-13.0-2.28","a","COGS219_2020_18","Images/cow_cartoon.png","76","1","1581985228756","non-match","cow","frog","sound","test","true"
"null","","audio-keyboard-response","167","2599091","0.0-13.0-3.28","a","COGS219_2020_18","Sounds/correct.wav","null","1","","","","","","",""
"null","","audio-keyboard-response","168","2599984","0.0-13.0-0.29","a","COGS219_2020_18","Sounds/frog_label.wav","null","1","","","","","","",""
"null","","html-keyboard-response","169","2600973","0.0-13.0-1.29","a","COGS219_2020_18","<p style=""font-size: 48px;"">+</p>","null","1","","","","","","",""
"470.62999999988824","","image-keyboard-response","170","2601445","0.0-13.0-2.29","a","COGS219_2020_18","Images/rooster_2.png","76","1","1581985233073","non-match","rooster","frog","label","test","true"
"null","","audio-keyboard-response","171","2603453","0.0-13.0-3.29","a","COGS219_2020_18","Sounds/correct.wav","null","1","","","","","","",""
"null","","audio-keyboard-response","172","2604284","0.0-13.0-0.30","a","COGS219_2020_18","Sounds/cat_sound.wav","null","1","","","","","","",""
"null","","html-keyboard-response","173","2605273","0.0-13.0-1.30","a","COGS219_2020_18","<p style=""font-size: 48px;"">+</p>","null","1","","","","","","",""
"354.6150000002235","","image-keyboard-response","174","2605629","0.0-13.0-2.30","a","COGS219_2020_18","Images/cat_1.png","65","1","1581985237373","match","cat","cat","sound","test","true"
"null","","audio-keyboard-response","175","2607644","0.0-13.0-3.30","a","COGS219_2020_18","Sounds/correct.wav","null","1","","","","","","",""
"null","","audio-keyboard-response","176","2608224","0.0-13.0-0.31","a","COGS219_2020_18","Sounds/gun_sound.wav","null","1","","","","","","",""
"null","","html-keyboard-response","177","2609223","0.0-13.0-1.31","a","COGS219_2020_18","<p style=""font-size: 48px;"">+</p>","null","1","","","","","","",""
"452.29000000143424","","image-keyboard-response","178","2609676","0.0-13.0-2.31","a","COGS219_2020_18","Images/cow_2.png","76","1","1581985241323","non-match","cow","gun","sound","test","true"
"null","","audio-keyboard-response","179","2611687","0.0-13.0-3.31","a","COGS219_2020_18","Sounds/correct.wav","null","1","","","","","","",""
"null","","audio-keyboard-response","180","2612344","0.0-13.0-0.32","a","COGS219_2020_18","Sounds/dog_label.wav","null","1","","","","","","",""
"null","","html-keyboard-response","181","2613340","0.0-13.0-1.32","a","COGS219_2020_18","<p style=""font-size: 48px;"">+</p>","null","1","","","","","","",""
"471.7750000017695","","image-keyboard-response","182","2613813","0.0-13.0-2.32","a","COGS219_2020_18","Images/motorcycle_orig.png","76","1","1581985245440","non-match","motorcycle","dog","label","test","true"
"null","","audio-keyboard-response","183","2615819","0.0-13.0-3.32","a","COGS219_2020_18","Sounds/correct.wav","null","1","","","","","","",""
"null","","audio-keyboard-response","184","2616904","0.0-13.0-0.33","a","COGS219_2020_18","Sounds/car_label.wav","null","1","","","","","","",""
"null","","html-keyboard-response","185","2617907","0.0-13.0-1.33","a","COGS219_2020_18","<p style=""font-size: 48px;"">+</p>","null","1","","","","","","",""
"424.90500000026077","","image-keyboard-response","186","2618332","0.0-13.0-2.33","a","COGS219_2020_18","Images/car_3.png","65","1","1581985250007","match","car","car","label","test","true"
"null","","audio-keyboard-response","187","2620344","0.0-13.0-3.33","a","COGS219_2020_18","Sounds/correct.wav","null","1","","","","","","",""
"null","","audio-keyboard-response","188","2621044","0.0-13.0-0.34","a","COGS219_2020_18","Sounds/rooster_label.wav","null","1","","","","","","",""
"null","","html-keyboard-response","189","2622040","0.0-13.0-1.34","a","COGS219_2020_18","<p style=""font-size: 48px;"">+</p>","null","1","","","","","","",""
"355.6700000008568","","image-keyboard-response","190","2622396","0.0-13.0-2.34","a","COGS219_2020_18","Images/train_1.png","76","1","1581985254140","non-match","train","rooster","label","test","true"
"null","","audio-keyboard-response","191","2624412","0.0-13.0-3.34","a","COGS219_2020_18","Sounds/correct.wav","null","1","","","","","","",""
"null","","audio-keyboard-response","192","2625544","0.0-13.0-0.35","a","COGS219_2020_18","Sounds/motorcycle_label.wav","null","1","","","","","","",""
"null","","html-keyboard-response","193","2626540","0.0-13.0-1.35","a","COGS219_2020_18","<p style=""font-size: 48px;"">+</p>","null","1","","","","","","",""
"341.88499999791384","","image-keyboard-response","194","2626885","0.0-13.0-2.35","a","COGS219_2020_18","Images/motorcycle_cartoon.png","65","1","1581985258640","match","motorcycle","motorcycle","label","test","true"
"null","","audio-keyboard-response","195","2628898","0.0-13.0-3.35","a","COGS219_2020_18","Sounds/correct.wav","null","1","","","","","","",""
"null","","audio-keyboard-response","196","2629924","0.0-13.0-0.36","a","COGS219_2020_18","Sounds/cow_sound.wav","null","1","","","","","","",""
"null","","html-keyboard-response","197","2630923","0.0-13.0-1.36","a","COGS219_2020_18","<p style=""font-size: 48px;"">+</p>","null","1","","","","","","",""
"360.37500000046566","","image-keyboard-response","198","2631284","0.0-13.0-2.36","a","COGS219_2020_18","Images/dog_orig.png","76","1","1581985263023","non-match","dog","cow","sound","test","true"
"null","","audio-keyboard-response","199","2633295","0.0-13.0-3.36","a","COGS219_2020_18","Sounds/correct.wav","null","1","","","","","","",""
"null","","audio-keyboard-response","200","2633864","0.0-13.0-0.37","a","COGS219_2020_18","Sounds/gun_sound.wav","null","1","","","","","","",""
"null","","html-keyboard-response","201","2634857","0.0-13.0-1.37","a","COGS219_2020_18","<p style=""font-size: 48px;"">+</p>","null","1","","","","","","",""
"362.82000000216067","","image-keyboard-response","202","2635220","0.0-13.0-2.37","a","COGS219_2020_18","Images/gun_1.png","65","1","1581985266957","match","gun","gun","sound","test","true"
"null","","audio-keyboard-response","203","2637229","0.0-13.0-3.37","a","COGS219_2020_18","Sounds/correct.wav","null","1","","","","","","",""
"null","","audio-keyboard-response","204","2637904","0.0-13.0-0.38","a","COGS219_2020_18","Sounds/rooster_label.wav","null","1","","","","","","",""
"null","","html-keyboard-response","205","2638907","0.0-13.0-1.38","a","COGS219_2020_18","<p style=""font-size: 48px;"">+</p>","null","1","","","","","","",""
"408.839999999851","","image-keyboard-response","206","2639317","0.0-13.0-2.38","a","COGS219_2020_18","Images/rooster_orig.png","65","1","1581985271007","match","rooster","rooster","label","test","true"
"null","","audio-keyboard-response","207","2641324","0.0-13.0-3.38","a","COGS219_2020_18","Sounds/correct.wav","null","1","","","","","","",""
"null","","audio-keyboard-response","208","2642344","0.0-13.0-0.39","a","COGS219_2020_18","Sounds/cow_label.wav","null","1","","","","","","",""
"null","","html-keyboard-response","209","2643340","0.0-13.0-1.39","a","COGS219_2020_18","<p style=""font-size: 48px;"">+</p>","null","1","","","","","","",""
"479.6199999982491","","image-keyboard-response","210","2643821","0.0-13.0-2.39","a","COGS219_2020_18","Images/cow_cartoon.png","65","1","1581985275440","match","cow","cow","label","test","true"
"null","","audio-keyboard-response","211","2645835","0.0-13.0-3.39","a","COGS219_2020_18","Sounds/correct.wav","null","1","","","","","","",""
"null","","audio-keyboard-response","212","2646664","0.0-13.0-0.40","a","COGS219_2020_18","Sounds/cat_label.wav","null","1","","","","","","",""
"null","","html-keyboard-response","213","2647657","0.0-13.0-1.40","a","COGS219_2020_18","<p style=""font-size: 48px;"">+</p>","null","1","","","","","","",""
"434.7150000031106","","image-keyboard-response","214","2648092","0.0-13.0-2.40","a","COGS219_2020_18","Images/cat_2.png","65","1","1581985279757","match","cat","cat","label","test","true"
"null","","audio-keyboard-response","215","2650107","0.0-13.0-3.40","a","COGS219_2020_18","Sounds/correct.wav","null","1","","","","","","",""
"null","","audio-keyboard-response","216","2651024","0.0-13.0-0.41","a","COGS219_2020_18","Sounds/frog_sound.wav","null","1","","","","","","",""
"null","","html-keyboard-response","217","2652023","0.0-13.0-1.41","a","COGS219_2020_18","<p style=""font-size: 48px;"">+</p>","null","1","","","","","","",""
"428.1150000025518","","image-keyboard-response","218","2652452","0.0-13.0-2.41","a","COGS219_2020_18","Images/frog_orig.png","65","1","1581985284123","match","frog","frog","sound","test","true"
"null","","audio-keyboard-response","219","2654462","0.0-13.0-3.41","a","COGS219_2020_18","Sounds/correct.wav","null","1","","","","","","",""
"null","","audio-keyboard-response","220","2655164","0.0-13.0-0.42","a","COGS219_2020_18","Sounds/whistle_label.wav","null","1","","","","","","",""
"null","","html-keyboard-response","221","2656157","0.0-13.0-1.42","a","COGS219_2020_18","<p style=""font-size: 48px;"">+</p>","null","1","","","","","","",""
"430.67499999981374","","image-keyboard-response","222","2656588","0.0-13.0-2.42","a","COGS219_2020_18","Images/car_3.png","76","1","1581985288257","non-match","car","whistle","label","test","true"
"null","","audio-keyboard-response","223","2658606","0.0-13.0-3.42","a","COGS219_2020_18","Sounds/correct.wav","null","1","","","","","","",""
"null","","audio-keyboard-response","224","2659324","0.0-13.0-0.43","a","COGS219_2020_18","Sounds/dog_sound.wav","null","1","","","","","","",""
"null","","html-keyboard-response","225","2660323","0.0-13.0-1.43","a","COGS219_2020_18","<p style=""font-size: 48px;"">+</p>","null","1","","","","","","",""
"455.84500000067055","","image-keyboard-response","226","2660780","0.0-13.0-2.43","a","COGS219_2020_18","Images/rooster_1.png","76","1","1581985292423","non-match","rooster","dog","sound","test","true"
"null","","audio-keyboard-response","227","2662787","0.0-13.0-3.43","a","COGS219_2020_18","Sounds/correct.wav","null","1","","","","","","",""
"null","","audio-keyboard-response","228","2663864","0.0-13.0-0.44","a","COGS219_2020_18","Sounds/car_label.wav","null","1","","","","","","",""
"null","","html-keyboard-response","229","2664857","0.0-13.0-1.44","a","COGS219_2020_18","<p style=""font-size: 48px;"">+</p>","null","1","","","","","","",""
"386.76499999919906","","image-keyboard-response","230","2665244","0.0-13.0-2.44","a","COGS219_2020_18","Images/car_1.png","65","1","1581985296957","match","car","car","label","test","true"
"null","","audio-keyboard-response","231","2667259","0.0-13.0-3.44","a","COGS219_2020_18","Sounds/correct.wav","null","1","","","","","","",""
"null","","audio-keyboard-response","232","2667924","0.0-13.0-0.45","a","COGS219_2020_18","Sounds/whistle_label.wav","null","1","","","","","","",""
"null","","html-keyboard-response","233","2668923","0.0-13.0-1.45","a","COGS219_2020_18","<p style=""font-size: 48px;"">+</p>","null","1","","","","","","",""
"447.88499999791384","","image-keyboard-response","234","2669372","0.0-13.0-2.45","a","COGS219_2020_18","Images/whistle_1.png","65","1","1581985301023","match","whistle","whistle","label","test","true"
"null","","audio-keyboard-response","235","2671387","0.0-13.0-3.45","a","COGS219_2020_18","Sounds/correct.wav","null","1","","","","","","",""
"null","","audio-keyboard-response","236","2672664","0.0-13.0-0.46","a","COGS219_2020_18","Sounds/train_label.wav","null","1","","","","","","",""
"null","","html-keyboard-response","237","2673657","0.0-13.0-1.46","a","COGS219_2020_18","<p style=""font-size: 48px;"">+</p>","null","1","","","","","","",""
"434.4700000002049","","image-keyboard-response","238","2674092","0.0-13.0-2.46","a","COGS219_2020_18","Images/car_2.png","65","1","1581985305757","non-match","car","train","label","test","false"
"null","","audio-keyboard-response","239","2676107","0.0-13.0-3.46","a","COGS219_2020_18","Sounds/incorrect.wav","null","1","","","","","","",""
"null","","audio-keyboard-response","240","2677244","0.0-13.0-0.47","a","COGS219_2020_18","Sounds/motorcycle_label.wav","null","1","","","","","","",""
"null","","html-keyboard-response","241","2678240","0.0-13.0-1.47","a","COGS219_2020_18","<p style=""font-size: 48px;"">+</p>","null","1","","","","","","",""
"451.3300000000745","","image-keyboard-response","242","2678692","0.0-13.0-2.47","a","COGS219_2020_18","Images/motorcycle_3.png","65","1","1581985310340","match","motorcycle","motorcycle","label","test","true"
"null","","audio-keyboard-response","243","2680704","0.0-13.0-3.47","a","COGS219_2020_18","Sounds/correct.wav","null","1","","","","","","",""
"null","","audio-keyboard-response","244","2681764","0.0-13.0-0.48","a","COGS219_2020_18","Sounds/car_label.wav","null","1","","","","","","",""
"null","","html-keyboard-response","245","2682757","0.0-13.0-1.48","a","COGS219_2020_18","<p style=""font-size: 48px;"">+</p>","null","1","","","","","","",""
"966.2749999989755","","image-keyboard-response","246","2683724","0.0-13.0-2.48","a","COGS219_2020_18","Images/car_cartoon.png","65","1","1581985314857","match","car","car","label","test","true"
"null","","audio-keyboard-response","247","2685734","0.0-13.0-3.48","a","COGS219_2020_18","Sounds/correct.wav","null","1","","","","","","",""
"null","","audio-keyboard-response","248","2686804","0.0-13.0-0.49","a","COGS219_2020_18","Sounds/car_sound.wav","null","1","","","","","","",""
"null","","html-keyboard-response","249","2687807","0.0-13.0-1.49","a","COGS219_2020_18","<p style=""font-size: 48px;"">+</p>","null","1","","","","","","",""
"804.4799999985844","","image-keyboard-response","250","2688612","0.0-13.0-2.49","a","COGS219_2020_18","Images/whistle_3.png","76","1","1581985319907","non-match","whistle","car","sound","test","true"
"null","","audio-keyboard-response","251","2690627","0.0-13.0-3.49","a","COGS219_2020_18","Sounds/correct.wav","null","1","","","","","","",""
"null","","audio-keyboard-response","252","2691684","0.0-13.0-0.50","a","COGS219_2020_18","Sounds/car_sound.wav","null","1","","","","","","",""
"null","","html-keyboard-response","253","2692673","0.0-13.0-1.50","a","COGS219_2020_18","<p style=""font-size: 48px;"">+</p>","null","1","","","","","","",""
"449.98999999742955","","image-keyboard-response","254","2693124","0.0-13.0-2.50","a","COGS219_2020_18","Images/gun_orig.png","76","1","1581985324774","non-match","gun","car","sound","test","true"
"null","","audio-keyboard-response","255","2695139","0.0-13.0-3.50","a","COGS219_2020_18","Sounds/correct.wav","null","1","","","","","","",""
"null","","audio-keyboard-response","256","2696264","0.0-13.0-0.51","a","COGS219_2020_18","Sounds/motorcycle_label.wav","null","1","","","","","","",""
"null","","html-keyboard-response","257","2697257","0.0-13.0-1.51","a","COGS219_2020_18","<p style=""font-size: 48px;"">+</p>","null","1","","","","","","",""
"386.31000000145286","","image-keyboard-response","258","2697644","0.0-13.0-2.51","a","COGS219_2020_18","Images/motorcycle_orig.png","65","1","1581985329357","match","motorcycle","motorcycle","label","test","true"
"null","","audio-keyboard-response","259","2699660","0.0-13.0-3.51","a","COGS219_2020_18","Sounds/correct.wav","null","1","","","","","","",""
"null","","audio-keyboard-response","260","2700784","0.0-13.0-0.52","a","COGS219_2020_18","Sounds/motorcycle_sound.wav","null","1","","","","","","",""
"null","","html-keyboard-response","261","2701773","0.0-13.0-1.52","a","COGS219_2020_18","<p style=""font-size: 48px;"">+</p>","null","1","","","","","","",""
"389.6150000002235","","image-keyboard-response","262","2702164","0.0-13.0-2.52","a","COGS219_2020_18","Images/motorcycle_2.png","65","1","1581985333874","match","motorcycle","motorcycle","sound","test","true"
"null","","audio-keyboard-response","263","2704178","0.0-13.0-3.52","a","COGS219_2020_18","Sounds/correct.wav","null","1","","","","","","",""
"null","","audio-keyboard-response","264","2705284","0.0-13.0-0.53","a","COGS219_2020_18","Sounds/motorcycle_label.wav","null","1","","","","","","",""
"null","","html-keyboard-response","265","2706273","0.0-13.0-1.53","a","COGS219_2020_18","<p style=""font-size: 48px;"">+</p>","null","1","","","","","","",""
"426.0250000008382","","image-keyboard-response","266","2706700","0.0-13.0-2.53","a","COGS219_2020_18","Images/motorcycle_1.png","65","1","1581985338374","match","motorcycle","motorcycle","label","test","true"
"null","","audio-keyboard-response","267","2708709","0.0-13.0-3.53","a","COGS219_2020_18","Sounds/correct.wav","null","1","","","","","","",""
"null","","audio-keyboard-response","268","2709784","0.0-13.0-0.54","a","COGS219_2020_18","Sounds/car_sound.wav","null","1","","","","","","",""
"null","","html-keyboard-response","269","2710774","0.0-13.0-1.54","a","COGS219_2020_18","<p style=""font-size: 48px;"">+</p>","null","1","","","","","","",""
"437.6299999966286","","image-keyboard-response","270","2711212","0.0-13.0-2.54","a","COGS219_2020_18","Images/cow_orig.png","76","1","1581985342874","non-match","cow","car","sound","test","true"
"null","","audio-keyboard-response","271","2713222","0.0-13.0-3.54","a","COGS219_2020_18","Sounds/correct.wav","null","1","","","","","","",""
"null","","audio-keyboard-response","272","2714243","0.0-13.0-0.55","a","COGS219_2020_18","Sounds/cow_sound.wav","null","1","","","","","","",""
"null","","html-keyboard-response","273","2715240","0.0-13.0-1.55","a","COGS219_2020_18","<p style=""font-size: 48px;"">+</p>","null","1","","","","","","",""
"450.76999999955297","","image-keyboard-response","274","2715692","0.0-13.0-2.55","a","COGS219_2020_18","Images/rooster_orig.png","76","1","1581985347340","non-match","rooster","cow","sound","test","true"
"null","","audio-keyboard-response","275","2717704","0.0-13.0-3.55","a","COGS219_2020_18","Sounds/correct.wav","null","1","","","","","","",""
"null","","audio-keyboard-response","276","2718403","0.0-13.0-0.56","a","COGS219_2020_18","Sounds/rooster_label.wav","null","1","","","","","","",""
"null","","html-keyboard-response","277","2719407","0.0-13.0-1.56","a","COGS219_2020_18","<p style=""font-size: 48px;"">+</p>","null","1","","","","","","",""
"411.97499999869615","","image-keyboard-response","278","2719820","0.0-13.0-2.56","a","COGS219_2020_18","Images/rooster_cartoon.png","65","1","1581985351507","match","rooster","rooster","label","test","true"
"null","","audio-keyboard-response","279","2721824","0.0-13.0-3.56","a","COGS219_2020_18","Sounds/correct.wav","null","1","","","","","","",""
"null","","audio-keyboard-response","280","2722523","0.0-13.0-0.57","a","COGS219_2020_18","Sounds/whistle_sound.wav","null","1","","","","","","",""
"null","","html-keyboard-response","281","2723523","0.0-13.0-1.57","a","COGS219_2020_18","<p style=""font-size: 48px;"">+</p>","null","1","","","","","","",""
"511.3950000014156","","image-keyboard-response","282","2724036","0.0-13.0-2.57","a","COGS219_2020_18","Images/whistle_orig.png","65","1","1581985355624","match","whistle","whistle","sound","test","true"
"null","","audio-keyboard-response","283","2726051","0.0-13.0-3.57","a","COGS219_2020_18","Sounds/correct.wav","null","1","","","","","","",""
"null","","audio-keyboard-response","284","2726623","0.0-13.0-0.58","a","COGS219_2020_18","Sounds/gun_label.wav","null","1","","","","","","",""
"null","","html-keyboard-response","285","2727623","0.0-13.0-1.58","a","COGS219_2020_18","<p style=""font-size: 48px;"">+</p>","null","1","","","","","","",""
"435.4500000006519","","image-keyboard-response","286","2728060","0.0-13.0-2.58","a","COGS219_2020_18","Images/cat_cartoon.png","76","1","1581985359724","non-match","cat","gun","label","test","true"
"null","","audio-keyboard-response","287","2730078","0.0-13.0-3.58","a","COGS219_2020_18","Sounds/correct.wav","null","1","","","","","","",""
"null","","audio-keyboard-response","288","2730903","0.0-13.0-0.59","a","COGS219_2020_18","Sounds/cat_sound.wav","null","1","","","","","","",""
"null","","html-keyboard-response","289","2731907","0.0-13.0-1.59","a","COGS219_2020_18","<p style=""font-size: 48px;"">+</p>","null","1","","","","","","",""
"368.089999999851","","image-keyboard-response","290","2732276","0.0-13.0-2.59","a","COGS219_2020_18","Images/cat_3.png","65","1","1581985364007","match","cat","cat","sound","test","true"
"null","","audio-keyboard-response","291","2734280","0.0-13.0-3.59","a","COGS219_2020_18","Sounds/correct.wav","null","1","","","","","","",""
"null","","audio-keyboard-response","292","2734984","0.0-13.0-0.60","a","COGS219_2020_18","Sounds/dog_sound.wav","null","1","","","","","","",""
"null","","html-keyboard-response","293","2735974","0.0-13.0-1.60","a","COGS219_2020_18","<p style=""font-size: 48px;"">+</p>","null","1","","","","","","",""
"389.14499999722466","","image-keyboard-response","294","2736364","0.0-13.0-2.60","a","COGS219_2020_18","Images/dog_cartoon.png","65","1","1581985368074","match","dog","dog","sound","test","true"
"null","","audio-keyboard-response","295","2738377","0.0-13.0-3.60","a","COGS219_2020_18","Sounds/correct.wav","null","1","","","","","","",""
"null","","audio-keyboard-response","296","2739664","0.0-13.0-0.61","a","COGS219_2020_18","Sounds/train_label.wav","null","1","","","","","","",""
"null","","html-keyboard-response","297","2740657","0.0-13.0-1.61","a","COGS219_2020_18","<p style=""font-size: 48px;"">+</p>","null","1","","","","","","",""
"417.7200000011362","","image-keyboard-response","298","2741076","0.0-13.0-2.61","a","COGS219_2020_18","Images/train_cartoon.png","65","1","1581985372757","match","train","train","label","test","true"
"null","","audio-keyboard-response","299","2743090","0.0-13.0-3.61","a","COGS219_2020_18","Sounds/correct.wav","null","1","","","","","","",""
"null","","audio-keyboard-response","300","2744163","0.0-13.0-0.62","a","COGS219_2020_18","Sounds/car_sound.wav","null","1","","","","","","",""
"null","","html-keyboard-response","301","2745157","0.0-13.0-1.62","a","COGS219_2020_18","<p style=""font-size: 48px;"">+</p>","null","1","","","","","","",""
"604.9999999995343","","image-keyboard-response","302","2745764","0.0-13.0-2.62","a","COGS219_2020_18","Images/car_2.png","65","1","1581985377257","match","car","car","sound","test","true"
"null","","audio-keyboard-response","303","2747777","0.0-13.0-3.62","a","COGS219_2020_18","Sounds/correct.wav","null","1","","","","","","",""
"null","","audio-keyboard-response","304","2749023","0.0-13.0-0.63","a","COGS219_2020_18","Sounds/train_label.wav","null","1","","","","","","",""
"null","","html-keyboard-response","305","2750024","0.0-13.0-1.63","a","COGS219_2020_18","<p style=""font-size: 48px;"">+</p>","null","1","","","","","","",""
"490.910000000149","","image-keyboard-response","306","2750516","0.0-13.0-2.63","a","COGS219_2020_18","Images/train_3.png","65","1","1581985382124","match","train","train","label","test","true"
"null","","audio-keyboard-response","307","2752518","0.0-13.0-3.63","a","COGS219_2020_18","Sounds/correct.wav","null","1","","","","","","",""
"null","","audio-keyboard-response","308","2753223","0.0-13.0-0.64","a","COGS219_2020_18","Sounds/whistle_label.wav","null","1","","","","","","",""
"null","","html-keyboard-response","309","2754224","0.0-13.0-1.64","a","COGS219_2020_18","<p style=""font-size: 48px;"">+</p>","null","1","","","","","","",""
"394.8950000014156","","image-keyboard-response","310","2754620","0.0-13.0-2.64","a","COGS219_2020_18","Images/frog_cartoon.png","76","1","1581985386324","non-match","frog","whistle","label","test","true"
"null","","audio-keyboard-response","311","2756625","0.0-13.0-3.64","a","COGS219_2020_18","Sounds/correct.wav","null","1","","","","","","",""
"null","","audio-keyboard-response","312","2757283","0.0-13.0-0.65","a","COGS219_2020_18","Sounds/dog_label.wav","null","1","","","","","","",""
"null","","html-keyboard-response","313","2758274","0.0-13.0-1.65","a","COGS219_2020_18","<p style=""font-size: 48px;"">+</p>","null","1","","","","","","",""
"408.9000000022352","","image-keyboard-response","314","2758684","0.0-13.0-2.65","a","COGS219_2020_18","Images/gun_3.png","76","1","1581985390374","non-match","gun","dog","label","test","true"
"null","","audio-keyboard-response","315","2760694","0.0-13.0-3.65","a","COGS219_2020_18","Sounds/correct.wav","null","1","","","","","","",""
"null","","audio-keyboard-response","316","2761383","0.0-13.0-0.66","a","COGS219_2020_18","Sounds/rooster_label.wav","null","1","","","","","","",""
"null","","html-keyboard-response","317","2762374","0.0-13.0-1.66","a","COGS219_2020_18","<p style=""font-size: 48px;"">+</p>","null","1","","","","","","",""
"396.89999999990687","","image-keyboard-response","318","2762772","0.0-13.0-2.66","a","COGS219_2020_18","Images/rooster_2.png","65","1","1581985394474","match","rooster","rooster","label","test","true"
"null","","audio-keyboard-response","319","2764777","0.0-13.0-3.66","a","COGS219_2020_18","Sounds/correct.wav","null","1","","","","","","",""
"null","","audio-keyboard-response","320","2765443","0.0-13.0-0.67","a","COGS219_2020_18","Sounds/rooster_label.wav","null","1","","","","","","",""
"null","","html-keyboard-response","321","2766440","0.0-13.0-1.67","a","COGS219_2020_18","<p style=""font-size: 48px;"">+</p>","null","1","","","","","","",""
"386.2000000011176","","image-keyboard-response","322","2766828","0.0-13.0-2.67","a","COGS219_2020_18","Images/car_cartoon.png","76","1","1581985398541","non-match","car","rooster","label","test","true"
"null","","audio-keyboard-response","323","2768843","0.0-13.0-3.67","a","COGS219_2020_18","Sounds/correct.wav","null","1","","","","","","",""
"null","","audio-keyboard-response","324","2769743","0.0-13.0-0.68","a","COGS219_2020_18","Sounds/frog_label.wav","null","1","","","","","","",""
"null","","html-keyboard-response","325","2770741","0.0-13.0-1.68","a","COGS219_2020_18","<p style=""font-size: 48px;"">+</p>","null","1","","","","","","",""
"406.21500000264496","","image-keyboard-response","326","2771148","0.0-13.0-2.68","a","COGS219_2020_18","Images/motorcycle_2.png","76","1","1581985402841","non-match","motorcycle","frog","label","test","true"
"null","","audio-keyboard-response","327","2773158","0.0-13.0-3.68","a","COGS219_2020_18","Sounds/correct.wav","null","1","","","","","","",""
"null","","audio-keyboard-response","328","2773823","0.0-13.0-0.69","a","COGS219_2020_18","Sounds/rooster_label.wav","null","1","","","","","","",""
"null","","html-keyboard-response","329","2774824","0.0-13.0-1.69","a","COGS219_2020_18","<p style=""font-size: 48px;"">+</p>","null","1","","","","","","",""
"409.4750000005588","","image-keyboard-response","330","2775235","0.0-13.0-2.69","a","COGS219_2020_18","Images/gun_1.png","76","1","1581985406924","non-match","gun","rooster","label","test","true"
"null","","audio-keyboard-response","331","2777241","0.0-13.0-3.69","a","COGS219_2020_18","Sounds/correct.wav","null","1","","","","","","",""
"null","","audio-keyboard-response","332","2777943","0.0-13.0-0.70","a","COGS219_2020_18","Sounds/rooster_sound.wav","null","1","","","","","","",""
"null","","html-keyboard-response","333","2778940","0.0-13.0-1.70","a","COGS219_2020_18","<p style=""font-size: 48px;"">+</p>","null","1","","","","","","",""
"381.7700000000186","","image-keyboard-response","334","2779323","0.0-13.0-2.70","a","COGS219_2020_18","Images/rooster_3.png","65","1","1581985411040","match","rooster","rooster","sound","test","true"
"null","","audio-keyboard-response","335","2781328","0.0-13.0-3.70","a","COGS219_2020_18","Sounds/correct.wav","null","1","","","","","","",""
"null","","audio-keyboard-response","336","2782463","0.0-13.0-0.71","a","COGS219_2020_18","Sounds/motorcycle_label.wav","null","1","","","","","","",""
"null","","html-keyboard-response","337","2783457","0.0-13.0-1.71","a","COGS219_2020_18","<p style=""font-size: 48px;"">+</p>","null","1","","","","","","",""
"465.4499999997206","","image-keyboard-response","338","2783924","0.0-13.0-2.71","a","COGS219_2020_18","Images/whistle_cartoon.png","76","1","1581985415557","non-match","whistle","motorcycle","label","test","true"
"null","","audio-keyboard-response","339","2785936","0.0-13.0-3.71","a","COGS219_2020_18","Sounds/correct.wav","null","1","","","","","","",""
"null","","audio-keyboard-response","340","2786963","0.0-13.0-0.72","a","COGS219_2020_18","Sounds/cow_label.wav","null","1","","","","","","",""
"null","","html-keyboard-response","341","2787957","0.0-13.0-1.72","a","COGS219_2020_18","<p style=""font-size: 48px;"">+</p>","null","1","","","","","","",""
"477.2750000008382","","image-keyboard-response","342","2788436","0.0-13.0-2.72","a","COGS219_2020_18","Images/frog_1.png","76","1","1581985420057","non-match","frog","cow","label","test","true"
"null","","audio-keyboard-response","343","2790452","0.0-13.0-3.72","a","COGS219_2020_18","Sounds/correct.wav","null","1","","","","","","",""
"null","","audio-keyboard-response","344","2791563","0.0-13.0-0.73","a","COGS219_2020_18","Sounds/motorcycle_label.wav","null","1","","","","","","",""
"null","","html-keyboard-response","345","2792557","0.0-13.0-1.73","a","COGS219_2020_18","<p style=""font-size: 48px;"">+</p>","null","1","","","","","","",""
"389.21000000135973","","image-keyboard-response","346","2792947","0.0-13.0-2.73","a","COGS219_2020_18","Images/gun_2.png","76","1","1581985424657","non-match","gun","motorcycle","label","test","true"
"null","","audio-keyboard-response","347","2794961","0.0-13.0-3.73","a","COGS219_2020_18","Sounds/correct.wav","null","1","","","","","","",""
"null","","audio-keyboard-response","348","2795803","0.0-13.0-0.74","a","COGS219_2020_18","Sounds/cat_label.wav","null","1","","","","","","",""
"null","","html-keyboard-response","349","2796808","0.0-13.0-1.74","a","COGS219_2020_18","<p style=""font-size: 48px;"">+</p>","null","1","","","","","","",""
"418.65999999968335","","image-keyboard-response","350","2797228","0.0-13.0-2.74","a","COGS219_2020_18","Images/car_1.png","76","1","1581985428907","non-match","car","cat","label","test","true"
"null","","audio-keyboard-response","351","2799245","0.0-13.0-3.74","a","COGS219_2020_18","Sounds/correct.wav","null","1","","","","","","",""
"null","","audio-keyboard-response","352","2799943","0.0-13.0-0.75","a","COGS219_2020_18","Sounds/dog_sound.wav","null","1","","","","","","",""
"null","","html-keyboard-response","353","2800941","0.0-13.0-1.75","a","COGS219_2020_18","<p style=""font-size: 48px;"">+</p>","null","1","","","","","","",""
"557.7599999997765","","image-keyboard-response","354","2801499","0.0-13.0-2.75","a","COGS219_2020_18","Images/cow_3.png","76","1","1581985433041","non-match","cow","dog","sound","test","true"
"null","","audio-keyboard-response","355","2803513","0.0-13.0-3.75","a","COGS219_2020_18","Sounds/correct.wav","null","1","","","","","","",""
"null","","audio-keyboard-response","356","2804083","0.0-13.0-0.76","a","COGS219_2020_18","Sounds/gun_sound.wav","null","1","","","","","","",""
"null","","html-keyboard-response","357","2805074","0.0-13.0-1.76","a","COGS219_2020_18","<p style=""font-size: 48px;"">+</p>","null","1","","","","","","",""
"368.18000000109896","","image-keyboard-response","358","2805443","0.0-13.0-2.76","a","COGS219_2020_18","Images/gun_orig.png","65","1","1581985437174","match","gun","gun","sound","test","true"
"null","","audio-keyboard-response","359","2807446","0.0-13.0-3.76","a","COGS219_2020_18","Sounds/correct.wav","null","1","","","","","","",""
"null","","audio-keyboard-response","360","2808463","0.0-13.0-0.77","a","COGS219_2020_18","Sounds/cow_label.wav","null","1","","","","","","",""
"null","","html-keyboard-response","361","2809457","0.0-13.0-1.77","a","COGS219_2020_18","<p style=""font-size: 48px;"">+</p>","null","1","","","","","","",""
"441.2049999991432","","image-keyboard-response","362","2809900","0.0-13.0-2.77","a","COGS219_2020_18","Images/motorcycle_3.png","76","1","1581985441558","non-match","motorcycle","cow","label","test","true"
"null","","audio-keyboard-response","363","2811907","0.0-13.0-3.77","a","COGS219_2020_18","Sounds/correct.wav","null","1","","","","","","",""
"null","","audio-keyboard-response","364","2812983","0.0-13.0-0.78","a","COGS219_2020_18","Sounds/car_sound.wav","null","1","","","","","","",""
"null","","html-keyboard-response","365","2813974","0.0-13.0-1.78","a","COGS219_2020_18","<p style=""font-size: 48px;"">+</p>","null","1","","","","","","",""
"436.3200000007637","","image-keyboard-response","366","2814412","0.0-13.0-2.78","a","COGS219_2020_18","Images/car_orig.png","65","1","1581985446074","match","car","car","sound","test","true"
"null","","audio-keyboard-response","367","2816415","0.0-13.0-3.78","a","COGS219_2020_18","Sounds/correct.wav","null","1","","","","","","",""
"null","","audio-keyboard-response","368","2817063","0.0-13.0-0.79","a","COGS219_2020_18","Sounds/dog_label.wav","null","1","","","","","","",""
"null","","html-keyboard-response","369","2818057","0.0-13.0-1.79","a","COGS219_2020_18","<p style=""font-size: 48px;"">+</p>","null","1","","","","","","",""
"464.94000000180677","","image-keyboard-response","370","2818523","0.0-13.0-2.79","a","COGS219_2020_18","Images/dog_2.png","65","1","1581985450158","match","dog","dog","label","test","true"
"null","","audio-keyboard-response","371","2820538","0.0-13.0-3.79","a","COGS219_2020_18","Sounds/correct.wav","null","1","","","","","","",""
"null","","audio-keyboard-response","372","2821243","0.0-13.0-0.80","a","COGS219_2020_18","Sounds/rooster_sound.wav","null","1","","","","","","",""
"null","","html-keyboard-response","373","2822241","0.0-13.0-1.80","a","COGS219_2020_18","<p style=""font-size: 48px;"">+</p>","null","1","","","","","","",""
"553.6900000004098","","image-keyboard-response","374","2822796","0.0-13.0-2.80","a","COGS219_2020_18","Images/rooster_1.png","65","1","1581985454341","match","rooster","rooster","sound","test","true"
"null","","audio-keyboard-response","375","2824799","0.0-13.0-3.80","a","COGS219_2020_18","Sounds/correct.wav","null","1","","","","","","",""
"null","","audio-keyboard-response","376","2825503","0.0-13.0-0.81","a","COGS219_2020_18","Sounds/whistle_label.wav","null","1","","","","","","",""
"null","","html-keyboard-response","377","2826508","0.0-13.0-1.81","a","COGS219_2020_18","<p style=""font-size: 48px;"">+</p>","null","1","","","","","","",""
"390.4949999996461","","image-keyboard-response","378","2826899","0.0-13.0-2.81","a","COGS219_2020_18","Images/whistle_3.png","65","1","1581985458608","match","whistle","whistle","label","test","true"
"null","","audio-keyboard-response","379","2828911","0.0-13.0-3.81","a","COGS219_2020_18","Sounds/correct.wav","null","1","","","","","","",""
"null","","audio-keyboard-response","380","2829483","0.0-13.0-0.82","a","COGS219_2020_18","Sounds/gun_label.wav","null","1","","","","","","",""
"null","","html-keyboard-response","381","2830474","0.0-13.0-1.82","a","COGS219_2020_18","<p style=""font-size: 48px;"">+</p>","null","1","","","","","","",""
"336.1899999980815","","image-keyboard-response","382","2830812","0.0-13.0-2.82","a","COGS219_2020_18","Images/gun_cartoon.png","76","1","1581985462574","match","gun","gun","label","test","false"
"null","","audio-keyboard-response","383","2832815","0.0-13.0-3.82","a","COGS219_2020_18","Sounds/incorrect.wav","null","1","","","","","","",""
"null","","audio-keyboard-response","384","2833703","0.0-13.0-0.83","a","COGS219_2020_18","Sounds/frog_label.wav","null","1","","","","","","",""
"null","","html-keyboard-response","385","2834709","0.0-13.0-1.83","a","COGS219_2020_18","<p style=""font-size: 48px;"">+</p>","null","1","","","","","","",""
"598.7449999996461","","image-keyboard-response","386","2835309","0.0-13.0-2.83","a","COGS219_2020_18","Images/gun_cartoon.png","76","1","1581985466809","non-match","gun","frog","label","test","true"
"null","","audio-keyboard-response","387","2837328","0.0-13.0-3.83","a","COGS219_2020_18","Sounds/correct.wav","null","1","","","","","","",""
"null","","audio-keyboard-response","388","2838445","0.0-13.0-0.84","a","COGS219_2020_18","Sounds/motorcycle_sound.wav","null","1","","","","","","",""
"null","","html-keyboard-response","389","2839442","0.0-13.0-1.84","a","COGS219_2020_18","<p style=""font-size: 48px;"">+</p>","null","1","","","","","","",""
"520.6700000017881","","image-keyboard-response","390","2839965","0.0-13.0-2.84","a","COGS219_2020_18","Images/cat_orig.png","76","1","1581985471543","non-match","cat","motorcycle","sound","test","true"
"null","","audio-keyboard-response","391","2841969","0.0-13.0-3.84","a","COGS219_2020_18","Sounds/correct.wav","null","1","","","","","","",""
"null","","audio-keyboard-response","392","2843045","0.0-13.0-0.85","a","COGS219_2020_18","Sounds/car_sound.wav","null","1","","","","","","",""
"null","","html-keyboard-response","393","2844042","0.0-13.0-1.85","a","COGS219_2020_18","<p style=""font-size: 48px;"">+</p>","null","1","","","","","","",""
"685.535000000149","","image-keyboard-response","394","2844733","0.0-13.0-2.85","a","COGS219_2020_18","Images/train_cartoon.png","76","1","1581985476143","non-match","train","car","sound","test","true"
"null","","audio-keyboard-response","395","2846746","0.0-13.0-3.85","a","COGS219_2020_18","Sounds/correct.wav","null","1","","","","","","",""
"null","","audio-keyboard-response","396","2848025","0.0-13.0-0.86","a","COGS219_2020_18","Sounds/train_label.wav","null","1","","","","","","",""
"null","","html-keyboard-response","397","2849042","0.0-13.0-1.86","a","COGS219_2020_18","<p style=""font-size: 48px;"">+</p>","null","1","","","","","","",""
"457.4650000031106","","image-keyboard-response","398","2849501","0.0-13.0-2.86","a","COGS219_2020_18","Images/rooster_cartoon.png","76","1","1581985481143","non-match","rooster","train","label","test","true"
"null","","audio-keyboard-response","399","2851513","0.0-13.0-3.86","a","COGS219_2020_18","Sounds/correct.wav","null","1","","","","","","",""
"null","","audio-keyboard-response","400","2852405","0.0-13.0-0.87","a","COGS219_2020_18","Sounds/frog_label.wav","null","1","","","","","","",""
"null","","html-keyboard-response","401","2853409","0.0-13.0-1.87","a","COGS219_2020_18","<p style=""font-size: 48px;"">+</p>","null","1","","","","","","",""
"826.4400000008754","","image-keyboard-response","402","2854237","0.0-13.0-2.87","a","COGS219_2020_18","Images/cat_3.png","76","1","1581985485509","non-match","cat","frog","label","test","true"
"null","","audio-keyboard-response","403","2856245","0.0-13.0-3.87","a","COGS219_2020_18","Sounds/correct.wav","null","1","","","","","","",""
"null","","audio-keyboard-response","404","2857145","0.0-13.0-0.88","a","COGS219_2020_18","Sounds/frog_sound.wav","null","1","","","","","","",""
"null","","html-keyboard-response","405","2858143","0.0-13.0-1.88","a","COGS219_2020_18","<p style=""font-size: 48px;"">+</p>","null","1","","","","","","",""
"477.2450000019744","","image-keyboard-response","406","2858621","0.0-13.0-2.88","a","COGS219_2020_18","Images/frog_1.png","65","1","1581985490243","match","frog","frog","sound","test","true"
"null","","audio-keyboard-response","407","2860638","0.0-13.0-3.88","a","COGS219_2020_18","Sounds/correct.wav","null","1","","","","","","",""
"null","","audio-keyboard-response","408","2861665","0.0-13.0-0.89","a","COGS219_2020_18","Sounds/cow_sound.wav","null","1","","","","","","",""
"null","","html-keyboard-response","409","2862659","0.0-13.0-1.89","a","COGS219_2020_18","<p style=""font-size: 48px;"">+</p>","null","1","","","","","","",""
"376.8149999999441","","image-keyboard-response","410","2863037","0.0-13.0-2.89","a","COGS219_2020_18","Images/cow_3.png","65","1","1581985494759","match","cow","cow","sound","test","true"
"null","","audio-keyboard-response","411","2865047","0.0-13.0-3.89","a","COGS219_2020_18","Sounds/correct.wav","null","1","","","","","","",""
"null","","audio-keyboard-response","412","2866125","0.0-13.0-0.90","a","COGS219_2020_18","Sounds/car_label.wav","null","1","","","","","","",""
"null","","html-keyboard-response","413","2867143","0.0-13.0-1.90","a","COGS219_2020_18","<p style=""font-size: 48px;"">+</p>","null","1","","","","","","",""
"485.00500000221655","","image-keyboard-response","414","2867629","0.0-13.0-2.90","a","COGS219_2020_18","Images/cat_2.png","76","1","1581985499243","non-match","cat","car","label","test","true"
"null","","audio-keyboard-response","415","2869636","0.0-13.0-3.90","a","COGS219_2020_18","Sounds/correct.wav","null","1","","","","","","",""
"null","","audio-keyboard-response","416","2870205","0.0-13.0-0.91","a","COGS219_2020_18","Sounds/gun_label.wav","null","1","","","","","","",""
"null","","html-keyboard-response","417","2871193","0.0-13.0-1.91","a","COGS219_2020_18","<p style=""font-size: 48px;"">+</p>","null","1","","","","","","",""
"443.0800000010058","","image-keyboard-response","418","2871637","0.0-13.0-2.91","a","COGS219_2020_18","Images/train_2.png","76","1","1581985503293","non-match","train","gun","label","test","true"
"null","","audio-keyboard-response","419","2873643","0.0-13.0-3.91","a","COGS219_2020_18","Sounds/correct.wav","null","1","","","","","","",""
"null","","audio-keyboard-response","420","2874344","0.0-13.0-0.92","a","COGS219_2020_18","Sounds/rooster_label.wav","null","1","","","","","","",""
"null","","html-keyboard-response","421","2875343","0.0-13.0-1.92","a","COGS219_2020_18","<p style=""font-size: 48px;"">+</p>","null","1","","","","","","",""
"389.2400000002235","","image-keyboard-response","422","2875733","0.0-13.0-2.92","a","COGS219_2020_18","Images/whistle_orig.png","76","1","1581985507443","non-match","whistle","rooster","label","test","true"
"null","","audio-keyboard-response","423","2877745","0.0-13.0-3.92","a","COGS219_2020_18","Sounds/correct.wav","null","1","","","","","","",""
"null","","audio-keyboard-response","424","2878745","0.0-13.0-0.93","a","COGS219_2020_18","Sounds/cow_sound.wav","null","1","","","","","","",""
"null","","html-keyboard-response","425","2879743","0.0-13.0-1.93","a","COGS219_2020_18","<p style=""font-size: 48px;"">+</p>","null","1","","","","","","",""
"372.91500000003725","","image-keyboard-response","426","2880117","0.0-13.0-2.93","a","COGS219_2020_18","Images/cow_1.png","65","1","1581985511843","match","cow","cow","sound","test","true"
"null","","audio-keyboard-response","427","2882129","0.0-13.0-3.93","a","COGS219_2020_18","Sounds/correct.wav","null","1","","","","","","",""
"null","","audio-keyboard-response","428","2882965","0.0-13.0-0.94","a","COGS219_2020_18","Sounds/cat_label.wav","null","1","","","","","","",""
"null","","html-keyboard-response","429","2883960","0.0-13.0-1.94","a","COGS219_2020_18","<p style=""font-size: 48px;"">+</p>","null","1","","","","","","",""
"444.15499999700114","","image-keyboard-response","430","2884405","0.0-13.0-2.94","a","COGS219_2020_18","Images/cat_cartoon.png","65","1","1581985516060","match","cat","cat","label","test","true"
"null","","audio-keyboard-response","431","2886413","0.0-13.0-3.94","a","COGS219_2020_18","Sounds/correct.wav","null","1","","","","","","",""
"null","","audio-keyboard-response","432","2887105","0.0-13.0-0.95","a","COGS219_2020_18","Sounds/whistle_sound.wav","null","1","","","","","","",""
"null","","html-keyboard-response","433","2888093","0.0-13.0-1.95","a","COGS219_2020_18","<p style=""font-size: 48px;"">+</p>","null","1","","","","","","",""
"389.8300000000745","","image-keyboard-response","434","2888485","0.0-13.0-2.95","a","COGS219_2020_18","Images/whistle_2.png","65","1","1581985520193","match","whistle","whistle","sound","test","true"
"null","","audio-keyboard-response","435","2890496","0.0-13.0-3.95","a","COGS219_2020_18","Sounds/correct.wav","null","1","","","","","","",""
"null","","audio-keyboard-response","436","2891405","0.0-13.0-0.96","a","COGS219_2020_18","Sounds/frog_sound.wav","null","1","","","","","","",""
"null","","html-keyboard-response","437","2892393","0.0-13.0-1.96","a","COGS219_2020_18","<p style=""font-size: 48px;"">+</p>","null","1","","","","","","",""
"330.9049999988638","","image-keyboard-response","438","2892725","0.0-13.0-2.96","a","COGS219_2020_18","Images/frog_cartoon.png","65","1","1581985524493","match","frog","frog","sound","test","true"
"null","","audio-keyboard-response","439","2894739","0.0-13.0-3.96","a","COGS219_2020_18","Sounds/correct.wav","null","1","","","","","","",""
"null","","audio-keyboard-response","440","2895329","0.0-13.0-0.97","a","COGS219_2020_18","Sounds/gun_sound.wav","null","1","","","","","","",""
"null","","html-keyboard-response","441","2896348","0.0-13.0-1.97","a","COGS219_2020_18","<p style=""font-size: 48px;"">+</p>","null","1","","","","","","",""
"412.6499999980442","","image-keyboard-response","442","2896762","0.0-13.0-2.97","a","COGS219_2020_18","Images/motorcycle_1.png","76","1","1581985528448","non-match","motorcycle","gun","sound","test","true"
"null","","audio-keyboard-response","443","2898765","0.0-13.0-3.97","a","COGS219_2020_18","Sounds/correct.wav","null","1","","","","","","",""
"null","","audio-keyboard-response","444","2900069","0.0-13.0-0.98","a","COGS219_2020_18","Sounds/train_sound.wav","null","1","","","","","","",""
"null","","html-keyboard-response","445","2901065","0.0-13.0-1.98","a","COGS219_2020_18","<p style=""font-size: 48px;"">+</p>","null","1","","","","","","",""
"472.19500000216067","","image-keyboard-response","446","2901538","0.0-13.0-2.98","a","COGS219_2020_18","Images/whistle_1.png","76","1","1581985533165","non-match","whistle","train","sound","test","true"
"null","","audio-keyboard-response","447","2903544","0.0-13.0-3.98","a","COGS219_2020_18","Sounds/correct.wav","null","1","","","","","","",""
"null","","audio-keyboard-response","448","2904569","0.0-13.0-0.99","a","COGS219_2020_18","Sounds/cow_label.wav","null","1","","","","","","",""
"null","","html-keyboard-response","449","2905565","0.0-13.0-1.99","a","COGS219_2020_18","<p style=""font-size: 48px;"">+</p>","null","1","","","","","","",""
"420.00499999988824","","image-keyboard-response","450","2905986","0.0-13.0-2.99","a","COGS219_2020_18","Images/cow_2.png","65","1","1581985537665","match","cow","cow","label","test","true"
"null","","audio-keyboard-response","451","2907997","0.0-13.0-3.99","a","COGS219_2020_18","Sounds/correct.wav","null","1","","","","","","",""
"8931.96000000136","","html-keyboard-response","452","2916930","0.0-14.0","a","COGS219_2020_18","<p>Please take this opportunity to rest your eyes before proceeding.</p><p>When ready, press the enter key to continue to the next set of trials.</p>","13","","","","","","","",""
"null","","audio-keyboard-response","453","2919978","0.0-15.0-0.0","a","COGS219_2020_18","Sounds/car_sound.wav","null","2","","","","","","",""
"null","","html-keyboard-response","454","2920981","0.0-15.0-1.0","a","COGS219_2020_18","<p style=""font-size: 48px;"">+</p>","null","2","","","","","","",""
"435.03499999828637","","image-keyboard-response","455","2921418","0.0-15.0-2.0","a","COGS219_2020_18","Images/cat_orig.png","76","2","1581985553082","non-match","cat","car","sound","test","true"
"null","","audio-keyboard-response","456","2923430","0.0-15.0-3.0","a","COGS219_2020_18","Sounds/correct.wav","null","2","","","","","","",""
"null","","audio-keyboard-response","457","2924477","0.0-15.0-0.1","a","COGS219_2020_18","Sounds/car_sound.wav","null","2","","","","","","",""
"null","","html-keyboard-response","458","2925482","0.0-15.0-1.1","a","COGS219_2020_18","<p style=""font-size: 48px;"">+</p>","null","2","","","","","","",""
"407.1149999983609","","image-keyboard-response","459","2925890","0.0-15.0-2.1","a","COGS219_2020_18","Images/gun_cartoon.png","76","2","1581985557582","non-match","gun","car","sound","test","true"
"null","","audio-keyboard-response","460","2927899","0.0-15.0-3.1","a","COGS219_2020_18","Sounds/correct.wav","null","2","","","","","","",""
"null","","audio-keyboard-response","461","2929017","0.0-15.0-0.2","a","COGS219_2020_18","Sounds/motorcycle_sound.wav","null","2","","","","","","",""
"null","","html-keyboard-response","462","2930015","0.0-15.0-1.2","a","COGS219_2020_18","<p style=""font-size: 48px;"">+</p>","null","2","","","","","","",""
"394.320000003092","","image-keyboard-response","463","2930410","0.0-15.0-2.2","a","COGS219_2020_18","Images/motorcycle_cartoon.png","65","2","1581985562115","match","motorcycle","motorcycle","sound","test","true"
"null","","audio-keyboard-response","464","2932416","0.0-15.0-3.2","a","COGS219_2020_18","Sounds/correct.wav","null","2","","","","","","",""
"null","","audio-keyboard-response","465","2933438","0.0-15.0-0.3","a","COGS219_2020_18","Sounds/cow_sound.wav","null","2","","","","","","",""
"null","","html-keyboard-response","466","2934432","0.0-15.0-1.3","a","COGS219_2020_18","<p style=""font-size: 48px;"">+</p>","null","2","","","","","","",""
"385.1399999987334","","image-keyboard-response","467","2934818","0.0-15.0-2.3","a","COGS219_2020_18","Images/rooster_orig.png","76","2","1581985566532","non-match","rooster","cow","sound","test","true"
"null","","audio-keyboard-response","468","2936834","0.0-15.0-3.3","a","COGS219_2020_18","Sounds/correct.wav","null","2","","","","","","",""
"null","","audio-keyboard-response","469","2937497","0.0-15.0-0.4","a","COGS219_2020_18","Sounds/dog_label.wav","null","2","","","","","","",""
"null","","html-keyboard-response","470","2938515","0.0-15.0-1.4","a","COGS219_2020_18","<p style=""font-size: 48px;"">+</p>","null","2","","","","","","",""
"501.74999999953434","","image-keyboard-response","471","2939018","0.0-15.0-2.4","a","COGS219_2020_18","Images/dog_1.png","65","2","1581985570615","match","dog","dog","label","test","true"
"null","","audio-keyboard-response","472","2941026","0.0-15.0-3.4","a","COGS219_2020_18","Sounds/correct.wav","null","2","","","","","","",""
"null","","audio-keyboard-response","473","2941598","0.0-15.0-0.5","a","COGS219_2020_18","Sounds/gun_label.wav","null","2","","","","","","",""
"null","","html-keyboard-response","474","2942615","0.0-15.0-1.5","a","COGS219_2020_18","<p style=""font-size: 48px;"">+</p>","null","2","","","","","","",""
"417.9949999996461","","image-keyboard-response","475","2943034","0.0-15.0-2.5","a","COGS219_2020_18","Images/gun_2.png","76","2","1581985574715","match","gun","gun","label","test","false"
"null","","audio-keyboard-response","476","2945047","0.0-15.0-3.5","a","COGS219_2020_18","Sounds/incorrect.wav","null","2","","","","","","",""
"null","","audio-keyboard-response","477","2945598","0.0-15.0-0.6","a","COGS219_2020_18","Sounds/gun_label.wav","null","2","","","","","","",""
"null","","html-keyboard-response","478","2946615","0.0-15.0-1.6","a","COGS219_2020_18","<p style=""font-size: 48px;"">+</p>","null","2","","","","","","",""
"512.2950000003912","","image-keyboard-response","479","2947130","0.0-15.0-2.6","a","COGS219_2020_18","Images/gun_3.png","65","2","1581985578715","match","gun","gun","label","test","true"
"null","","audio-keyboard-response","480","2949141","0.0-15.0-3.6","a","COGS219_2020_18","Sounds/correct.wav","null","2","","","","","","",""
"null","","audio-keyboard-response","481","2949837","0.0-15.0-0.7","a","COGS219_2020_18","Sounds/whistle_sound.wav","null","2","","","","","","",""
"null","","html-keyboard-response","482","2950832","0.0-15.0-1.7","a","COGS219_2020_18","<p style=""font-size: 48px;"">+</p>","null","2","","","","","","",""
"696.9549999991432","","image-keyboard-response","483","2951530","0.0-15.0-2.7","a","COGS219_2020_18","Images/gun_1.png","76","2","1581985582932","non-match","gun","whistle","sound","test","true"
"null","","audio-keyboard-response","484","2953544","0.0-15.0-3.7","a","COGS219_2020_18","Sounds/correct.wav","null","2","","","","","","",""
"null","","audio-keyboard-response","485","2954558","0.0-15.0-0.8","a","COGS219_2020_18","Sounds/cow_sound.wav","null","2","","","","","","",""
"null","","html-keyboard-response","486","2955554","0.0-15.0-1.8","a","COGS219_2020_18","<p style=""font-size: 48px;"">+</p>","null","2","","","","","","",""
"708.2999999984168","","image-keyboard-response","487","2956263","0.0-15.0-2.8","a","COGS219_2020_18","Images/dog_1.png","76","2","1581985587654","non-match","dog","cow","sound","test","true"
"null","","audio-keyboard-response","488","2958267","0.0-15.0-3.8","a","COGS219_2020_18","Sounds/correct.wav","null","2","","","","","","",""
"null","","audio-keyboard-response","489","2959403","0.0-15.0-0.9","a","COGS219_2020_18","Sounds/motorcycle_label.wav","null","2","","","","","","",""
"null","","html-keyboard-response","490","2960420","0.0-15.0-1.9","a","COGS219_2020_18","<p style=""font-size: 48px;"">+</p>","null","2","","","","","","",""
"417.4600000004284","","image-keyboard-response","491","2960839","0.0-15.0-2.9","a","COGS219_2020_18","Images/motorcycle_3.png","65","2","1581985592520","match","motorcycle","motorcycle","label","test","true"
"null","","audio-keyboard-response","492","2962852","0.0-15.0-3.9","a","COGS219_2020_18","Sounds/correct.wav","null","2","","","","","","",""
"null","","audio-keyboard-response","493","2964143","0.0-15.0-0.10","a","COGS219_2020_18","Sounds/train_sound.wav","null","2","","","","","","",""
"null","","html-keyboard-response","494","2965137","0.0-15.0-1.10","a","COGS219_2020_18","<p style=""font-size: 48px;"">+</p>","null","2","","","","","","",""
"395.46999999927357","","image-keyboard-response","495","2965535","0.0-15.0-2.10","a","COGS219_2020_18","Images/train_orig.png","65","2","1581985597237","match","train","train","sound","test","true"
"null","","audio-keyboard-response","496","2967541","0.0-15.0-3.10","a","COGS219_2020_18","Sounds/correct.wav","null","2","","","","","","",""
"null","","audio-keyboard-response","497","2968223","0.0-15.0-0.11","a","COGS219_2020_18","Sounds/whistle_sound.wav","null","2","","","","","","",""
"null","","html-keyboard-response","498","2969221","0.0-15.0-1.11","a","COGS219_2020_18","<p style=""font-size: 48px;"">+</p>","null","2","","","","","","",""
"553.5850000013597","","image-keyboard-response","499","2969775","0.0-15.0-2.11","a","COGS219_2020_18","Images/cow_orig.png","76","2","1581985601321","non-match","cow","whistle","sound","test","true"
"null","","audio-keyboard-response","500","2971779","0.0-15.0-3.11","a","COGS219_2020_18","Sounds/correct.wav","null","2","","","","","","",""
"null","","audio-keyboard-response","501","2972363","0.0-15.0-0.12","a","COGS219_2020_18","Sounds/gun_label.wav","null","2","","","","","","",""
"null","","html-keyboard-response","502","2973354","0.0-15.0-1.12","a","COGS219_2020_18","<p style=""font-size: 48px;"">+</p>","null","2","","","","","","",""
"396.0750000006519","","image-keyboard-response","503","2973751","0.0-15.0-2.12","a","COGS219_2020_18","Images/gun_orig.png","65","2","1581985605454","match","gun","gun","label","test","true"
"null","","audio-keyboard-response","504","2975757","0.0-15.0-3.12","a","COGS219_2020_18","Sounds/correct.wav","null","2","","","","","","",""
"null","","audio-keyboard-response","505","2976463","0.0-15.0-0.13","a","COGS219_2020_18","Sounds/whistle_label.wav","null","2","","","","","","",""
"null","","html-keyboard-response","506","2977454","0.0-15.0-1.13","a","COGS219_2020_18","<p style=""font-size: 48px;"">+</p>","null","2","","","","","","",""
"391.8849999969825","","image-keyboard-response","507","2977847","0.0-15.0-2.13","a","COGS219_2020_18","Images/whistle_orig.png","65","2","1581985609554","match","whistle","whistle","label","test","true"
"null","","audio-keyboard-response","508","2979857","0.0-15.0-3.13","a","COGS219_2020_18","Sounds/correct.wav","null","2","","","","","","",""
"null","","audio-keyboard-response","509","2980563","0.0-15.0-0.14","a","COGS219_2020_18","Sounds/dog_sound.wav","null","2","","","","","","",""
"null","","html-keyboard-response","510","2981554","0.0-15.0-1.14","a","COGS219_2020_18","<p style=""font-size: 48px;"">+</p>","null","2","","","","","","",""
"452.0200000004843","","image-keyboard-response","511","2982007","0.0-15.0-2.14","a","COGS219_2020_18","Images/motorcycle_3.png","76","2","1581985613654","non-match","motorcycle","dog","sound","test","true"
"null","","audio-keyboard-response","512","2984021","0.0-15.0-3.14","a","COGS219_2020_18","Sounds/correct.wav","null","2","","","","","","",""
"null","","audio-keyboard-response","513","2984863","0.0-15.0-0.15","a","COGS219_2020_18","Sounds/cat_label.wav","null","2","","","","","","",""
"null","","html-keyboard-response","514","2985854","0.0-15.0-1.15","a","COGS219_2020_18","<p style=""font-size: 48px;"">+</p>","null","2","","","","","","",""
"391.9900000002235","","image-keyboard-response","515","2986247","0.0-15.0-2.15","a","COGS219_2020_18","Images/motorcycle_cartoon.png","76","2","1581985617954","non-match","motorcycle","cat","label","test","true"
"null","","audio-keyboard-response","516","2988257","0.0-15.0-3.15","a","COGS219_2020_18","Sounds/correct.wav","null","2","","","","","","",""
"null","","audio-keyboard-response","517","2989283","0.0-15.0-0.16","a","COGS219_2020_18","Sounds/cow_label.wav","null","2","","","","","","",""
"null","","html-keyboard-response","518","2990287","0.0-15.0-1.16","a","COGS219_2020_18","<p style=""font-size: 48px;"">+</p>","null","2","","","","","","",""
"406.67000000039116","","image-keyboard-response","519","2990695","0.0-15.0-2.16","a","COGS219_2020_18","Images/car_2.png","76","2","1581985622387","non-match","car","cow","label","test","true"
"null","","audio-keyboard-response","520","2992704","0.0-15.0-3.16","a","COGS219_2020_18","Sounds/correct.wav","null","2","","","","","","",""
"null","","audio-keyboard-response","521","2993823","0.0-15.0-0.17","a","COGS219_2020_18","Sounds/motorcycle_sound.wav","null","2","","","","","","",""
"null","","html-keyboard-response","522","2994821","0.0-15.0-1.17","a","COGS219_2020_18","<p style=""font-size: 48px;"">+</p>","null","2","","","","","","",""
"417.2849999992177","","image-keyboard-response","523","2995239","0.0-15.0-2.17","a","COGS219_2020_18","Images/motorcycle_2.png","65","2","1581985626921","match","motorcycle","motorcycle","sound","test","true"
"null","","audio-keyboard-response","524","2997255","0.0-15.0-3.17","a","COGS219_2020_18","Sounds/correct.wav","null","2","","","","","","",""
"null","","audio-keyboard-response","525","2998243","0.0-15.0-0.18","a","COGS219_2020_18","Sounds/cow_label.wav","null","2","","","","","","",""
"null","","html-keyboard-response","526","2999238","0.0-15.0-1.18","a","COGS219_2020_18","<p style=""font-size: 48px;"">+</p>","null","2","","","","","","",""
"360.3349999971688","","image-keyboard-response","527","2999599","0.0-15.0-2.18","a","COGS219_2020_18","Images/cow_2.png","65","2","1581985631338","match","cow","cow","label","test","true"
"null","","audio-keyboard-response","528","3001612","0.0-15.0-3.18","a","COGS219_2020_18","Sounds/correct.wav","null","2","","","","","","",""
"null","","audio-keyboard-response","529","3002503","0.0-15.0-0.19","a","COGS219_2020_18","Sounds/frog_label.wav","null","2","","","","","","",""
"null","","html-keyboard-response","530","3003521","0.0-15.0-1.19","a","COGS219_2020_18","<p style=""font-size: 48px;"">+</p>","null","2","","","","","","",""
"340.99500000244007","","image-keyboard-response","531","3003863","0.0-15.0-2.19","a","COGS219_2020_18","Images/frog_1.png","65","2","1581985635621","match","frog","frog","label","test","true"
"null","","audio-keyboard-response","532","3005875","0.0-15.0-3.19","a","COGS219_2020_18","Sounds/correct.wav","null","2","","","","","","",""
"null","","audio-keyboard-response","533","3006783","0.0-15.0-0.20","a","COGS219_2020_18","Sounds/frog_sound.wav","null","2","","","","","","",""
"null","","html-keyboard-response","534","3007788","0.0-15.0-1.20","a","COGS219_2020_18","<p style=""font-size: 48px;"">+</p>","null","2","","","","","","",""
"450.25999999791384","","image-keyboard-response","535","3008239","0.0-15.0-2.20","a","COGS219_2020_18","Images/frog_cartoon.png","65","2","1581985639888","match","frog","frog","sound","test","true"
"null","","audio-keyboard-response","536","3010252","0.0-15.0-3.20","a","COGS219_2020_18","Sounds/correct.wav","null","2","","","","","","",""
"null","","audio-keyboard-response","537","3011083","0.0-15.0-0.21","a","COGS219_2020_18","Sounds/cat_sound.wav","null","2","","","","","","",""
"null","","html-keyboard-response","538","3012071","0.0-15.0-1.21","a","COGS219_2020_18","<p style=""font-size: 48px;"">+</p>","null","2","","","","","","",""
"470.8649999992922","","image-keyboard-response","539","3012543","0.0-15.0-2.21","a","COGS219_2020_18","Images/dog_orig.png","76","2","1581985644171","non-match","dog","cat","sound","test","true"
"null","","audio-keyboard-response","540","3014551","0.0-15.0-3.21","a","COGS219_2020_18","Sounds/correct.wav","null","2","","","","","","",""
"null","","audio-keyboard-response","541","3015628","0.0-15.0-0.22","a","COGS219_2020_18","Sounds/car_sound.wav","null","2","","","","","","",""
"null","","html-keyboard-response","542","3016626","0.0-15.0-1.22","a","COGS219_2020_18","<p style=""font-size: 48px;"">+</p>","null","2","","","","","","",""
"457.00499999988824","","image-keyboard-response","543","3017084","0.0-15.0-2.22","a","COGS219_2020_18","Images/car_2.png","65","2","1581985648726","match","car","car","sound","test","true"
"null","","audio-keyboard-response","544","3019095","0.0-15.0-3.22","a","COGS219_2020_18","Sounds/correct.wav","null","2","","","","","","",""
"null","","audio-keyboard-response","545","3020148","0.0-15.0-0.23","a","COGS219_2020_18","Sounds/car_sound.wav","null","2","","","","","","",""
"null","","html-keyboard-response","546","3021143","0.0-15.0-1.23","a","COGS219_2020_18","<p style=""font-size: 48px;"">+</p>","null","2","","","","","","",""
"516.410000000149","","image-keyboard-response","547","3021660","0.0-15.0-2.23","a","COGS219_2020_18","Images/train_2.png","76","2","1581985653243","non-match","train","car","sound","test","true"
"null","","audio-keyboard-response","548","3023669","0.0-15.0-3.23","a","COGS219_2020_18","Sounds/correct.wav","null","2","","","","","","",""
"null","","audio-keyboard-response","549","3024788","0.0-15.0-0.24","a","COGS219_2020_18","Sounds/motorcycle_sound.wav","null","2","","","","","","",""
"null","","html-keyboard-response","550","3025793","0.0-15.0-1.24","a","COGS219_2020_18","<p style=""font-size: 48px;"">+</p>","null","2","","","","","","",""
"569.9049999965355","","image-keyboard-response","551","3026364","0.0-15.0-2.24","a","COGS219_2020_18","Images/whistle_cartoon.png","76","2","1581985657893","non-match","whistle","motorcycle","sound","test","true"
"null","","audio-keyboard-response","552","3028380","0.0-15.0-3.24","a","COGS219_2020_18","Sounds/correct.wav","null","2","","","","","","",""
"null","","audio-keyboard-response","553","3029428","0.0-15.0-0.25","a","COGS219_2020_18","Sounds/car_sound.wav","null","2","","","","","","",""
"null","","html-keyboard-response","554","3030426","0.0-15.0-1.25","a","COGS219_2020_18","<p style=""font-size: 48px;"">+</p>","null","2","","","","","","",""
"392.7299999995157","","image-keyboard-response","555","3030820","0.0-15.0-2.25","a","COGS219_2020_18","Images/car_3.png","65","2","1581985662526","match","car","car","sound","test","true"
"null","","audio-keyboard-response","556","3032829","0.0-15.0-3.25","a","COGS219_2020_18","Sounds/correct.wav","null","2","","","","","","",""
"null","","audio-keyboard-response","557","3033488","0.0-15.0-0.26","a","COGS219_2020_18","Sounds/dog_label.wav","null","2","","","","","","",""
"null","","html-keyboard-response","558","3034493","0.0-15.0-1.26","a","COGS219_2020_18","<p style=""font-size: 48px;"">+</p>","null","2","","","","","","",""
"405.9750000014901","","image-keyboard-response","559","3034900","0.0-15.0-2.26","a","COGS219_2020_18","Images/car_3.png","76","2","1581985666593","non-match","car","dog","label","test","true"
"null","","audio-keyboard-response","560","3036912","0.0-15.0-3.26","a","COGS219_2020_18","Sounds/correct.wav","null","2","","","","","","",""
"null","","audio-keyboard-response","561","3038008","0.0-15.0-0.27","a","COGS219_2020_18","Sounds/motorcycle_sound.wav","null","2","","","","","","",""
"null","","html-keyboard-response","562","3039010","0.0-15.0-1.27","a","COGS219_2020_18","<p style=""font-size: 48px;"">+</p>","null","2","","","","","","",""
"473.6950000007637","","image-keyboard-response","563","3039484","0.0-15.0-2.27","a","COGS219_2020_18","Images/dog_3.png","76","2","1581985671110","non-match","dog","motorcycle","sound","test","true"
"null","","audio-keyboard-response","564","3041488","0.0-15.0-3.27","a","COGS219_2020_18","Sounds/correct.wav","null","2","","","","","","",""
"null","","audio-keyboard-response","565","3042188","0.0-15.0-0.28","a","COGS219_2020_18","Sounds/rooster_sound.wav","null","2","","","","","","",""
"null","","html-keyboard-response","566","3043176","0.0-15.0-1.28","a","COGS219_2020_18","<p style=""font-size: 48px;"">+</p>","null","2","","","","","","",""
"362.4650000021793","","image-keyboard-response","567","3043540","0.0-15.0-2.28","a","COGS219_2020_18","Images/rooster_2.png","65","2","1581985675277","match","rooster","rooster","sound","test","true"
"null","","audio-keyboard-response","568","3045549","0.0-15.0-3.28","a","COGS219_2020_18","Sounds/correct.wav","null","2","","","","","","",""
"null","","audio-keyboard-response","569","3046188","0.0-15.0-0.29","a","COGS219_2020_18","Sounds/dog_label.wav","null","2","","","","","","",""
"null","","html-keyboard-response","570","3047176","0.0-15.0-1.29","a","COGS219_2020_18","<p style=""font-size: 48px;"">+</p>","null","2","","","","","","",""
"474.90000000130385","","image-keyboard-response","571","3047652","0.0-15.0-2.29","a","COGS219_2020_18","Images/cow_2.png","76","2","1581985679277","non-match","cow","dog","label","test","true"
"null","","audio-keyboard-response","572","3049657","0.0-15.0-3.29","a","COGS219_2020_18","Sounds/correct.wav","null","2","","","","","","",""
"null","","audio-keyboard-response","573","3050228","0.0-15.0-0.30","a","COGS219_2020_18","Sounds/gun_label.wav","null","2","","","","","","",""
"null","","html-keyboard-response","574","3051226","0.0-15.0-1.30","a","COGS219_2020_18","<p style=""font-size: 48px;"">+</p>","null","2","","","","","","",""
"360.7100000004284","","image-keyboard-response","575","3051588","0.0-15.0-2.30","a","COGS219_2020_18","Images/whistle_3.png","65","2","1581985683326","non-match","whistle","gun","label","test","false"
"null","","audio-keyboard-response","576","3053598","0.0-15.0-3.30","a","COGS219_2020_18","Sounds/incorrect.wav","null","2","","","","","","",""
"null","","audio-keyboard-response","577","3054428","0.0-15.0-0.31","a","COGS219_2020_18","Sounds/cat_label.wav","null","2","","","","","","",""
"null","","html-keyboard-response","578","3055426","0.0-15.0-1.31","a","COGS219_2020_18","<p style=""font-size: 48px;"">+</p>","null","2","","","","","","",""
"480.73999999882653","","image-keyboard-response","579","3055908","0.0-15.0-2.31","a","COGS219_2020_18","Images/cat_1.png","65","2","1581985687526","match","cat","cat","label","test","true"
"null","","audio-keyboard-response","580","3057922","0.0-15.0-3.31","a","COGS219_2020_18","Sounds/correct.wav","null","2","","","","","","",""
"null","","audio-keyboard-response","581","3058628","0.0-15.0-0.32","a","COGS219_2020_18","Sounds/whistle_sound.wav","null","2","","","","","","",""
"null","","html-keyboard-response","582","3059626","0.0-15.0-1.32","a","COGS219_2020_18","<p style=""font-size: 48px;"">+</p>","null","2","","","","","","",""
"424.35000000102445","","image-keyboard-response","583","3060052","0.0-15.0-2.32","a","COGS219_2020_18","Images/whistle_1.png","65","2","1581985691727","match","whistle","whistle","sound","test","true"
"null","","audio-keyboard-response","584","3062059","0.0-15.0-3.32","a","COGS219_2020_18","Sounds/correct.wav","null","2","","","","","","",""
"null","","audio-keyboard-response","585","3062748","0.0-15.0-0.33","a","COGS219_2020_18","Sounds/rooster_sound.wav","null","2","","","","","","",""
"null","","html-keyboard-response","586","3063743","0.0-15.0-1.33","a","COGS219_2020_18","<p style=""font-size: 48px;"">+</p>","null","2","","","","","","",""
"411.6349999969825","","image-keyboard-response","587","3064156","0.0-15.0-2.33","a","COGS219_2020_18","Images/cat_3.png","76","2","1581985695843","non-match","cat","rooster","sound","test","true"
"null","","audio-keyboard-response","588","3066161","0.0-15.0-3.33","a","COGS219_2020_18","Sounds/correct.wav","null","2","","","","","","",""
"null","","audio-keyboard-response","589","3067288","0.0-15.0-0.34","a","COGS219_2020_18","Sounds/motorcycle_sound.wav","null","2","","","","","","",""
"null","","html-keyboard-response","590","3068293","0.0-15.0-1.34","a","COGS219_2020_18","<p style=""font-size: 48px;"">+</p>","null","2","","","","","","",""
"541.4550000019372","","image-keyboard-response","591","3068836","0.0-15.0-2.34","a","COGS219_2020_18","Images/motorcycle_1.png","65","2","1581985700393","match","motorcycle","motorcycle","sound","test","true"
"null","","audio-keyboard-response","592","3070851","0.0-15.0-3.34","a","COGS219_2020_18","Sounds/correct.wav","null","2","","","","","","",""
"null","","audio-keyboard-response","593","3071748","0.0-15.0-0.35","a","COGS219_2020_18","Sounds/frog_label.wav","null","2","","","","","","",""
"null","","html-keyboard-response","594","3072743","0.0-15.0-1.35","a","COGS219_2020_18","<p style=""font-size: 48px;"">+</p>","null","2","","","","","","",""
"379.93500000052154","","image-keyboard-response","595","3073124","0.0-15.0-2.35","a","COGS219_2020_18","Images/frog_2.png","65","2","1581985704843","match","frog","frog","label","test","true"
"null","","audio-keyboard-response","596","3075130","0.0-15.0-3.35","a","COGS219_2020_18","Sounds/correct.wav","null","2","","","","","","",""
"null","","audio-keyboard-response","597","3076153","0.0-15.0-0.36","a","COGS219_2020_18","Sounds/cow_label.wav","null","2","","","","","","",""
"null","","html-keyboard-response","598","3077148","0.0-15.0-1.36","a","COGS219_2020_18","<p style=""font-size: 48px;"">+</p>","null","2","","","","","","",""
"411.50499999988824","","image-keyboard-response","599","3077561","0.0-15.0-2.36","a","COGS219_2020_18","Images/frog_orig.png","76","2","1581985709248","non-match","frog","cow","label","test","true"
"null","","audio-keyboard-response","600","3079566","0.0-15.0-3.36","a","COGS219_2020_18","Sounds/correct.wav","null","2","","","","","","",""
"null","","audio-keyboard-response","601","3080873","0.0-15.0-0.37","a","COGS219_2020_18","Sounds/train_label.wav","null","2","","","","","","",""
"null","","html-keyboard-response","602","3081865","0.0-15.0-1.37","a","COGS219_2020_18","<p style=""font-size: 48px;"">+</p>","null","2","","","","","","",""
"430.8500000005588","","image-keyboard-response","603","3082297","0.0-15.0-2.37","a","COGS219_2020_18","Images/rooster_3.png","76","2","1581985713965","non-match","rooster","train","label","test","true"
"null","","audio-keyboard-response","604","3084301","0.0-15.0-3.37","a","COGS219_2020_18","Sounds/correct.wav","null","2","","","","","","",""
