"rt","responses","trial_type","trial_index","time_elapsed","internal_node_id","match_key","participant_id","stimulus","key_press","block","stim_onset","match_type","image_category","sound_category","audio_type","phase","correct"
"11615.570000023581","{""Q0"":""COGS219_2020_27""}","survey-text","0","11647","0.0-0.0","a","COGS219_2020_27","","","","","","","","","",""
"137138.62500002142","","html-keyboard-response","1","148800","0.0-1.0","a","COGS219_2020_27","<p>Use KEYBOARD 2 (match LEFT)</p><p>Press MATCH to continue.</p>","65","","","","","","","",""
"2151949.5500000194","","html-keyboard-response","2","2301041","0.0-2.0","a","COGS219_2020_27","<p>Welcome to the experiment.</p>","39","","","","","","","",""
"6792.320000007749","","html-keyboard-response","3","2307839","0.0-3.0","a","COGS219_2020_27","<p>Thank you for agreeing to participate in this study.</p><p>If during any part of the procedure you must stop for any reason, please inform the researcher that you do not wish to continue.</p>","39","","","","","","","",""
"16959.335000021383","","html-keyboard-response","4","2324800","0.0-4.0","a","COGS219_2020_27","<p>In this experiment, you will hear various words or sounds and see pictures of various animals and objects.</p><p>Most of the images will be of common everyday objects, such as cars, cats, cows, firearms, frogs, chickens, whistles, trains, motorcycles, and dogs.</p><p>Some of the images will be real-life stills, while others will be cartoons.</p>","39","","","","","","","",""
"19174.570000031963","","html-keyboard-response","5","2343976","0.0-5.0","a","COGS219_2020_27","<p>Sometimes, the word/sound will match the picture, for example you'll hear a meowing sound and see a cat.</p><p>Other times, the picture will not match the sound or word.</p><p>Your task is to decide as quickly as possible if the word/sound matches the picture or not. </p>","39","","","","","","","",""
"14007.055000052787","","html-keyboard-response","6","2357984","0.0-6.0","a","COGS219_2020_27","<p>For example, if you hear the word ""cat"" or hear a meowing sound, and then see a picture of a cat, you should press the MATCH key.</p><p> If the sound and image do not match, press the NOT-MATCH key to indicate that there is not a match.</p>","39","","","","","","","",""
"13030.525000067428","","html-keyboard-response","7","2371015","0.0-7.0","a","COGS219_2020_27","<p>If you make a mistake, you will hear a buzzing sound instead of a more pleasant sound.</p><p> Try to respond as quickly as possible, while making as few errors as possible. If you are making mistakes, you are probably rushing.</p>","39","","","","","","","",""
"61527.46000001207","","html-keyboard-response","8","2432534","0.0-8.0","a","COGS219_2020_27","<p>Please try to not move or blink your eyes during the presentation of the images. You can move and blink between images.</p><p>During the experiment there will be some breaks during which you can rest your eyes.</p>","39","","","","","","","",""
"6109.884999925271","","html-keyboard-response","9","2438645","0.0-9.0","a","COGS219_2020_27","<p>We will begin with 10 practice trials. Please let the experimenter know if you have any questions.</p>","32","","","","","","","",""
"null","","audio-keyboard-response","10","2439841","0.0-10.0-0.0","a","COGS219_2020_27","Sounds/motorcycle_sound.wav","null","0","","","","","","",""
"null","","html-keyboard-response","11","2440841","0.0-10.0-1.0","a","COGS219_2020_27","<p style=""font-size: 48px;"">+</p>","null","0","","","","","","",""
"889.6699999459088","","image-keyboard-response","12","2441733","0.0-10.0-2.0","a","COGS219_2020_27","Images/motorcycle_2.png","65","0","1582589633722","match","motorcycle","motorcycle","sound","practice","true"
"null","","audio-keyboard-response","13","2443740","0.0-10.0-3.0","a","COGS219_2020_27","Sounds/correct.wav","null","0","","","","","","",""
"null","","audio-keyboard-response","14","2444321","0.0-10.0-0.1","a","COGS219_2020_27","Sounds/gun_sound.wav","null","0","","","","","","",""
"null","","html-keyboard-response","15","2445325","0.0-10.0-1.1","a","COGS219_2020_27","<p style=""font-size: 48px;"">+</p>","null","0","","","","","","",""
"438.7149999383837","","image-keyboard-response","16","2445765","0.0-10.0-2.1","a","COGS219_2020_27","Images/gun_3.png","65","0","1582589638205","match","gun","gun","sound","practice","true"
"null","","audio-keyboard-response","17","2447773","0.0-10.0-3.1","a","COGS219_2020_27","Sounds/correct.wav","null","0","","","","","","",""
"null","","audio-keyboard-response","18","2448441","0.0-10.0-0.2","a","COGS219_2020_27","Sounds/dog_label.wav","null","0","","","","","","",""
"null","","html-keyboard-response","19","2449458","0.0-10.0-1.2","a","COGS219_2020_27","<p style=""font-size: 48px;"">+</p>","null","0","","","","","","",""
"649.5300000533462","","image-keyboard-response","20","2450109","0.0-10.0-2.2","a","COGS219_2020_27","Images/dog_1.png","65","0","1582589642338","match","dog","dog","label","practice","true"
"null","","audio-keyboard-response","21","2452122","0.0-10.0-3.2","a","COGS219_2020_27","Sounds/correct.wav","null","0","","","","","","",""
"null","","audio-keyboard-response","22","2453261","0.0-10.0-0.3","a","COGS219_2020_27","Sounds/motorcycle_label.wav","null","0","","","","","","",""
"null","","html-keyboard-response","23","2454258","0.0-10.0-1.3","a","COGS219_2020_27","<p style=""font-size: 48px;"">+</p>","null","0","","","","","","",""
"665.404999977909","","image-keyboard-response","24","2454925","0.0-10.0-2.3","a","COGS219_2020_27","Images/motorcycle_cartoon.png","65","0","1582589647138","match","motorcycle","motorcycle","label","practice","true"
"null","","audio-keyboard-response","25","2456941","0.0-10.0-3.3","a","COGS219_2020_27","Sounds/correct.wav","null","0","","","","","","",""
"null","","audio-keyboard-response","26","2457961","0.0-10.0-0.4","a","COGS219_2020_27","Sounds/cow_label.wav","null","0","","","","","","",""
"null","","html-keyboard-response","27","2458958","0.0-10.0-1.4","a","COGS219_2020_27","<p style=""font-size: 48px;"">+</p>","null","0","","","","","","",""
"629.6399999409914","","image-keyboard-response","28","2459589","0.0-10.0-2.4","a","COGS219_2020_27","Images/train_1.png","76","0","1582589651838","non-match","train","cow","label","practice","true"
"null","","audio-keyboard-response","29","2461592","0.0-10.0-3.4","a","COGS219_2020_27","Sounds/correct.wav","null","0","","","","","","",""
"null","","audio-keyboard-response","30","2462281","0.0-10.0-0.5","a","COGS219_2020_27","Sounds/rooster_label.wav","null","0","","","","","","",""
"null","","html-keyboard-response","31","2463275","0.0-10.0-1.5","a","COGS219_2020_27","<p style=""font-size: 48px;"">+</p>","null","0","","","","","","",""
"512.5749999424443","","image-keyboard-response","32","2463789","0.0-10.0-2.5","a","COGS219_2020_27","Images/rooster_orig.png","65","0","1582589656155","match","rooster","rooster","label","practice","true"
"null","","audio-keyboard-response","33","2465801","0.0-10.0-3.5","a","COGS219_2020_27","Sounds/correct.wav","null","0","","","","","","",""
"null","","audio-keyboard-response","34","2466701","0.0-10.0-0.6","a","COGS219_2020_27","Sounds/frog_label.wav","null","0","","","","","","",""
"null","","html-keyboard-response","35","2467692","0.0-10.0-1.6","a","COGS219_2020_27","<p style=""font-size: 48px;"">+</p>","null","0","","","","","","",""
"504.11500001791865","","image-keyboard-response","36","2468197","0.0-10.0-2.6","a","COGS219_2020_27","Images/frog_2.png","65","0","1582589660572","match","frog","frog","label","practice","true"
"null","","audio-keyboard-response","37","2470202","0.0-10.0-3.6","a","COGS219_2020_27","Sounds/correct.wav","null","0","","","","","","",""
"null","","audio-keyboard-response","38","2470901","0.0-10.0-0.7","a","COGS219_2020_27","Sounds/rooster_sound.wav","null","0","","","","","","",""
"null","","html-keyboard-response","39","2471892","0.0-10.0-1.7","a","COGS219_2020_27","<p style=""font-size: 48px;"">+</p>","null","0","","","","","","",""
"648.1950000161305","","image-keyboard-response","40","2472541","0.0-10.0-2.7","a","COGS219_2020_27","Images/car_orig.png","76","0","1582589664772","non-match","car","rooster","sound","practice","true"
"null","","audio-keyboard-response","41","2474558","0.0-10.0-3.7","a","COGS219_2020_27","Sounds/correct.wav","null","0","","","","","","",""
"null","","audio-keyboard-response","42","2475641","0.0-10.0-0.8","a","COGS219_2020_27","Sounds/car_sound.wav","null","0","","","","","","",""
"null","","html-keyboard-response","43","2476658","0.0-10.0-1.8","a","COGS219_2020_27","<p style=""font-size: 48px;"">+</p>","null","0","","","","","","",""
"1145.0999999651685","","image-keyboard-response","44","2477805","0.0-10.0-2.8","a","COGS219_2020_27","Images/car_cartoon.png","76","0","1582589669538","match","car","car","sound","practice","false"
"null","","audio-keyboard-response","45","2479820","0.0-10.0-3.8","a","COGS219_2020_27","Sounds/incorrect.wav","null","0","","","","","","",""
"null","","audio-keyboard-response","46","2480661","0.0-10.0-0.9","a","COGS219_2020_27","Sounds/cat_label.wav","null","0","","","","","","",""
"null","","html-keyboard-response","47","2481658","0.0-10.0-1.9","a","COGS219_2020_27","<p style=""font-size: 48px;"">+</p>","null","0","","","","","","",""
"753.3299999777228","","image-keyboard-response","48","2482413","0.0-10.0-2.9","a","COGS219_2020_27","Images/car_1.png","76","0","1582589674538","non-match","car","cat","label","practice","true"
"null","","audio-keyboard-response","49","2484417","0.0-10.0-3.9","a","COGS219_2020_27","Sounds/correct.wav","null","0","","","","","","",""
"88172.14500007685","","html-keyboard-response","50","2572598","0.0-11.0","a","COGS219_2020_27","<p>The rest of the experiment is divided into five blocks with 100 trials in each block. It will take about 45 minutes to complete.</p><p>The experimenter will be in the outer room and you can communicate with them through the monitor if you have any questions or wish to stop the experiment.</p>","32","","","","","","","",""
"2429.8849999904633","","html-keyboard-response","51","2575016","0.0-12.0","a","COGS219_2020_27","<p>Remember, please try not to move or blink your eyes during the presentation of the images. </p><p>At the end of the experiment, we will show you your scores on the task so you can see how you did.</p><p>The experiment will start on the next screen.</p>","32","","","","","","","",""
"null","","audio-keyboard-response","52","2577759","0.0-13.0-0.0","a","COGS219_2020_27","Sounds/dog_sound.wav","null","1","","","","","","",""
"null","","html-keyboard-response","53","2578755","0.0-13.0-1.0","a","COGS219_2020_27","<p style=""font-size: 48px;"">+</p>","null","1","","","","","","",""
"612.1350000612438","","image-keyboard-response","54","2579368","0.0-13.0-2.0","a","COGS219_2020_27","Images/dog_1.png","65","1","1582589771635","match","dog","dog","sound","test","true"
"null","","audio-keyboard-response","55","2581375","0.0-13.0-3.0","a","COGS219_2020_27","Sounds/correct.wav","null","1","","","","","","",""
"null","","audio-keyboard-response","56","2582280","0.0-13.0-0.1","a","COGS219_2020_27","Sounds/frog_label.wav","null","1","","","","","","",""
"null","","html-keyboard-response","57","2583271","0.0-13.0-1.1","a","COGS219_2020_27","<p style=""font-size: 48px;"">+</p>","null","1","","","","","","",""
"831.815000041388","","image-keyboard-response","58","2584104","0.0-13.0-2.1","a","COGS219_2020_27","Images/gun_orig.png","76","1","1582589776151","non-match","gun","frog","label","test","true"
"null","","audio-keyboard-response","59","2586108","0.0-13.0-3.1","a","COGS219_2020_27","Sounds/correct.wav","null","1","","","","","","",""
"null","","audio-keyboard-response","60","2587119","0.0-13.0-0.2","a","COGS219_2020_27","Sounds/cow_sound.wav","null","1","","","","","","",""
"null","","html-keyboard-response","61","2588121","0.0-13.0-1.2","a","COGS219_2020_27","<p style=""font-size: 48px;"">+</p>","null","1","","","","","","",""
"717.4600000726059","","image-keyboard-response","62","2588840","0.0-13.0-2.2","a","COGS219_2020_27","Images/cow_3.png","65","1","1582589781001","match","cow","cow","sound","test","true"
"null","","audio-keyboard-response","63","2590849","0.0-13.0-3.2","a","COGS219_2020_27","Sounds/correct.wav","null","1","","","","","","",""
"null","","audio-keyboard-response","64","2592138","0.0-13.0-0.3","a","COGS219_2020_27","Sounds/train_sound.wav","null","1","","","","","","",""
"null","","html-keyboard-response","65","2593138","0.0-13.0-1.3","a","COGS219_2020_27","<p style=""font-size: 48px;"">+</p>","null","1","","","","","","",""
"612.0599999558181","","image-keyboard-response","66","2593752","0.0-13.0-2.3","a","COGS219_2020_27","Images/train_orig.png","65","1","1582589786018","match","train","train","sound","test","true"
"null","","audio-keyboard-response","67","2595760","0.0-13.0-3.3","a","COGS219_2020_27","Sounds/correct.wav","null","1","","","","","","",""
"null","","audio-keyboard-response","68","2596419","0.0-13.0-0.4","a","COGS219_2020_27","Sounds/dog_label.wav","null","1","","","","","","",""
"null","","html-keyboard-response","69","2597421","0.0-13.0-1.4","a","COGS219_2020_27","<p style=""font-size: 48px;"">+</p>","null","1","","","","","","",""
"537.6399999950081","","image-keyboard-response","70","2597960","0.0-13.0-2.4","a","COGS219_2020_27","Images/rooster_3.png","76","1","1582589790302","non-match","rooster","dog","label","test","true"
"null","","audio-keyboard-response","71","2599964","0.0-13.0-3.4","a","COGS219_2020_27","Sounds/correct.wav","null","1","","","","","","",""
"null","","audio-keyboard-response","72","2601038","0.0-13.0-0.5","a","COGS219_2020_27","Sounds/car_sound.wav","null","1","","","","","","",""
"null","","html-keyboard-response","73","2602038","0.0-13.0-1.5","a","COGS219_2020_27","<p style=""font-size: 48px;"">+</p>","null","1","","","","","","",""
"753.0199999455363","","image-keyboard-response","74","2602792","0.0-13.0-2.5","a","COGS219_2020_27","Images/gun_3.png","76","1","1582589794918","non-match","gun","car","sound","test","true"
"null","","audio-keyboard-response","75","2604797","0.0-13.0-3.5","a","COGS219_2020_27","Sounds/correct.wav","null","1","","","","","","",""
"null","","audio-keyboard-response","76","2605378","0.0-13.0-0.6","a","COGS219_2020_27","Sounds/gun_sound.wav","null","1","","","","","","",""
"null","","html-keyboard-response","77","2606372","0.0-13.0-1.6","a","COGS219_2020_27","<p style=""font-size: 48px;"">+</p>","null","1","","","","","","",""
"635.1200001081452","","image-keyboard-response","78","2607008","0.0-13.0-2.6","a","COGS219_2020_27","Images/gun_3.png","65","1","1582589799252","match","gun","gun","sound","test","true"
"null","","audio-keyboard-response","79","2609022","0.0-13.0-3.6","a","COGS219_2020_27","Sounds/correct.wav","null","1","","","","","","",""
"null","","audio-keyboard-response","80","2609659","0.0-13.0-0.7","a","COGS219_2020_27","Sounds/dog_label.wav","null","1","","","","","","",""
"null","","html-keyboard-response","81","2610655","0.0-13.0-1.7","a","COGS219_2020_27","<p style=""font-size: 48px;"">+</p>","null","1","","","","","","",""
"560.204999987036","","image-keyboard-response","82","2611216","0.0-13.0-2.7","a","COGS219_2020_27","Images/dog_3.png","65","1","1582589803535","match","dog","dog","label","test","true"
"null","","audio-keyboard-response","83","2613229","0.0-13.0-3.7","a","COGS219_2020_27","Sounds/correct.wav","null","1","","","","","","",""
"null","","audio-keyboard-response","84","2613919","0.0-13.0-0.8","a","COGS219_2020_27","Sounds/rooster_sound.wav","null","1","","","","","","",""
"null","","html-keyboard-response","85","2614922","0.0-13.0-1.8","a","COGS219_2020_27","<p style=""font-size: 48px;"">+</p>","null","1","","","","","","",""
"629.079999984242","","image-keyboard-response","86","2615552","0.0-13.0-2.8","a","COGS219_2020_27","Images/rooster_1.png","65","1","1582589807802","match","rooster","rooster","sound","test","true"
"null","","audio-keyboard-response","87","2617555","0.0-13.0-3.8","a","COGS219_2020_27","Sounds/correct.wav","null","1","","","","","","",""
"null","","audio-keyboard-response","88","2618698","0.0-13.0-0.9","a","COGS219_2020_27","Sounds/motorcycle_label.wav","null","1","","","","","","",""
"null","","html-keyboard-response","89","2619688","0.0-13.0-1.9","a","COGS219_2020_27","<p style=""font-size: 48px;"">+</p>","null","1","","","","","","",""
"678.7300000432879","","image-keyboard-response","90","2620368","0.0-13.0-2.9","a","COGS219_2020_27","Images/cow_3.png","76","1","1582589812568","non-match","cow","motorcycle","label","test","true"
"null","","audio-keyboard-response","91","2622370","0.0-13.0-3.9","a","COGS219_2020_27","Sounds/correct.wav","null","1","","","","","","",""
"null","","audio-keyboard-response","92","2623038","0.0-13.0-0.10","a","COGS219_2020_27","Sounds/rooster_sound.wav","null","1","","","","","","",""
"null","","html-keyboard-response","93","2624038","0.0-13.0-1.10","a","COGS219_2020_27","<p style=""font-size: 48px;"">+</p>","null","1","","","","","","",""
"800.9150000289083","","image-keyboard-response","94","2624840","0.0-13.0-2.10","a","COGS219_2020_27","Images/train_3.png","76","1","1582589816918","non-match","train","rooster","sound","test","true"
"null","","audio-keyboard-response","95","2626843","0.0-13.0-3.10","a","COGS219_2020_27","Sounds/correct.wav","null","1","","","","","","",""
"null","","audio-keyboard-response","96","2627678","0.0-13.0-0.11","a","COGS219_2020_27","Sounds/cat_sound.wav","null","1","","","","","","",""
"null","","html-keyboard-response","97","2628672","0.0-13.0-1.11","a","COGS219_2020_27","<p style=""font-size: 48px;"">+</p>","null","1","","","","","","",""
"527.2400000831112","","image-keyboard-response","98","2629200","0.0-13.0-2.11","a","COGS219_2020_27","Images/cat_orig.png","65","1","1582589821552","match","cat","cat","sound","test","true"
"null","","audio-keyboard-response","99","2631215","0.0-13.0-3.11","a","COGS219_2020_27","Sounds/correct.wav","null","1","","","","","","",""
"null","","audio-keyboard-response","100","2632118","0.0-13.0-0.12","a","COGS219_2020_27","Sounds/frog_label.wav","null","1","","","","","","",""
"null","","html-keyboard-response","101","2633122","0.0-13.0-1.12","a","COGS219_2020_27","<p style=""font-size: 48px;"">+</p>","null","1","","","","","","",""
"469.26499996334314","","image-keyboard-response","102","2633592","0.0-13.0-2.12","a","COGS219_2020_27","Images/frog_orig.png","65","1","1582589826002","match","frog","frog","label","test","true"
"null","","audio-keyboard-response","103","2635615","0.0-13.0-3.12","a","COGS219_2020_27","Sounds/correct.wav","null","1","","","","","","",""
"null","","audio-keyboard-response","104","2636332","0.0-13.0-0.13","a","COGS219_2020_27","Sounds/dog_sound.wav","null","1","","","","","","",""
"null","","html-keyboard-response","105","2637335","0.0-13.0-1.13","a","COGS219_2020_27","<p style=""font-size: 48px;"">+</p>","null","1","","","","","","",""
"477.1249999757856","","image-keyboard-response","106","2637813","0.0-13.0-2.13","a","COGS219_2020_27","Images/car_1.png","76","1","1582589830215","non-match","car","dog","sound","test","true"
"null","","audio-keyboard-response","107","2639830","0.0-13.0-3.13","a","COGS219_2020_27","Sounds/correct.wav","null","1","","","","","","",""
"null","","audio-keyboard-response","108","2641112","0.0-13.0-0.14","a","COGS219_2020_27","Sounds/train_label.wav","null","1","","","","","","",""
"null","","html-keyboard-response","109","2642102","0.0-13.0-1.14","a","COGS219_2020_27","<p style=""font-size: 48px;"">+</p>","null","1","","","","","","",""
"654.3599999276921","","image-keyboard-response","110","2642757","0.0-13.0-2.14","a","COGS219_2020_27","Images/dog_orig.png","76","1","1582589834982","non-match","dog","train","label","test","true"
"null","","audio-keyboard-response","111","2644769","0.0-13.0-3.14","a","COGS219_2020_27","Sounds/correct.wav","null","1","","","","","","",""
"null","","audio-keyboard-response","112","2645912","0.0-13.0-0.15","a","COGS219_2020_27","Sounds/motorcycle_label.wav","null","1","","","","","","",""
"null","","html-keyboard-response","113","2646902","0.0-13.0-1.15","a","COGS219_2020_27","<p style=""font-size: 48px;"">+</p>","null","1","","","","","","",""
"438.1349999457598","","image-keyboard-response","114","2647341","0.0-13.0-2.15","a","COGS219_2020_27","Images/motorcycle_1.png","65","1","1582589839782","match","motorcycle","motorcycle","label","test","true"
"null","","audio-keyboard-response","115","2649353","0.0-13.0-3.15","a","COGS219_2020_27","Sounds/correct.wav","null","1","","","","","","",""
"null","","audio-keyboard-response","116","2649932","0.0-13.0-0.16","a","COGS219_2020_27","Sounds/gun_sound.wav","null","1","","","","","","",""
"null","","html-keyboard-response","117","2650936","0.0-13.0-1.16","a","COGS219_2020_27","<p style=""font-size: 48px;"">+</p>","null","1","","","","","","",""
"605.1050000824034","","image-keyboard-response","118","2651542","0.0-13.0-2.16","a","COGS219_2020_27","Images/motorcycle_1.png","76","1","1582589843816","non-match","motorcycle","gun","sound","test","true"
"null","","audio-keyboard-response","119","2653555","0.0-13.0-3.16","a","COGS219_2020_27","Sounds/correct.wav","null","1","","","","","","",""
"null","","audio-keyboard-response","120","2654252","0.0-13.0-0.17","a","COGS219_2020_27","Sounds/rooster_sound.wav","null","1","","","","","","",""
"null","","html-keyboard-response","121","2655252","0.0-13.0-1.17","a","COGS219_2020_27","<p style=""font-size: 48px;"">+</p>","null","1","","","","","","",""
"688.1249999860302","","image-keyboard-response","122","2655941","0.0-13.0-2.17","a","COGS219_2020_27","Images/dog_2.png","76","1","1582589848132","non-match","dog","rooster","sound","test","true"
"null","","audio-keyboard-response","123","2657949","0.0-13.0-3.17","a","COGS219_2020_27","Sounds/correct.wav","null","1","","","","","","",""
"null","","audio-keyboard-response","124","2659032","0.0-13.0-0.18","a","COGS219_2020_27","Sounds/car_label.wav","null","1","","","","","","",""
"null","","html-keyboard-response","125","2660036","0.0-13.0-1.18","a","COGS219_2020_27","<p style=""font-size: 48px;"">+</p>","null","1","","","","","","",""
"592.9000000469387","","image-keyboard-response","126","2660629","0.0-13.0-2.18","a","COGS219_2020_27","Images/train_orig.png","76","1","1582589852916","non-match","train","car","label","test","true"
"null","","audio-keyboard-response","127","2662640","0.0-13.0-3.18","a","COGS219_2020_27","Sounds/correct.wav","null","1","","","","","","",""
"null","","audio-keyboard-response","128","2663332","0.0-13.0-0.19","a","COGS219_2020_27","Sounds/whistle_label.wav","null","1","","","","","","",""
"null","","html-keyboard-response","129","2664336","0.0-13.0-1.19","a","COGS219_2020_27","<p style=""font-size: 48px;"">+</p>","null","1","","","","","","",""
"724.8250000411645","","image-keyboard-response","130","2665062","0.0-13.0-2.19","a","COGS219_2020_27","Images/whistle_orig.png","65","1","1582589857216","match","whistle","whistle","label","test","true"
"null","","audio-keyboard-response","131","2667079","0.0-13.0-3.19","a","COGS219_2020_27","Sounds/correct.wav","null","1","","","","","","",""
"null","","audio-keyboard-response","132","2667912","0.0-13.0-0.20","a","COGS219_2020_27","Sounds/cat_sound.wav","null","1","","","","","","",""
"null","","html-keyboard-response","133","2668902","0.0-13.0-1.20","a","COGS219_2020_27","<p style=""font-size: 48px;"">+</p>","null","1","","","","","","",""
"574.0000000223517","","image-keyboard-response","134","2669477","0.0-13.0-2.20","a","COGS219_2020_27","Images/cat_1.png","65","1","1582589861783","match","cat","cat","sound","test","true"
"null","","audio-keyboard-response","135","2671481","0.0-13.0-3.20","a","COGS219_2020_27","Sounds/correct.wav","null","1","","","","","","",""
"null","","audio-keyboard-response","136","2672612","0.0-13.0-0.21","a","COGS219_2020_27","Sounds/motorcycle_label.wav","null","1","","","","","","",""
"null","","html-keyboard-response","137","2673602","0.0-13.0-1.21","a","COGS219_2020_27","<p style=""font-size: 48px;"">+</p>","null","1","","","","","","",""
"689.9800000246614","","image-keyboard-response","138","2674293","0.0-13.0-2.21","a","COGS219_2020_27","Images/car_3.png","76","1","1582589866483","non-match","car","motorcycle","label","test","true"
"null","","audio-keyboard-response","139","2676309","0.0-13.0-3.21","a","COGS219_2020_27","Sounds/correct.wav","null","1","","","","","","",""
"null","","audio-keyboard-response","140","2677012","0.0-13.0-0.22","a","COGS219_2020_27","Sounds/dog_sound.wav","null","1","","","","","","",""
"null","","html-keyboard-response","141","2678003","0.0-13.0-1.22","a","COGS219_2020_27","<p style=""font-size: 48px;"">+</p>","null","1","","","","","","",""
"634.3249999918044","","image-keyboard-response","142","2678638","0.0-13.0-2.22","a","COGS219_2020_27","Images/cat_1.png","76","1","1582589870883","non-match","cat","dog","sound","test","true"
"null","","audio-keyboard-response","143","2680655","0.0-13.0-3.22","a","COGS219_2020_27","Sounds/correct.wav","null","1","","","","","","",""
"null","","audio-keyboard-response","144","2681672","0.0-13.0-0.23","a","COGS219_2020_27","Sounds/cow_label.wav","null","1","","","","","","",""
"null","","html-keyboard-response","145","2682669","0.0-13.0-1.23","a","COGS219_2020_27","<p style=""font-size: 48px;"">+</p>","null","1","","","","","","",""
"653.1149999937043","","image-keyboard-response","146","2683325","0.0-13.0-2.23","a","COGS219_2020_27","Images/cow_orig.png","65","1","1582589875549","match","cow","cow","label","test","true"
"null","","audio-keyboard-response","147","2685335","0.0-13.0-3.23","a","COGS219_2020_27","Sounds/correct.wav","null","1","","","","","","",""
"null","","audio-keyboard-response","148","2686412","0.0-13.0-0.24","a","COGS219_2020_27","Sounds/car_label.wav","null","1","","","","","","",""
"null","","html-keyboard-response","149","2687403","0.0-13.0-1.24","a","COGS219_2020_27","<p style=""font-size: 48px;"">+</p>","null","1","","","","","","",""
"688.8700000708923","","image-keyboard-response","150","2688093","0.0-13.0-2.24","a","COGS219_2020_27","Images/cat_3.png","76","1","1582589880283","non-match","cat","car","label","test","true"
"null","","audio-keyboard-response","151","2690105","0.0-13.0-3.24","a","COGS219_2020_27","Sounds/correct.wav","null","1","","","","","","",""
"null","","audio-keyboard-response","152","2691112","0.0-13.0-0.25","a","COGS219_2020_27","Sounds/cow_sound.wav","null","1","","","","","","",""
"null","","html-keyboard-response","153","2692103","0.0-13.0-1.25","a","COGS219_2020_27","<p style=""font-size: 48px;"">+</p>","null","1","","","","","","",""
"550.0450000399724","","image-keyboard-response","154","2692654","0.0-13.0-2.25","a","COGS219_2020_27","Images/rooster_cartoon.png","76","1","1582589884983","non-match","rooster","cow","sound","test","true"
"null","","audio-keyboard-response","155","2694661","0.0-13.0-3.25","a","COGS219_2020_27","Sounds/correct.wav","null","1","","","","","","",""
"null","","audio-keyboard-response","156","2695572","0.0-13.0-0.26","a","COGS219_2020_27","Sounds/frog_sound.wav","null","1","","","","","","",""
"null","","html-keyboard-response","157","2696570","0.0-13.0-1.26","a","COGS219_2020_27","<p style=""font-size: 48px;"">+</p>","null","1","","","","","","",""
"539.0749999787658","","image-keyboard-response","158","2697110","0.0-13.0-2.26","a","COGS219_2020_27","Images/frog_cartoon.png","65","1","1582589889450","match","frog","frog","sound","test","true"
"null","","audio-keyboard-response","159","2699127","0.0-13.0-3.26","a","COGS219_2020_27","Sounds/correct.wav","null","1","","","","","","",""
"null","","audio-keyboard-response","160","2700273","0.0-13.0-0.27","a","COGS219_2020_27","Sounds/motorcycle_label.wav","null","1","","","","","","",""
"null","","html-keyboard-response","161","2701270","0.0-13.0-1.27","a","COGS219_2020_27","<p style=""font-size: 48px;"">+</p>","null","1","","","","","","",""
"654.9349999986589","","image-keyboard-response","162","2701926","0.0-13.0-2.27","a","COGS219_2020_27","Images/motorcycle_3.png","76","1","1582589894150","match","motorcycle","motorcycle","label","test","false"
"null","","audio-keyboard-response","163","2703943","0.0-13.0-3.27","a","COGS219_2020_27","Sounds/incorrect.wav","null","1","","","","","","",""
"null","","audio-keyboard-response","164","2704933","0.0-13.0-0.28","a","COGS219_2020_27","Sounds/cow_sound.wav","null","1","","","","","","",""
"null","","html-keyboard-response","165","2705937","0.0-13.0-1.28","a","COGS219_2020_27","<p style=""font-size: 48px;"">+</p>","null","1","","","","","","",""
"604.2950000846758","","image-keyboard-response","166","2706542","0.0-13.0-2.28","a","COGS219_2020_27","Images/dog_3.png","76","1","1582589898817","non-match","dog","cow","sound","test","true"
"null","","audio-keyboard-response","167","2708556","0.0-13.0-3.28","a","COGS219_2020_27","Sounds/correct.wav","null","1","","","","","","",""
"null","","audio-keyboard-response","168","2709673","0.0-13.0-0.29","a","COGS219_2020_27","Sounds/motorcycle_label.wav","null","1","","","","","","",""
"null","","html-keyboard-response","169","2710670","0.0-13.0-1.29","a","COGS219_2020_27","<p style=""font-size: 48px;"">+</p>","null","1","","","","","","",""
"638.7700000777841","","image-keyboard-response","170","2711310","0.0-13.0-2.29","a","COGS219_2020_27","Images/gun_2.png","76","1","1582589903550","non-match","gun","motorcycle","label","test","true"
"null","","audio-keyboard-response","171","2713324","0.0-13.0-3.29","a","COGS219_2020_27","Sounds/correct.wav","null","1","","","","","","",""
"null","","audio-keyboard-response","172","2714353","0.0-13.0-0.30","a","COGS219_2020_27","Sounds/cow_label.wav","null","1","","","","","","",""
"null","","html-keyboard-response","173","2715370","0.0-13.0-1.30","a","COGS219_2020_27","<p style=""font-size: 48px;"">+</p>","null","1","","","","","","",""
"586.7649998981506","","image-keyboard-response","174","2715958","0.0-13.0-2.30","a","COGS219_2020_27","Images/cow_2.png","65","1","1582589908250","match","cow","cow","label","test","true"
"null","","audio-keyboard-response","175","2717973","0.0-13.0-3.30","a","COGS219_2020_27","Sounds/correct.wav","null","1","","","","","","",""
"null","","audio-keyboard-response","176","2718553","0.0-13.0-0.31","a","COGS219_2020_27","Sounds/gun_label.wav","null","1","","","","","","",""
"null","","html-keyboard-response","177","2719554","0.0-13.0-1.31","a","COGS219_2020_27","<p style=""font-size: 48px;"">+</p>","null","1","","","","","","",""
"475.49500002060086","","image-keyboard-response","178","2720030","0.0-13.0-2.31","a","COGS219_2020_27","Images/gun_orig.png","65","1","1582589912434","match","gun","gun","label","test","true"
"null","","audio-keyboard-response","179","2722033","0.0-13.0-3.31","a","COGS219_2020_27","Sounds/correct.wav","null","1","","","","","","",""
"null","","audio-keyboard-response","180","2722933","0.0-13.0-0.32","a","COGS219_2020_27","Sounds/frog_sound.wav","null","1","","","","","","",""
"null","","html-keyboard-response","181","2723937","0.0-13.0-1.32","a","COGS219_2020_27","<p style=""font-size: 48px;"">+</p>","null","1","","","","","","",""
"411.83999995701015","","image-keyboard-response","182","2724350","0.0-13.0-2.32","a","COGS219_2020_27","Images/frog_1.png","65","1","1582589916817","match","frog","frog","sound","test","true"
"null","","audio-keyboard-response","183","2726354","0.0-13.0-3.32","a","COGS219_2020_27","Sounds/correct.wav","null","1","","","","","","",""
"null","","audio-keyboard-response","184","2727433","0.0-13.0-0.33","a","COGS219_2020_27","Sounds/car_sound.wav","null","1","","","","","","",""
"null","","html-keyboard-response","185","2728437","0.0-13.0-1.33","a","COGS219_2020_27","<p style=""font-size: 48px;"">+</p>","null","1","","","","","","",""
"424.2599999997765","","image-keyboard-response","186","2728862","0.0-13.0-2.33","a","COGS219_2020_27","Images/car_1.png","65","1","1582589921317","match","car","car","sound","test","true"
"null","","audio-keyboard-response","187","2730870","0.0-13.0-3.33","a","COGS219_2020_27","Sounds/correct.wav","null","1","","","","","","",""
"null","","audio-keyboard-response","188","2731993","0.0-13.0-0.34","a","COGS219_2020_27","Sounds/motorcycle_sound.wav","null","1","","","","","","",""
"null","","html-keyboard-response","189","2732987","0.0-13.0-1.34","a","COGS219_2020_27","<p style=""font-size: 48px;"">+</p>","null","1","","","","","","",""
"1209.7950000315905","","image-keyboard-response","190","2734198","0.0-13.0-2.34","a","COGS219_2020_27","Images/whistle_1.png","76","1","1582589925868","non-match","whistle","motorcycle","sound","test","true"
"null","","audio-keyboard-response","191","2736211","0.0-13.0-3.34","a","COGS219_2020_27","Sounds/correct.wav","null","1","","","","","","",""
"null","","audio-keyboard-response","192","2737113","0.0-13.0-0.35","a","COGS219_2020_27","Sounds/frog_label.wav","null","1","","","","","","",""
"null","","html-keyboard-response","193","2738104","0.0-13.0-1.35","a","COGS219_2020_27","<p style=""font-size: 48px;"">+</p>","null","1","","","","","","",""
"627.8100000927225","","image-keyboard-response","194","2738734","0.0-13.0-2.35","a","COGS219_2020_27","Images/rooster_1.png","76","1","1582589930984","non-match","rooster","frog","label","test","true"
"null","","audio-keyboard-response","195","2740739","0.0-13.0-3.35","a","COGS219_2020_27","Sounds/correct.wav","null","1","","","","","","",""
"null","","audio-keyboard-response","196","2741793","0.0-13.0-0.36","a","COGS219_2020_27","Sounds/car_sound.wav","null","1","","","","","","",""
"null","","html-keyboard-response","197","2742787","0.0-13.0-1.36","a","COGS219_2020_27","<p style=""font-size: 48px;"">+</p>","null","1","","","","","","",""
"874.199999962002","","image-keyboard-response","198","2743662","0.0-13.0-2.36","a","COGS219_2020_27","Images/car_cartoon.png","65","1","1582589935667","match","car","car","sound","test","true"
"null","","audio-keyboard-response","199","2745671","0.0-13.0-3.36","a","COGS219_2020_27","Sounds/correct.wav","null","1","","","","","","",""
"null","","audio-keyboard-response","200","2746373","0.0-13.0-0.37","a","COGS219_2020_27","Sounds/whistle_sound.wav","null","1","","","","","","",""
"null","","html-keyboard-response","201","2747371","0.0-13.0-1.37","a","COGS219_2020_27","<p style=""font-size: 48px;"">+</p>","null","1","","","","","","",""
"314.63999999687076","","image-keyboard-response","202","2747686","0.0-13.0-2.37","a","COGS219_2020_27","Images/whistle_1.png","65","1","1582589940251","match","whistle","whistle","sound","test","true"
"null","","audio-keyboard-response","203","2749696","0.0-13.0-3.37","a","COGS219_2020_27","Sounds/correct.wav","null","1","","","","","","",""
"null","","audio-keyboard-response","204","2750533","0.0-13.0-0.38","a","COGS219_2020_27","Sounds/cat_sound.wav","null","1","","","","","","",""
"null","","html-keyboard-response","205","2751537","0.0-13.0-1.38","a","COGS219_2020_27","<p style=""font-size: 48px;"">+</p>","null","1","","","","","","",""
"683.640000061132","","image-keyboard-response","206","2752222","0.0-13.0-2.38","a","COGS219_2020_27","Images/gun_1.png","76","1","1582589944417","non-match","gun","cat","sound","test","true"
"null","","audio-keyboard-response","207","2754234","0.0-13.0-3.38","a","COGS219_2020_27","Sounds/correct.wav","null","1","","","","","","",""
"null","","audio-keyboard-response","208","2755513","0.0-13.0-0.39","a","COGS219_2020_27","Sounds/train_label.wav","null","1","","","","","","",""
"null","","html-keyboard-response","209","2756504","0.0-13.0-1.39","a","COGS219_2020_27","<p style=""font-size: 48px;"">+</p>","null","1","","","","","","",""
"637.1999999973923","","image-keyboard-response","210","2757142","0.0-13.0-2.39","a","COGS219_2020_27","Images/whistle_orig.png","76","1","1582589949384","non-match","whistle","train","label","test","true"
"null","","audio-keyboard-response","211","2759155","0.0-13.0-3.39","a","COGS219_2020_27","Sounds/correct.wav","null","1","","","","","","",""
"null","","audio-keyboard-response","212","2760453","0.0-13.0-0.40","a","COGS219_2020_27","Sounds/train_sound.wav","null","1","","","","","","",""
"null","","html-keyboard-response","213","2761471","0.0-13.0-1.40","a","COGS219_2020_27","<p style=""font-size: 48px;"">+</p>","null","1","","","","","","",""
"590.4899999732152","","image-keyboard-response","214","2762062","0.0-13.0-2.40","a","COGS219_2020_27","Images/rooster_orig.png","76","1","1582589954351","non-match","rooster","train","sound","test","true"
"null","","audio-keyboard-response","215","2764073","0.0-13.0-3.40","a","COGS219_2020_27","Sounds/correct.wav","null","1","","","","","","",""
"null","","audio-keyboard-response","216","2764753","0.0-13.0-0.41","a","COGS219_2020_27","Sounds/whistle_sound.wav","null","1","","","","","","",""
"null","","html-keyboard-response","217","2765771","0.0-13.0-1.41","a","COGS219_2020_27","<p style=""font-size: 48px;"">+</p>","null","1","","","","","","",""
"618.2150000240654","","image-keyboard-response","218","2766390","0.0-13.0-2.41","a","COGS219_2020_27","Images/train_1.png","76","1","1582589958651","non-match","train","whistle","sound","test","true"
"null","","audio-keyboard-response","219","2768404","0.0-13.0-3.41","a","COGS219_2020_27","Sounds/correct.wav","null","1","","","","","","",""
"null","","audio-keyboard-response","220","2769093","0.0-13.0-0.42","a","COGS219_2020_27","Sounds/rooster_sound.wav","null","1","","","","","","",""
"null","","html-keyboard-response","221","2770087","0.0-13.0-1.42","a","COGS219_2020_27","<p style=""font-size: 48px;"">+</p>","null","1","","","","","","",""
"861.5999999456108","","image-keyboard-response","222","2770950","0.0-13.0-2.42","a","COGS219_2020_27","Images/rooster_3.png","65","1","1582589962968","match","rooster","rooster","sound","test","true"
"null","","audio-keyboard-response","223","2772955","0.0-13.0-3.42","a","COGS219_2020_27","Sounds/correct.wav","null","1","","","","","","",""
"null","","audio-keyboard-response","224","2773973","0.0-13.0-0.43","a","COGS219_2020_27","Sounds/cow_label.wav","null","1","","","","","","",""
"null","","html-keyboard-response","225","2774971","0.0-13.0-1.43","a","COGS219_2020_27","<p style=""font-size: 48px;"">+</p>","null","1","","","","","","",""
"514.3649999517947","","image-keyboard-response","226","2775486","0.0-13.0-2.43","a","COGS219_2020_27","Images/cow_1.png","65","1","1582589967851","match","cow","cow","label","test","true"
"null","","audio-keyboard-response","227","2777497","0.0-13.0-3.43","a","COGS219_2020_27","Sounds/correct.wav","null","1","","","","","","",""
"null","","audio-keyboard-response","228","2778333","0.0-13.0-0.44","a","COGS219_2020_27","Sounds/cat_label.wav","null","1","","","","","","",""
"null","","html-keyboard-response","229","2779338","0.0-13.0-1.44","a","COGS219_2020_27","<p style=""font-size: 48px;"">+</p>","null","1","","","","","","",""
"531.0749999480322","","image-keyboard-response","230","2779870","0.0-13.0-2.44","a","COGS219_2020_27","Images/cat_2.png","65","1","1582589972218","match","cat","cat","label","test","true"
"null","","audio-keyboard-response","231","2781879","0.0-13.0-3.44","a","COGS219_2020_27","Sounds/correct.wav","null","1","","","","","","",""
"null","","audio-keyboard-response","232","2783013","0.0-13.0-0.45","a","COGS219_2020_27","Sounds/motorcycle_label.wav","null","1","","","","","","",""
"null","","html-keyboard-response","233","2784004","0.0-13.0-1.45","a","COGS219_2020_27","<p style=""font-size: 48px;"">+</p>","null","1","","","","","","",""
"776.8599999835715","","image-keyboard-response","234","2784782","0.0-13.0-2.45","a","COGS219_2020_27","Images/train_2.png","65","1","1582589976884","non-match","train","motorcycle","label","test","false"
"null","","audio-keyboard-response","235","2786795","0.0-13.0-3.45","a","COGS219_2020_27","Sounds/incorrect.wav","null","1","","","","","","",""
"null","","audio-keyboard-response","236","2787493","0.0-13.0-0.46","a","COGS219_2020_27","Sounds/whistle_label.wav","null","1","","","","","","",""
"null","","html-keyboard-response","237","2788488","0.0-13.0-1.46","a","COGS219_2020_27","<p style=""font-size: 48px;"">+</p>","null","1","","","","","","",""
"613.5350000113249","","image-keyboard-response","238","2789102","0.0-13.0-2.46","a","COGS219_2020_27","Images/whistle_2.png","65","1","1582589981368","match","whistle","whistle","label","test","true"
"null","","audio-keyboard-response","239","2791109","0.0-13.0-3.46","a","COGS219_2020_27","Sounds/correct.wav","null","1","","","","","","",""
"null","","audio-keyboard-response","240","2791813","0.0-13.0-0.47","a","COGS219_2020_27","Sounds/dog_sound.wav","null","1","","","","","","",""
"null","","html-keyboard-response","241","2792804","0.0-13.0-1.47","a","COGS219_2020_27","<p style=""font-size: 48px;"">+</p>","null","1","","","","","","",""
"768.7199999345466","","image-keyboard-response","242","2793574","0.0-13.0-2.47","a","COGS219_2020_27","Images/frog_3.png","76","1","1582589985685","non-match","frog","dog","sound","test","true"
"null","","audio-keyboard-response","243","2795578","0.0-13.0-3.47","a","COGS219_2020_27","Sounds/correct.wav","null","1","","","","","","",""
"null","","audio-keyboard-response","244","2796693","0.0-13.0-0.48","a","COGS219_2020_27","Sounds/motorcycle_label.wav","null","1","","","","","","",""
"null","","html-keyboard-response","245","2797688","0.0-13.0-1.48","a","COGS219_2020_27","<p style=""font-size: 48px;"">+</p>","null","1","","","","","","",""
"709.2849999899045","","image-keyboard-response","246","2798398","0.0-13.0-2.48","a","COGS219_2020_27","Images/motorcycle_orig.png","65","1","1582589990568","match","motorcycle","motorcycle","label","test","true"
"null","","audio-keyboard-response","247","2800416","0.0-13.0-3.48","a","COGS219_2020_27","Sounds/correct.wav","null","1","","","","","","",""
"null","","audio-keyboard-response","248","2801333","0.0-13.0-0.49","a","COGS219_2020_27","Sounds/frog_sound.wav","null","1","","","","","","",""
"null","","html-keyboard-response","249","2802321","0.0-13.0-1.49","a","COGS219_2020_27","<p style=""font-size: 48px;"">+</p>","null","1","","","","","","",""
"628.0249999836087","","image-keyboard-response","250","2802950","0.0-13.0-2.49","a","COGS219_2020_27","Images/cow_cartoon.png","76","1","1582589995201","non-match","cow","frog","sound","test","true"
"null","","audio-keyboard-response","251","2804956","0.0-13.0-3.49","a","COGS219_2020_27","Sounds/correct.wav","null","1","","","","","","",""
"null","","audio-keyboard-response","252","2805613","0.0-13.0-0.50","a","COGS219_2020_27","Sounds/dog_label.wav","null","1","","","","","","",""
"null","","html-keyboard-response","253","2806605","0.0-13.0-1.50","a","COGS219_2020_27","<p style=""font-size: 48px;"">+</p>","null","1","","","","","","",""
"776.3549999799579","","image-keyboard-response","254","2807382","0.0-13.0-2.50","a","COGS219_2020_27","Images/motorcycle_2.png","76","1","1582589999485","non-match","motorcycle","dog","label","test","true"
"null","","audio-keyboard-response","255","2809395","0.0-13.0-3.50","a","COGS219_2020_27","Sounds/correct.wav","null","1","","","","","","",""
"null","","audio-keyboard-response","256","2810233","0.0-13.0-0.51","a","COGS219_2020_27","Sounds/cat_sound.wav","null","1","","","","","","",""
"null","","html-keyboard-response","257","2811221","0.0-13.0-1.51","a","COGS219_2020_27","<p style=""font-size: 48px;"">+</p>","null","1","","","","","","",""
"663.4049999993294","","image-keyboard-response","258","2811886","0.0-13.0-2.51","a","COGS219_2020_27","Images/cat_3.png","76","1","1582590004101","match","cat","cat","sound","test","false"
"null","","audio-keyboard-response","259","2813890","0.0-13.0-3.51","a","COGS219_2020_27","Sounds/incorrect.wav","null","1","","","","","","",""
"null","","audio-keyboard-response","260","2814973","0.0-13.0-0.52","a","COGS219_2020_27","Sounds/car_sound.wav","null","1","","","","","","",""
"null","","html-keyboard-response","261","2815971","0.0-13.0-1.52","a","COGS219_2020_27","<p style=""font-size: 48px;"">+</p>","null","1","","","","","","",""
"657.9650000203401","","image-keyboard-response","262","2816630","0.0-13.0-2.52","a","COGS219_2020_27","Images/whistle_3.png","76","1","1582590008851","non-match","whistle","car","sound","test","true"
"null","","audio-keyboard-response","263","2818644","0.0-13.0-3.52","a","COGS219_2020_27","Sounds/correct.wav","null","1","","","","","","",""
"null","","audio-keyboard-response","264","2819533","0.0-13.0-0.53","a","COGS219_2020_27","Sounds/frog_label.wav","null","1","","","","","","",""
"null","","html-keyboard-response","265","2820522","0.0-13.0-1.53","a","COGS219_2020_27","<p style=""font-size: 48px;"">+</p>","null","1","","","","","","",""
"507.52499990630895","","image-keyboard-response","266","2821030","0.0-13.0-2.53","a","COGS219_2020_27","Images/frog_3.png","65","1","1582590013402","match","frog","frog","label","test","true"
"null","","audio-keyboard-response","267","2823034","0.0-13.0-3.53","a","COGS219_2020_27","Sounds/correct.wav","null","1","","","","","","",""
"null","","audio-keyboard-response","268","2824313","0.0-13.0-0.54","a","COGS219_2020_27","Sounds/train_label.wav","null","1","","","","","","",""
"null","","html-keyboard-response","269","2825305","0.0-13.0-1.54","a","COGS219_2020_27","<p style=""font-size: 48px;"">+</p>","null","1","","","","","","",""
"676.244999980554","","image-keyboard-response","270","2825983","0.0-13.0-2.54","a","COGS219_2020_27","Images/frog_2.png","65","1","1582590018185","non-match","frog","train","label","test","false"
"null","","audio-keyboard-response","271","2827988","0.0-13.0-3.54","a","COGS219_2020_27","Sounds/incorrect.wav","null","1","","","","","","",""
"null","","audio-keyboard-response","272","2828573","0.0-13.0-0.55","a","COGS219_2020_27","Sounds/gun_sound.wav","null","1","","","","","","",""
"null","","html-keyboard-response","273","2829572","0.0-13.0-1.55","a","COGS219_2020_27","<p style=""font-size: 48px;"">+</p>","null","1","","","","","","",""
"497.69499991089106","","image-keyboard-response","274","2830071","0.0-13.0-2.55","a","COGS219_2020_27","Images/gun_2.png","65","1","1582590022452","match","gun","gun","sound","test","true"
"null","","audio-keyboard-response","275","2832082","0.0-13.0-3.55","a","COGS219_2020_27","Sounds/correct.wav","null","1","","","","","","",""
"null","","audio-keyboard-response","276","2832773","0.0-13.0-0.56","a","COGS219_2020_27","Sounds/rooster_sound.wav","null","1","","","","","","",""
"null","","html-keyboard-response","277","2833772","0.0-13.0-1.56","a","COGS219_2020_27","<p style=""font-size: 48px;"">+</p>","null","1","","","","","","",""
"609.6850000321865","","image-keyboard-response","278","2834383","0.0-13.0-2.56","a","COGS219_2020_27","Images/rooster_cartoon.png","65","1","1582590026652","match","rooster","rooster","sound","test","true"
"null","","audio-keyboard-response","279","2836391","0.0-13.0-3.56","a","COGS219_2020_27","Sounds/correct.wav","null","1","","","","","","",""
"null","","audio-keyboard-response","280","2837093","0.0-13.0-0.57","a","COGS219_2020_27","Sounds/rooster_label.wav","null","1","","","","","","",""
"null","","html-keyboard-response","281","2838089","0.0-13.0-1.57","a","COGS219_2020_27","<p style=""font-size: 48px;"">+</p>","null","1","","","","","","",""
"620.8999999798834","","image-keyboard-response","282","2838711","0.0-13.0-2.57","a","COGS219_2020_27","Images/frog_cartoon.png","76","1","1582590030969","non-match","frog","rooster","label","test","true"
"null","","audio-keyboard-response","283","2840724","0.0-13.0-3.57","a","COGS219_2020_27","Sounds/correct.wav","null","1","","","","","","",""
"null","","audio-keyboard-response","284","2841553","0.0-13.0-0.58","a","COGS219_2020_27","Sounds/cat_sound.wav","null","1","","","","","","",""
"null","","html-keyboard-response","285","2842556","0.0-13.0-1.58","a","COGS219_2020_27","<p style=""font-size: 48px;"">+</p>","null","1","","","","","","",""
"690.4949999880046","","image-keyboard-response","286","2843247","0.0-13.0-2.58","a","COGS219_2020_27","Images/dog_cartoon.png","76","1","1582590035436","non-match","dog","cat","sound","test","true"
"null","","audio-keyboard-response","287","2845252","0.0-13.0-3.58","a","COGS219_2020_27","Sounds/correct.wav","null","1","","","","","","",""
"null","","audio-keyboard-response","288","2845933","0.0-13.0-0.59","a","COGS219_2020_27","Sounds/rooster_label.wav","null","1","","","","","","",""
"null","","html-keyboard-response","289","2846922","0.0-13.0-1.59","a","COGS219_2020_27","<p style=""font-size: 48px;"">+</p>","null","1","","","","","","",""
"475.52000009454787","","image-keyboard-response","290","2847399","0.0-13.0-2.59","a","COGS219_2020_27","Images/rooster_orig.png","65","1","1582590039802","match","rooster","rooster","label","test","true"
"null","","audio-keyboard-response","291","2849403","0.0-13.0-3.59","a","COGS219_2020_27","Sounds/correct.wav","null","1","","","","","","",""
"null","","audio-keyboard-response","292","2850473","0.0-13.0-0.60","a","COGS219_2020_27","Sounds/car_label.wav","null","1","","","","","","",""
"null","","html-keyboard-response","293","2851472","0.0-13.0-1.60","a","COGS219_2020_27","<p style=""font-size: 48px;"">+</p>","null","1","","","","","","",""
"701.05000003241","","image-keyboard-response","294","2852175","0.0-13.0-2.60","a","COGS219_2020_27","Images/cow_1.png","76","1","1582590044352","non-match","cow","car","label","test","true"
"null","","audio-keyboard-response","295","2854184","0.0-13.0-3.60","a","COGS219_2020_27","Sounds/correct.wav","null","1","","","","","","",""
"null","","audio-keyboard-response","296","2855013","0.0-13.0-0.61","a","COGS219_2020_27","Sounds/cat_label.wav","null","1","","","","","","",""
"null","","html-keyboard-response","297","2856006","0.0-13.0-1.61","a","COGS219_2020_27","<p style=""font-size: 48px;"">+</p>","null","1","","","","","","",""
"528.0899999197572","","image-keyboard-response","298","2856535","0.0-13.0-2.61","a","COGS219_2020_27","Images/rooster_2.png","76","1","1582590048886","non-match","rooster","cat","label","test","true"
"null","","audio-keyboard-response","299","2858548","0.0-13.0-3.61","a","COGS219_2020_27","Sounds/correct.wav","null","1","","","","","","",""
"null","","audio-keyboard-response","300","2859133","0.0-13.0-0.62","a","COGS219_2020_27","Sounds/gun_label.wav","null","1","","","","","","",""
"null","","html-keyboard-response","301","2860122","0.0-13.0-1.62","a","COGS219_2020_27","<p style=""font-size: 48px;"">+</p>","null","1","","","","","","",""
"619.3500000517815","","image-keyboard-response","302","2860743","0.0-13.0-2.62","a","COGS219_2020_27","Images/cow_orig.png","76","1","1582590053002","non-match","cow","gun","label","test","true"
"null","","audio-keyboard-response","303","2862758","0.0-13.0-3.62","a","COGS219_2020_27","Sounds/correct.wav","null","1","","","","","","",""
"null","","audio-keyboard-response","304","2863453","0.0-13.0-0.63","a","COGS219_2020_27","Sounds/whistle_sound.wav","null","1","","","","","","",""
"null","","html-keyboard-response","305","2864456","0.0-13.0-1.63","a","COGS219_2020_27","<p style=""font-size: 48px;"">+</p>","null","1","","","","","","",""
"573.8649999257177","","image-keyboard-response","306","2865031","0.0-13.0-2.63","a","COGS219_2020_27","Images/whistle_cartoon.png","76","1","1582590057336","match","whistle","whistle","sound","test","false"
"null","","audio-keyboard-response","307","2867043","0.0-13.0-3.63","a","COGS219_2020_27","Sounds/incorrect.wav","null","1","","","","","","",""
"null","","audio-keyboard-response","308","2867733","0.0-13.0-0.64","a","COGS219_2020_27","Sounds/rooster_label.wav","null","1","","","","","","",""
"null","","html-keyboard-response","309","2868722","0.0-13.0-1.64","a","COGS219_2020_27","<p style=""font-size: 48px;"">+</p>","null","1","","","","","","",""
"483.37499995250255","","image-keyboard-response","310","2869207","0.0-13.0-2.64","a","COGS219_2020_27","Images/whistle_2.png","76","1","1582590061602","non-match","whistle","rooster","label","test","true"
"null","","audio-keyboard-response","311","2871218","0.0-13.0-3.64","a","COGS219_2020_27","Sounds/correct.wav","null","1","","","","","","",""
"null","","audio-keyboard-response","312","2872053","0.0-13.0-0.65","a","COGS219_2020_27","Sounds/cat_sound.wav","null","1","","","","","","",""
"null","","html-keyboard-response","313","2873056","0.0-13.0-1.65","a","COGS219_2020_27","<p style=""font-size: 48px;"">+</p>","null","1","","","","","","",""
"461.92999999038875","","image-keyboard-response","314","2873519","0.0-13.0-2.65","a","COGS219_2020_27","Images/cow_2.png","76","1","1582590065936","non-match","cow","cat","sound","test","true"
"null","","audio-keyboard-response","315","2875527","0.0-13.0-3.65","a","COGS219_2020_27","Sounds/correct.wav","null","1","","","","","","",""
"null","","audio-keyboard-response","316","2876813","0.0-13.0-0.66","a","COGS219_2020_27","Sounds/train_label.wav","null","1","","","","","","",""
"null","","html-keyboard-response","317","2877806","0.0-13.0-1.66","a","COGS219_2020_27","<p style=""font-size: 48px;"">+</p>","null","1","","","","","","",""
"591.7650000192225","","image-keyboard-response","318","2878399","0.0-13.0-2.66","a","COGS219_2020_27","Images/train_1.png","76","1","1582590070686","match","train","train","label","test","false"
"null","","audio-keyboard-response","319","2880411","0.0-13.0-3.66","a","COGS219_2020_27","Sounds/incorrect.wav","null","1","","","","","","",""
"null","","audio-keyboard-response","320","2881494","0.0-13.0-0.67","a","COGS219_2020_27","Sounds/car_label.wav","null","1","","","","","","",""
"null","","html-keyboard-response","321","2882490","0.0-13.0-1.67","a","COGS219_2020_27","<p style=""font-size: 48px;"">+</p>","null","1","","","","","","",""
"428.68000001180917","","image-keyboard-response","322","2882919","0.0-13.0-2.67","a","COGS219_2020_27","Images/car_3.png","65","1","1582590075370","match","car","car","label","test","true"
"null","","audio-keyboard-response","323","2884928","0.0-13.0-3.67","a","COGS219_2020_27","Sounds/correct.wav","null","1","","","","","","",""
"null","","audio-keyboard-response","324","2885634","0.0-13.0-0.68","a","COGS219_2020_27","Sounds/rooster_sound.wav","null","1","","","","","","",""
"null","","html-keyboard-response","325","2886623","0.0-13.0-1.68","a","COGS219_2020_27","<p style=""font-size: 48px;"">+</p>","null","1","","","","","","",""
"775.0549999764189","","image-keyboard-response","326","2887399","0.0-13.0-2.68","a","COGS219_2020_27","Images/car_orig.png","76","1","1582590079503","non-match","car","rooster","sound","test","true"
"null","","audio-keyboard-response","327","2889414","0.0-13.0-3.68","a","COGS219_2020_27","Sounds/correct.wav","null","1","","","","","","",""
"null","","audio-keyboard-response","328","2890314","0.0-13.0-0.69","a","COGS219_2020_27","Sounds/frog_sound.wav","null","1","","","","","","",""
"null","","html-keyboard-response","329","2891306","0.0-13.0-1.69","a","COGS219_2020_27","<p style=""font-size: 48px;"">+</p>","null","1","","","","","","",""
"691.5700000245124","","image-keyboard-response","330","2891999","0.0-13.0-2.69","a","COGS219_2020_27","Images/cat_cartoon.png","76","1","1582590084187","non-match","cat","frog","sound","test","true"
"null","","audio-keyboard-response","331","2894003","0.0-13.0-3.69","a","COGS219_2020_27","Sounds/correct.wav","null","1","","","","","","",""
"null","","audio-keyboard-response","332","2895294","0.0-13.0-0.70","a","COGS219_2020_27","Sounds/train_sound.wav","null","1","","","","","","",""
"null","","html-keyboard-response","333","2896290","0.0-13.0-1.70","a","COGS219_2020_27","<p style=""font-size: 48px;"">+</p>","null","1","","","","","","",""
"652.5550000369549","","image-keyboard-response","334","2896943","0.0-13.0-2.70","a","COGS219_2020_27","Images/train_3.png","76","1","1582590089170","match","train","train","sound","test","false"
"null","","audio-keyboard-response","335","2898956","0.0-13.0-3.70","a","COGS219_2020_27","Sounds/incorrect.wav","null","1","","","","","","",""
"null","","audio-keyboard-response","336","2900034","0.0-13.0-0.71","a","COGS219_2020_27","Sounds/car_sound.wav","null","1","","","","","","",""
"null","","html-keyboard-response","337","2901040","0.0-13.0-1.71","a","COGS219_2020_27","<p style=""font-size: 48px;"">+</p>","null","1","","","","","","",""
"918.3950000442564","","image-keyboard-response","338","2901959","0.0-13.0-2.71","a","COGS219_2020_27","Images/motorcycle_3.png","65","1","1582590093920","non-match","motorcycle","car","sound","test","false"
"null","","audio-keyboard-response","339","2903969","0.0-13.0-3.71","a","COGS219_2020_27","Sounds/incorrect.wav","null","1","","","","","","",""
"null","","audio-keyboard-response","340","2905254","0.0-13.0-0.72","a","COGS219_2020_27","Sounds/train_label.wav","null","1","","","","","","",""
"null","","html-keyboard-response","341","2906257","0.0-13.0-1.72","a","COGS219_2020_27","<p style=""font-size: 48px;"">+</p>","null","1","","","","","","",""
"516.8800000101328","","image-keyboard-response","342","2906775","0.0-13.0-2.72","a","COGS219_2020_27","Images/train_2.png","65","1","1582590099137","match","train","train","label","test","true"
"null","","audio-keyboard-response","343","2908782","0.0-13.0-3.72","a","COGS219_2020_27","Sounds/correct.wav","null","1","","","","","","",""
"null","","audio-keyboard-response","344","2909834","0.0-13.0-0.73","a","COGS219_2020_27","Sounds/car_sound.wav","null","1","","","","","","",""
"null","","html-keyboard-response","345","2910823","0.0-13.0-1.73","a","COGS219_2020_27","<p style=""font-size: 48px;"">+</p>","null","1","","","","","","",""
"911.0599999548867","","image-keyboard-response","346","2911735","0.0-13.0-2.73","a","COGS219_2020_27","Images/car_orig.png","65","1","1582590103704","match","car","car","sound","test","true"
"null","","audio-keyboard-response","347","2913752","0.0-13.0-3.73","a","COGS219_2020_27","Sounds/correct.wav","null","1","","","","","","",""
"null","","audio-keyboard-response","348","2914814","0.0-13.0-0.74","a","COGS219_2020_27","Sounds/car_sound.wav","null","1","","","","","","",""
"null","","html-keyboard-response","349","2915807","0.0-13.0-1.74","a","COGS219_2020_27","<p style=""font-size: 48px;"">+</p>","null","1","","","","","","",""
"511.3550000824034","","image-keyboard-response","350","2916319","0.0-13.0-2.74","a","COGS219_2020_27","Images/car_2.png","65","1","1582590108687","match","car","car","sound","test","true"
"null","","audio-keyboard-response","351","2918332","0.0-13.0-3.74","a","COGS219_2020_27","Sounds/correct.wav","null","1","","","","","","",""
"null","","audio-keyboard-response","352","2919474","0.0-13.0-0.75","a","COGS219_2020_27","Sounds/motorcycle_label.wav","null","1","","","","","","",""
"null","","html-keyboard-response","353","2920473","0.0-13.0-1.75","a","COGS219_2020_27","<p style=""font-size: 48px;"">+</p>","null","1","","","","","","",""
"580.7499999646097","","image-keyboard-response","354","2921055","0.0-13.0-2.75","a","COGS219_2020_27","Images/motorcycle_2.png","65","1","1582590113354","match","motorcycle","motorcycle","label","test","true"
"null","","audio-keyboard-response","355","2923061","0.0-13.0-3.75","a","COGS219_2020_27","Sounds/correct.wav","null","1","","","","","","",""
"null","","audio-keyboard-response","356","2923754","0.0-13.0-0.76","a","COGS219_2020_27","Sounds/whistle_label.wav","null","1","","","","","","",""
"null","","html-keyboard-response","357","2924757","0.0-13.0-1.76","a","COGS219_2020_27","<p style=""font-size: 48px;"">+</p>","null","1","","","","","","",""
"521.4350000023842","","image-keyboard-response","358","2925279","0.0-13.0-2.76","a","COGS219_2020_27","Images/cat_orig.png","76","1","1582590117637","non-match","cat","whistle","label","test","true"
"null","","audio-keyboard-response","359","2927282","0.0-13.0-3.76","a","COGS219_2020_27","Sounds/correct.wav","null","1","","","","","","",""
"null","","audio-keyboard-response","360","2928114","0.0-13.0-0.77","a","COGS219_2020_27","Sounds/cat_label.wav","null","1","","","","","","",""
"null","","html-keyboard-response","361","2929107","0.0-13.0-1.77","a","COGS219_2020_27","<p style=""font-size: 48px;"">+</p>","null","1","","","","","","",""
"507.48000002931803","","image-keyboard-response","362","2929615","0.0-13.0-2.77","a","COGS219_2020_27","Images/cat_cartoon.png","65","1","1582590121987","match","cat","cat","label","test","true"
"null","","audio-keyboard-response","363","2931632","0.0-13.0-3.77","a","COGS219_2020_27","Sounds/correct.wav","null","1","","","","","","",""
"null","","audio-keyboard-response","364","2932334","0.0-13.0-0.78","a","COGS219_2020_27","Sounds/rooster_label.wav","null","1","","","","","","",""
"null","","html-keyboard-response","365","2933323","0.0-13.0-1.78","a","COGS219_2020_27","<p style=""font-size: 48px;"">+</p>","null","1","","","","","","",""
"786.6500000236556","","image-keyboard-response","366","2934111","0.0-13.0-2.78","a","COGS219_2020_27","Images/rooster_2.png","65","1","1582590126203","match","rooster","rooster","label","test","true"
"null","","audio-keyboard-response","367","2936114","0.0-13.0-3.78","a","COGS219_2020_27","Sounds/correct.wav","null","1","","","","","","",""
"null","","audio-keyboard-response","368","2936814","0.0-13.0-0.79","a","COGS219_2020_27","Sounds/dog_sound.wav","null","1","","","","","","",""
"null","","html-keyboard-response","369","2937807","0.0-13.0-1.79","a","COGS219_2020_27","<p style=""font-size: 48px;"">+</p>","null","1","","","","","","",""
"415.50000000279397","","image-keyboard-response","370","2938223","0.0-13.0-2.79","a","COGS219_2020_27","Images/dog_orig.png","65","1","1582590130687","match","dog","dog","sound","test","true"
"null","","audio-keyboard-response","371","2940241","0.0-13.0-3.79","a","COGS219_2020_27","Sounds/correct.wav","null","1","","","","","","",""
"null","","audio-keyboard-response","372","2940814","0.0-13.0-0.80","a","COGS219_2020_27","Sounds/gun_label.wav","null","1","","","","","","",""
"null","","html-keyboard-response","373","2941807","0.0-13.0-1.80","a","COGS219_2020_27","<p style=""font-size: 48px;"">+</p>","null","1","","","","","","",""
"511.12499996088445","","image-keyboard-response","374","2942319","0.0-13.0-2.80","a","COGS219_2020_27","Images/gun_1.png","65","1","1582590134687","match","gun","gun","label","test","true"
"null","","audio-keyboard-response","375","2944334","0.0-13.0-3.80","a","COGS219_2020_27","Sounds/correct.wav","null","1","","","","","","",""
"null","","audio-keyboard-response","376","2944913","0.0-13.0-0.81","a","COGS219_2020_27","Sounds/gun_sound.wav","null","1","","","","","","",""
"null","","html-keyboard-response","377","2945907","0.0-13.0-1.81","a","COGS219_2020_27","<p style=""font-size: 48px;"">+</p>","null","1","","","","","","",""
"675.275000045076","","image-keyboard-response","378","2946583","0.0-13.0-2.81","a","COGS219_2020_27","Images/car_2.png","76","1","1582590138787","non-match","car","gun","sound","test","true"
"null","","audio-keyboard-response","379","2948588","0.0-13.0-3.81","a","COGS219_2020_27","Sounds/correct.wav","null","1","","","","","","",""
"null","","audio-keyboard-response","380","2949853","0.0-13.0-0.82","a","COGS219_2020_27","Sounds/train_label.wav","null","1","","","","","","",""
"null","","html-keyboard-response","381","2950857","0.0-13.0-1.82","a","COGS219_2020_27","<p style=""font-size: 48px;"">+</p>","null","1","","","","","","",""
"565.2949999785051","","image-keyboard-response","382","2951423","0.0-13.0-2.82","a","COGS219_2020_27","Images/car_cartoon.png","76","1","1582590143737","non-match","car","train","label","test","true"
"null","","audio-keyboard-response","383","2953429","0.0-13.0-3.82","a","COGS219_2020_27","Sounds/correct.wav","null","1","","","","","","",""
"null","","audio-keyboard-response","384","2953974","0.0-13.0-0.83","a","COGS219_2020_27","Sounds/gun_sound.wav","null","1","","","","","","",""
"null","","html-keyboard-response","385","2954973","0.0-13.0-1.83","a","COGS219_2020_27","<p style=""font-size: 48px;"">+</p>","null","1","","","","","","",""
"480.42500007431954","","image-keyboard-response","386","2955455","0.0-13.0-2.83","a","COGS219_2020_27","Images/gun_cartoon.png","65","1","1582590147854","match","gun","gun","sound","test","true"
"null","","audio-keyboard-response","387","2957469","0.0-13.0-3.83","a","COGS219_2020_27","Sounds/correct.wav","null","1","","","","","","",""
"null","","audio-keyboard-response","388","2958174","0.0-13.0-0.84","a","COGS219_2020_27","Sounds/whistle_sound.wav","null","1","","","","","","",""
"null","","html-keyboard-response","389","2959173","0.0-13.0-1.84","a","COGS219_2020_27","<p style=""font-size: 48px;"">+</p>","null","1","","","","","","",""
"664.589999942109","","image-keyboard-response","390","2959839","0.0-13.0-2.84","a","COGS219_2020_27","Images/frog_orig.png","76","1","1582590152054","non-match","frog","whistle","sound","test","true"
"null","","audio-keyboard-response","391","2961854","0.0-13.0-3.84","a","COGS219_2020_27","Sounds/correct.wav","null","1","","","","","","",""
"null","","audio-keyboard-response","392","2963154","0.0-13.0-0.85","a","COGS219_2020_27","Sounds/train_sound.wav","null","1","","","","","","",""
"null","","html-keyboard-response","393","2964157","0.0-13.0-1.85","a","COGS219_2020_27","<p style=""font-size: 48px;"">+</p>","null","1","","","","","","",""
"774.7449999442324","","image-keyboard-response","394","2964935","0.0-13.0-2.85","a","COGS219_2020_27","Images/train_cartoon.png","76","1","1582590157037","match","train","train","sound","test","false"
"null","","audio-keyboard-response","395","2966948","0.0-13.0-3.85","a","COGS219_2020_27","Sounds/incorrect.wav","null","1","","","","","","",""
"null","","audio-keyboard-response","396","2967534","0.0-13.0-0.86","a","COGS219_2020_27","Sounds/gun_label.wav","null","1","","","","","","",""
"null","","html-keyboard-response","397","2968524","0.0-13.0-1.86","a","COGS219_2020_27","<p style=""font-size: 48px;"">+</p>","null","1","","","","","","",""
"738.1599999498576","","image-keyboard-response","398","2969263","0.0-13.0-2.86","a","COGS219_2020_27","Images/train_cartoon.png","76","1","1582590161404","non-match","train","gun","label","test","true"
"null","","audio-keyboard-response","399","2971265","0.0-13.0-3.86","a","COGS219_2020_27","Sounds/correct.wav","null","1","","","","","","",""
"null","","audio-keyboard-response","400","2972374","0.0-13.0-0.87","a","COGS219_2020_27","Sounds/motorcycle_sound.wav","null","1","","","","","","",""
"null","","html-keyboard-response","401","2973374","0.0-13.0-1.87","a","COGS219_2020_27","<p style=""font-size: 48px;"">+</p>","null","1","","","","","","",""
"632.2699999436736","","image-keyboard-response","402","2974007","0.0-13.0-2.87","a","COGS219_2020_27","Images/motorcycle_cartoon.png","76","1","1582590166254","match","motorcycle","motorcycle","sound","test","false"
"null","","audio-keyboard-response","403","2976024","0.0-13.0-3.87","a","COGS219_2020_27","Sounds/incorrect.wav","null","1","","","","","","",""
"null","","audio-keyboard-response","404","2976714","0.0-13.0-0.88","a","COGS219_2020_27","Sounds/whistle_label.wav","null","1","","","","","","",""
"null","","html-keyboard-response","405","2977707","0.0-13.0-1.88","a","COGS219_2020_27","<p style=""font-size: 48px;"">+</p>","null","1","","","","","","",""
"842.9949999554083","","image-keyboard-response","406","2978551","0.0-13.0-2.88","a","COGS219_2020_27","Images/whistle_3.png","65","1","1582590170587","match","whistle","whistle","label","test","true"
"null","","audio-keyboard-response","407","2980556","0.0-13.0-3.88","a","COGS219_2020_27","Sounds/correct.wav","null","1","","","","","","",""
"null","","audio-keyboard-response","408","2981574","0.0-13.0-0.89","a","COGS219_2020_27","Sounds/cow_label.wav","null","1","","","","","","",""
"null","","html-keyboard-response","409","2982574","0.0-13.0-1.89","a","COGS219_2020_27","<p style=""font-size: 48px;"">+</p>","null","1","","","","","","",""
"679.9449999816716","","image-keyboard-response","410","2983255","0.0-13.0-2.89","a","COGS219_2020_27","Images/cow_cartoon.png","65","1","1582590175454","match","cow","cow","label","test","true"
"null","","audio-keyboard-response","411","2985271","0.0-13.0-3.89","a","COGS219_2020_27","Sounds/correct.wav","null","1","","","","","","",""
"null","","audio-keyboard-response","412","2986174","0.0-13.0-0.90","a","COGS219_2020_27","Sounds/frog_sound.wav","null","1","","","","","","",""
"null","","html-keyboard-response","413","2987174","0.0-13.0-1.90","a","COGS219_2020_27","<p style=""font-size: 48px;"">+</p>","null","1","","","","","","",""
"647.6849999744445","","image-keyboard-response","414","2987823","0.0-13.0-2.90","a","COGS219_2020_27","Images/motorcycle_orig.png","76","1","1582590180054","non-match","motorcycle","frog","sound","test","true"
"null","","audio-keyboard-response","415","2989830","0.0-13.0-3.90","a","COGS219_2020_27","Sounds/correct.wav","null","1","","","","","","",""
"null","","audio-keyboard-response","416","2990814","0.0-13.0-0.91","a","COGS219_2020_27","Sounds/cow_label.wav","null","1","","","","","","",""
"null","","html-keyboard-response","417","2991807","0.0-13.0-1.91","a","COGS219_2020_27","<p style=""font-size: 48px;"">+</p>","null","1","","","","","","",""
"742.7850000094622","","image-keyboard-response","418","2992551","0.0-13.0-2.91","a","COGS219_2020_27","Images/cat_2.png","76","1","1582590184687","non-match","cat","cow","label","test","true"
"null","","audio-keyboard-response","419","2994568","0.0-13.0-3.91","a","COGS219_2020_27","Sounds/correct.wav","null","1","","","","","","",""
"null","","audio-keyboard-response","420","2995414","0.0-13.0-0.92","a","COGS219_2020_27","Sounds/cat_sound.wav","null","1","","","","","","",""
"null","","html-keyboard-response","421","2996407","0.0-13.0-1.92","a","COGS219_2020_27","<p style=""font-size: 48px;"">+</p>","null","1","","","","","","",""
"598.5700000310317","","image-keyboard-response","422","2997007","0.0-13.0-2.92","a","COGS219_2020_27","Images/motorcycle_cartoon.png","76","1","1582590189287","non-match","motorcycle","cat","sound","test","true"
"null","","audio-keyboard-response","423","2999013","0.0-13.0-3.92","a","COGS219_2020_27","Sounds/correct.wav","null","1","","","","","","",""
"null","","audio-keyboard-response","424","2999594","0.0-13.0-0.93","a","COGS219_2020_27","Sounds/gun_label.wav","null","1","","","","","","",""
"null","","html-keyboard-response","425","3000591","0.0-13.0-1.93","a","COGS219_2020_27","<p style=""font-size: 48px;"">+</p>","null","1","","","","","","",""
"541.5400000056252","","image-keyboard-response","426","3001135","0.0-13.0-2.93","a","COGS219_2020_27","Images/whistle_cartoon.png","76","1","1582590193471","non-match","whistle","gun","label","test","true"
"null","","audio-keyboard-response","427","3003150","0.0-13.0-3.93","a","COGS219_2020_27","Sounds/correct.wav","null","1","","","","","","",""
"null","","audio-keyboard-response","428","3003853","0.0-13.0-0.94","a","COGS219_2020_27","Sounds/whistle_label.wav","null","1","","","","","","",""
"null","","html-keyboard-response","429","3004857","0.0-13.0-1.94","a","COGS219_2020_27","<p style=""font-size: 48px;"">+</p>","null","1","","","","","","",""
"636.5300000179559","","image-keyboard-response","430","3005495","0.0-13.0-2.94","a","COGS219_2020_27","Images/dog_1.png","76","1","1582590197737","non-match","dog","whistle","label","test","true"
"null","","audio-keyboard-response","431","3007510","0.0-13.0-3.94","a","COGS219_2020_27","Sounds/correct.wav","null","1","","","","","","",""
"null","","audio-keyboard-response","432","3008213","0.0-13.0-0.95","a","COGS219_2020_27","Sounds/dog_sound.wav","null","1","","","","","","",""
"null","","html-keyboard-response","433","3009207","0.0-13.0-1.95","a","COGS219_2020_27","<p style=""font-size: 48px;"">+</p>","null","1","","","","","","",""
"789.1250000102445","","image-keyboard-response","434","3009999","0.0-13.0-2.95","a","COGS219_2020_27","Images/dog_2.png","65","1","1582590202088","match","dog","dog","sound","test","true"
"null","","audio-keyboard-response","435","3012015","0.0-13.0-3.95","a","COGS219_2020_27","Sounds/correct.wav","null","1","","","","","","",""
"null","","audio-keyboard-response","436","3013033","0.0-13.0-0.96","a","COGS219_2020_27","Sounds/cow_label.wav","null","1","","","","","","",""
"null","","html-keyboard-response","437","3014024","0.0-13.0-1.96","a","COGS219_2020_27","<p style=""font-size: 48px;"">+</p>","null","1","","","","","","",""
"589.8699999088421","","image-keyboard-response","438","3014615","0.0-13.0-2.96","a","COGS219_2020_27","Images/gun_cartoon.png","76","1","1582590206904","non-match","gun","cow","label","test","true"
"null","","audio-keyboard-response","439","3016629","0.0-13.0-3.96","a","COGS219_2020_27","Sounds/correct.wav","null","1","","","","","","",""
"null","","audio-keyboard-response","440","3017653","0.0-13.0-0.97","a","COGS219_2020_27","Sounds/cow_sound.wav","null","1","","","","","","",""
"null","","html-keyboard-response","441","3018657","0.0-13.0-1.97","a","COGS219_2020_27","<p style=""font-size: 48px;"">+</p>","null","1","","","","","","",""
"548.244999954477","","image-keyboard-response","442","3019207","0.0-13.0-2.97","a","COGS219_2020_27","Images/frog_1.png","76","1","1582590211537","non-match","frog","cow","sound","test","true"
"null","","audio-keyboard-response","443","3021214","0.0-13.0-3.97","a","COGS219_2020_27","Sounds/correct.wav","null","1","","","","","","",""
"null","","audio-keyboard-response","444","3021873","0.0-13.0-0.98","a","COGS219_2020_27","Sounds/dog_label.wav","null","1","","","","","","",""
"null","","html-keyboard-response","445","3022874","0.0-13.0-1.98","a","COGS219_2020_27","<p style=""font-size: 48px;"">+</p>","null","1","","","","","","",""
"611.3850000547245","","image-keyboard-response","446","3023487","0.0-13.0-2.98","a","COGS219_2020_27","Images/dog_cartoon.png","76","1","1582590215754","match","dog","dog","label","test","false"
"null","","audio-keyboard-response","447","3025493","0.0-13.0-3.98","a","COGS219_2020_27","Sounds/incorrect.wav","null","1","","","","","","",""
"null","","audio-keyboard-response","448","3026393","0.0-13.0-0.99","a","COGS219_2020_27","Sounds/frog_label.wav","null","1","","","","","","",""
"null","","html-keyboard-response","449","3027391","0.0-13.0-1.99","a","COGS219_2020_27","<p style=""font-size: 48px;"">+</p>","null","1","","","","","","",""
"631.0550000052899","","image-keyboard-response","450","3028023","0.0-13.0-2.99","a","COGS219_2020_27","Images/frog_2.png","65","1","1582590220271","match","frog","frog","label","test","true"
"null","","audio-keyboard-response","451","3030025","0.0-13.0-3.99","a","COGS219_2020_27","Sounds/correct.wav","null","1","","","","","","",""
"8556.989999953657","","html-keyboard-response","452","3038583","0.0-14.0","a","COGS219_2020_27","<p>Please take this opportunity to rest your eyes before proceeding.</p><p>When ready, press the enter key to continue to the next set of trials.</p>","13","","","","","","","",""
"null","","audio-keyboard-response","453","3041567","0.0-15.0-0.0","a","COGS219_2020_27","Sounds/cow_label.wav","null","2","","","","","","",""
"null","","html-keyboard-response","454","3042557","0.0-15.0-1.0","a","COGS219_2020_27","<p style=""font-size: 48px;"">+</p>","null","2","","","","","","",""
"528.1400000676513","","image-keyboard-response","455","3043087","0.0-15.0-2.0","a","COGS219_2020_27","Images/cow_cartoon.png","65","2","1582590235438","match","cow","cow","label","test","true"
"null","","audio-keyboard-response","456","3045099","0.0-15.0-3.0","a","COGS219_2020_27","Sounds/correct.wav","null","2","","","","","","",""
"null","","audio-keyboard-response","457","3046087","0.0-15.0-0.1","a","COGS219_2020_27","Sounds/cow_label.wav","null","2","","","","","","",""
"null","","html-keyboard-response","458","3047091","0.0-15.0-1.1","a","COGS219_2020_27","<p style=""font-size: 48px;"">+</p>","null","2","","","","","","",""
"658.739999984391","","image-keyboard-response","459","3047751","0.0-15.0-2.1","a","COGS219_2020_27","Images/cat_orig.png","76","2","1582590239971","non-match","cat","cow","label","test","true"
"null","","audio-keyboard-response","460","3049756","0.0-15.0-3.1","a","COGS219_2020_27","Sounds/correct.wav","null","2","","","","","","",""
"null","","audio-keyboard-response","461","3050447","0.0-15.0-0.2","a","COGS219_2020_27","Sounds/whistle_sound.wav","null","2","","","","","","",""
"null","","html-keyboard-response","462","3051441","0.0-15.0-1.2","a","COGS219_2020_27","<p style=""font-size: 48px;"">+</p>","null","2","","","","","","",""
"524.8699999647215","","image-keyboard-response","463","3051967","0.0-15.0-2.2","a","COGS219_2020_27","Images/motorcycle_2.png","76","2","1582590244321","non-match","motorcycle","whistle","sound","test","true"
"null","","audio-keyboard-response","464","3053983","0.0-15.0-3.2","a","COGS219_2020_27","Sounds/correct.wav","null","2","","","","","","",""
"null","","audio-keyboard-response","465","3054827","0.0-15.0-0.3","a","COGS219_2020_27","Sounds/cat_label.wav","null","2","","","","","","",""
"null","","html-keyboard-response","466","3055824","0.0-15.0-1.3","a","COGS219_2020_27","<p style=""font-size: 48px;"">+</p>","null","2","","","","","","",""
"589.2100000055507","","image-keyboard-response","467","3056415","0.0-15.0-2.3","a","COGS219_2020_27","Images/cat_cartoon.png","65","2","1582590248704","match","cat","cat","label","test","true"
"null","","audio-keyboard-response","468","3058429","0.0-15.0-3.3","a","COGS219_2020_27","Sounds/correct.wav","null","2","","","","","","",""
"null","","audio-keyboard-response","469","3059427","0.0-15.0-0.4","a","COGS219_2020_27","Sounds/cow_label.wav","null","2","","","","","","",""
"null","","html-keyboard-response","470","3060425","0.0-15.0-1.4","a","COGS219_2020_27","<p style=""font-size: 48px;"">+</p>","null","2","","","","","","",""
"589.0299999155104","","image-keyboard-response","471","3061015","0.0-15.0-2.4","a","COGS219_2020_27","Images/rooster_orig.png","76","2","1582590253305","non-match","rooster","cow","label","test","true"
"null","","audio-keyboard-response","472","3063025","0.0-15.0-3.4","a","COGS219_2020_27","Sounds/correct.wav","null","2","","","","","","",""
"null","","audio-keyboard-response","473","3064162","0.0-15.0-0.5","a","COGS219_2020_27","Sounds/motorcycle_label.wav","null","2","","","","","","",""
"null","","html-keyboard-response","474","3065152","0.0-15.0-1.5","a","COGS219_2020_27","<p style=""font-size: 48px;"">+</p>","null","2","","","","","","",""
"656.1850000871345","","image-keyboard-response","475","3065809","0.0-15.0-2.5","a","COGS219_2020_27","Images/motorcycle_cartoon.png","76","2","1582590258032","match","motorcycle","motorcycle","label","test","false"
"null","","audio-keyboard-response","476","3067821","0.0-15.0-3.5","a","COGS219_2020_27","Sounds/incorrect.wav","null","2","","","","","","",""
"null","","audio-keyboard-response","477","3068522","0.0-15.0-0.6","a","COGS219_2020_27","Sounds/rooster_sound.wav","null","2","","","","","","",""
"null","","html-keyboard-response","478","3069519","0.0-15.0-1.6","a","COGS219_2020_27","<p style=""font-size: 48px;"">+</p>","null","2","","","","","","",""
"633.1400000490248","","image-keyboard-response","479","3070153","0.0-15.0-2.6","a","COGS219_2020_27","Images/cat_3.png","76","2","1582590262399","non-match","cat","rooster","sound","test","true"
"null","","audio-keyboard-response","480","3072169","0.0-15.0-3.6","a","COGS219_2020_27","Sounds/correct.wav","null","2","","","","","","",""
"null","","audio-keyboard-response","481","3073462","0.0-15.0-0.7","a","COGS219_2020_27","Sounds/train_label.wav","null","2","","","","","","",""
"null","","html-keyboard-response","482","3074452","0.0-15.0-1.7","a","COGS219_2020_27","<p style=""font-size: 48px;"">+</p>","null","2","","","","","","",""
"659.5299999462441","","image-keyboard-response","483","3075113","0.0-15.0-2.7","a","COGS219_2020_27","Images/train_2.png","65","2","1582590267332","match","train","train","label","test","true"
"null","","audio-keyboard-response","484","3077119","0.0-15.0-3.7","a","COGS219_2020_27","Sounds/correct.wav","null","2","","","","","","",""
"null","","audio-keyboard-response","485","3078022","0.0-15.0-0.8","a","COGS219_2020_27","Sounds/frog_sound.wav","null","2","","","","","","",""
"null","","html-keyboard-response","486","3079019","0.0-15.0-1.8","a","COGS219_2020_27","<p style=""font-size: 48px;"">+</p>","null","2","","","","","","",""
"773.5200000461191","","image-keyboard-response","487","3079793","0.0-15.0-2.8","a","COGS219_2020_27","Images/train_1.png","76","2","1582590271899","non-match","train","frog","sound","test","true"
"null","","audio-keyboard-response","488","3081811","0.0-15.0-3.8","a","COGS219_2020_27","Sounds/correct.wav","null","2","","","","","","",""
"null","","audio-keyboard-response","489","3082482","0.0-15.0-0.9","a","COGS219_2020_27","Sounds/rooster_sound.wav","null","2","","","","","","",""
"null","","html-keyboard-response","490","3083486","0.0-15.0-1.9","a","COGS219_2020_27","<p style=""font-size: 48px;"">+</p>","null","2","","","","","","",""
"706.1349999858066","","image-keyboard-response","491","3084193","0.0-15.0-2.9","a","COGS219_2020_27","Images/rooster_1.png","65","2","1582590276366","match","rooster","rooster","sound","test","true"
"null","","audio-keyboard-response","492","3086198","0.0-15.0-3.9","a","COGS219_2020_27","Sounds/correct.wav","null","2","","","","","","",""
"null","","audio-keyboard-response","493","3086782","0.0-15.0-0.10","a","COGS219_2020_27","Sounds/gun_label.wav","null","2","","","","","","",""
"null","","html-keyboard-response","494","3087786","0.0-15.0-1.10","a","COGS219_2020_27","<p style=""font-size: 48px;"">+</p>","null","2","","","","","","",""
"550.0849999953061","","image-keyboard-response","495","3088337","0.0-15.0-2.10","a","COGS219_2020_27","Images/gun_orig.png","76","2","1582590280666","match","gun","gun","label","test","false"
"null","","audio-keyboard-response","496","3090343","0.0-15.0-3.10","a","COGS219_2020_27","Sounds/incorrect.wav","null","2","","","","","","",""
"null","","audio-keyboard-response","497","3091362","0.0-15.0-0.11","a","COGS219_2020_27","Sounds/cow_sound.wav","null","2","","","","","","",""
"null","","html-keyboard-response","498","3092353","0.0-15.0-1.11","a","COGS219_2020_27","<p style=""font-size: 48px;"">+</p>","null","2","","","","","","",""
"639.7100000176579","","image-keyboard-response","499","3092993","0.0-15.0-2.11","a","COGS219_2020_27","Images/cow_3.png","65","2","1582590285233","match","cow","cow","sound","test","true"
"null","","audio-keyboard-response","500","3095004","0.0-15.0-3.11","a","COGS219_2020_27","Sounds/correct.wav","null","2","","","","","","",""
"null","","audio-keyboard-response","501","3096302","0.0-15.0-0.12","a","COGS219_2020_27","Sounds/train_label.wav","null","2","","","","","","",""
"null","","html-keyboard-response","502","3097319","0.0-15.0-1.12","a","COGS219_2020_27","<p style=""font-size: 48px;"">+</p>","null","2","","","","","","",""
"481.2350000720471","","image-keyboard-response","503","3097801","0.0-15.0-2.12","a","COGS219_2020_27","Images/train_cartoon.png","65","2","1582590290199","match","train","train","label","test","true"
"null","","audio-keyboard-response","504","3099813","0.0-15.0-3.12","a","COGS219_2020_27","Sounds/correct.wav","null","2","","","","","","",""
"null","","audio-keyboard-response","505","3100362","0.0-15.0-0.13","a","COGS219_2020_27","Sounds/gun_label.wav","null","2","","","","","","",""
"null","","html-keyboard-response","506","3101353","0.0-15.0-1.13","a","COGS219_2020_27","<p style=""font-size: 48px;"">+</p>","null","2","","","","","","",""
"783.339999965392","","image-keyboard-response","507","3102137","0.0-15.0-2.13","a","COGS219_2020_27","Images/whistle_3.png","76","2","1582590294233","non-match","whistle","gun","label","test","true"
"null","","audio-keyboard-response","508","3104143","0.0-15.0-3.13","a","COGS219_2020_27","Sounds/correct.wav","null","2","","","","","","",""
"null","","audio-keyboard-response","509","3104982","0.0-15.0-0.14","a","COGS219_2020_27","Sounds/cat_label.wav","null","2","","","","","","",""
"null","","html-keyboard-response","510","3105986","0.0-15.0-1.14","a","COGS219_2020_27","<p style=""font-size: 48px;"">+</p>","null","2","","","","","","",""
"614.1800000332296","","image-keyboard-response","511","3106601","0.0-15.0-2.14","a","COGS219_2020_27","Images/cat_3.png","76","2","1582590298866","match","cat","cat","label","test","false"
"null","","audio-keyboard-response","512","3108605","0.0-15.0-3.14","a","COGS219_2020_27","Sounds/incorrect.wav","null","2","","","","","","",""
"null","","audio-keyboard-response","513","3109742","0.0-15.0-0.15","a","COGS219_2020_27","Sounds/motorcycle_label.wav","null","2","","","","","","",""
"null","","html-keyboard-response","514","3110736","0.0-15.0-1.15","a","COGS219_2020_27","<p style=""font-size: 48px;"">+</p>","null","2","","","","","","",""
"560.1199999218807","","image-keyboard-response","515","3111297","0.0-15.0-2.15","a","COGS219_2020_27","Images/motorcycle_3.png","65","2","1582590303616","match","motorcycle","motorcycle","label","test","true"
"null","","audio-keyboard-response","516","3113312","0.0-15.0-3.15","a","COGS219_2020_27","Sounds/correct.wav","null","2","","","","","","",""
"null","","audio-keyboard-response","517","3114382","0.0-15.0-0.16","a","COGS219_2020_27","Sounds/car_label.wav","null","2","","","","","","",""
"null","","html-keyboard-response","518","3115386","0.0-15.0-1.16","a","COGS219_2020_27","<p style=""font-size: 48px;"">+</p>","null","2","","","","","","",""
"598.0299999937415","","image-keyboard-response","519","3115985","0.0-15.0-2.16","a","COGS219_2020_27","Images/frog_1.png","76","2","1582590308266","non-match","frog","car","label","test","true"
"null","","audio-keyboard-response","520","3117992","0.0-15.0-3.16","a","COGS219_2020_27","Sounds/correct.wav","null","2","","","","","","",""
"null","","audio-keyboard-response","521","3118802","0.0-15.0-0.17","a","COGS219_2020_27","Sounds/cat_label.wav","null","2","","","","","","",""
"null","","html-keyboard-response","522","3119819","0.0-15.0-1.17","a","COGS219_2020_27","<p style=""font-size: 48px;"">+</p>","null","2","","","","","","",""
"636.8150000926107","","image-keyboard-response","523","3120457","0.0-15.0-2.17","a","COGS219_2020_27","Images/cat_orig.png","76","2","1582590312700","match","cat","cat","label","test","false"
"null","","audio-keyboard-response","524","3122468","0.0-15.0-3.17","a","COGS219_2020_27","Sounds/incorrect.wav","null","2","","","","","","",""
"null","","audio-keyboard-response","525","3123536","0.0-15.0-0.18","a","COGS219_2020_27","Sounds/car_sound.wav","null","2","","","","","","",""
"null","","html-keyboard-response","526","3124531","0.0-15.0-1.18","a","COGS219_2020_27","<p style=""font-size: 48px;"">+</p>","null","2","","","","","","",""
"503.99999995715916","","image-keyboard-response","527","3125036","0.0-15.0-2.18","a","COGS219_2020_27","Images/cat_1.png","76","2","1582590317411","non-match","cat","car","sound","test","true"
"null","","audio-keyboard-response","528","3127041","0.0-15.0-3.18","a","COGS219_2020_27","Sounds/correct.wav","null","2","","","","","","",""
"null","","audio-keyboard-response","529","3127956","0.0-15.0-0.19","a","COGS219_2020_27","Sounds/frog_sound.wav","null","2","","","","","","",""
"null","","html-keyboard-response","530","3128948","0.0-15.0-1.19","a","COGS219_2020_27","<p style=""font-size: 48px;"">+</p>","null","2","","","","","","",""
"455.1350000547245","","image-keyboard-response","531","3129404","0.0-15.0-2.19","a","COGS219_2020_27","Images/rooster_2.png","76","2","1582590321828","non-match","rooster","frog","sound","test","true"
"null","","audio-keyboard-response","532","3131418","0.0-15.0-3.19","a","COGS219_2020_27","Sounds/correct.wav","null","2","","","","","","",""
"null","","audio-keyboard-response","533","3132316","0.0-15.0-0.20","a","COGS219_2020_27","Sounds/frog_sound.wav","null","2","","","","","","",""
"null","","html-keyboard-response","534","3133314","0.0-15.0-1.20","a","COGS219_2020_27","<p style=""font-size: 48px;"">+</p>","null","2","","","","","","",""
"352.82499995082617","","image-keyboard-response","535","3133668","0.0-15.0-2.20","a","COGS219_2020_27","Images/frog_orig.png","65","2","1582590326194","match","frog","frog","sound","test","true"
"null","","audio-keyboard-response","536","3135671","0.0-15.0-3.20","a","COGS219_2020_27","Sounds/correct.wav","null","2","","","","","","",""
"null","","audio-keyboard-response","537","3136256","0.0-15.0-0.21","a","COGS219_2020_27","Sounds/gun_sound.wav","null","2","","","","","","",""
"null","","html-keyboard-response","538","3137248","0.0-15.0-1.21","a","COGS219_2020_27","<p style=""font-size: 48px;"">+</p>","null","2","","","","","","",""
"411.21499997098","","image-keyboard-response","539","3137660","0.0-15.0-2.21","a","COGS219_2020_27","Images/cow_1.png","76","2","1582590330128","non-match","cow","gun","sound","test","true"
"null","","audio-keyboard-response","540","3139666","0.0-15.0-3.21","a","COGS219_2020_27","Sounds/correct.wav","null","2","","","","","","",""
"null","","audio-keyboard-response","541","3140316","0.0-15.0-0.22","a","COGS219_2020_27","Sounds/dog_label.wav","null","2","","","","","","",""
"null","","html-keyboard-response","542","3141314","0.0-15.0-1.22","a","COGS219_2020_27","<p style=""font-size: 48px;"">+</p>","null","2","","","","","","",""
"512.3750000493601","","image-keyboard-response","543","3141828","0.0-15.0-2.22","a","COGS219_2020_27","Images/dog_1.png","65","2","1582590334194","match","dog","dog","label","test","true"
"null","","audio-keyboard-response","544","3143841","0.0-15.0-3.22","a","COGS219_2020_27","Sounds/correct.wav","null","2","","","","","","",""
"null","","audio-keyboard-response","545","3144416","0.0-15.0-0.23","a","COGS219_2020_27","Sounds/gun_label.wav","null","2","","","","","","",""
"null","","html-keyboard-response","546","3145415","0.0-15.0-1.23","a","COGS219_2020_27","<p style=""font-size: 48px;"">+</p>","null","2","","","","","","",""
"468.40499993413687","","image-keyboard-response","547","3145884","0.0-15.0-2.23","a","COGS219_2020_27","Images/frog_orig.png","65","2","1582590338295","non-match","frog","gun","label","test","false"
"null","","audio-keyboard-response","548","3147895","0.0-15.0-3.23","a","COGS219_2020_27","Sounds/incorrect.wav","null","2","","","","","","",""
"null","","audio-keyboard-response","549","3148456","0.0-15.0-0.24","a","COGS219_2020_27","Sounds/gun_label.wav","null","2","","","","","","",""
"null","","html-keyboard-response","550","3149448","0.0-15.0-1.24","a","COGS219_2020_27","<p style=""font-size: 48px;"">+</p>","null","2","","","","","","",""
"378.995000035502","","image-keyboard-response","551","3149828","0.0-15.0-2.24","a","COGS219_2020_27","Images/gun_cartoon.png","76","2","1582590342328","match","gun","gun","label","test","false"
"null","","audio-keyboard-response","552","3151836","0.0-15.0-3.24","a","COGS219_2020_27","Sounds/incorrect.wav","null","2","","","","","","",""
"null","","audio-keyboard-response","553","3153136","0.0-15.0-0.25","a","COGS219_2020_27","Sounds/train_sound.wav","null","2","","","","","","",""
"null","","html-keyboard-response","554","3154131","0.0-15.0-1.25","a","COGS219_2020_27","<p style=""font-size: 48px;"">+</p>","null","2","","","","","","",""
"583.600000012666","","image-keyboard-response","555","3154716","0.0-15.0-2.25","a","COGS219_2020_27","Images/gun_orig.png","76","2","1582590347011","non-match","gun","train","sound","test","true"
"null","","audio-keyboard-response","556","3156722","0.0-15.0-3.25","a","COGS219_2020_27","Sounds/correct.wav","null","2","","","","","","",""
"null","","audio-keyboard-response","557","3157797","0.0-15.0-0.26","a","COGS219_2020_27","Sounds/car_label.wav","null","2","","","","","","",""
"null","","html-keyboard-response","558","3158815","0.0-15.0-1.26","a","COGS219_2020_27","<p style=""font-size: 48px;"">+</p>","null","2","","","","","","",""
"556.2700000591576","","image-keyboard-response","559","3159372","0.0-15.0-2.26","a","COGS219_2020_27","Images/car_1.png","65","2","1582590351695","match","car","car","label","test","true"
"null","","audio-keyboard-response","560","3161386","0.0-15.0-3.26","a","COGS219_2020_27","Sounds/correct.wav","null","2","","","","","","",""
"null","","audio-keyboard-response","561","3162496","0.0-15.0-0.27","a","COGS219_2020_27","Sounds/motorcycle_sound.wav","null","2","","","","","","",""
"null","","html-keyboard-response","562","3163515","0.0-15.0-1.27","a","COGS219_2020_27","<p style=""font-size: 48px;"">+</p>","null","2","","","","","","",""
"512.0399999432266","","image-keyboard-response","563","3164028","0.0-15.0-2.27","a","COGS219_2020_27","Images/rooster_1.png","76","2","1582590356395","non-match","rooster","motorcycle","sound","test","true"
"null","","audio-keyboard-response","564","3166039","0.0-15.0-3.27","a","COGS219_2020_27","Sounds/correct.wav","null","2","","","","","","",""
"null","","audio-keyboard-response","565","3166737","0.0-15.0-0.28","a","COGS219_2020_27","Sounds/rooster_label.wav","null","2","","","","","","",""
"null","","html-keyboard-response","566","3167731","0.0-15.0-1.28","a","COGS219_2020_27","<p style=""font-size: 48px;"">+</p>","null","2","","","","","","",""
"591.2999999709427","","image-keyboard-response","567","3168324","0.0-15.0-2.28","a","COGS219_2020_27","Images/motorcycle_orig.png","76","2","1582590360611","non-match","motorcycle","rooster","label","test","true"
"null","","audio-keyboard-response","568","3170330","0.0-15.0-3.28","a","COGS219_2020_27","Sounds/correct.wav","null","2","","","","","","",""
"null","","audio-keyboard-response","569","3171377","0.0-15.0-0.29","a","COGS219_2020_27","Sounds/car_label.wav","null","2","","","","","","",""
"null","","html-keyboard-response","570","3172382","0.0-15.0-1.29","a","COGS219_2020_27","<p style=""font-size: 48px;"">+</p>","null","2","","","","","","",""
"493.5350000159815","","image-keyboard-response","571","3172876","0.0-15.0-2.29","a","COGS219_2020_27","Images/whistle_orig.png","76","2","1582590365261","non-match","whistle","car","label","test","true"
"null","","audio-keyboard-response","572","3174890","0.0-15.0-3.29","a","COGS219_2020_27","Sounds/correct.wav","null","2","","","","","","",""
"null","","audio-keyboard-response","573","3175596","0.0-15.0-0.30","a","COGS219_2020_27","Sounds/rooster_sound.wav","null","2","","","","","","",""
"null","","html-keyboard-response","574","3176615","0.0-15.0-1.30","a","COGS219_2020_27","<p style=""font-size: 48px;"">+</p>","null","2","","","","","","",""
"2259.459999972023","","image-keyboard-response","575","3178876","0.0-15.0-2.30","a","COGS219_2020_27","Images/rooster_orig.png","65","2","1582590369495","match","rooster","rooster","sound","test","true"
"null","","audio-keyboard-response","576","3180889","0.0-15.0-3.30","a","COGS219_2020_27","Sounds/correct.wav","null","2","","","","","","",""
"null","","audio-keyboard-response","577","3181936","0.0-15.0-0.31","a","COGS219_2020_27","Sounds/car_label.wav","null","2","","","","","","",""
"null","","html-keyboard-response","578","3182932","0.0-15.0-1.31","a","COGS219_2020_27","<p style=""font-size: 48px;"">+</p>","null","2","","","","","","",""
"670.8949999883771","","image-keyboard-response","579","3183599","0.0-15.0-2.31","a","COGS219_2020_27","Images/car_orig.png","65","2","1582590375811","match","car","car","label","test","true"
"null","","audio-keyboard-response","580","3185614","0.0-15.0-3.31","a","COGS219_2020_27","Sounds/correct.wav","null","2","","","","","","",""
"null","","audio-keyboard-response","581","3186911","0.0-15.0-0.32","a","COGS219_2020_27","Sounds/train_label.wav","null","2","","","","","","",""
"null","","html-keyboard-response","582","3187909","0.0-15.0-1.32","a","COGS219_2020_27","<p style=""font-size: 48px;"">+</p>","null","2","","","","","","",""
"663.825000054203","","image-keyboard-response","583","3188574","0.0-15.0-2.32","a","COGS219_2020_27","Images/car_cartoon.png","76","2","1582590380789","non-match","car","train","label","test","true"
"null","","audio-keyboard-response","584","3190581","0.0-15.0-3.32","a","COGS219_2020_27","Sounds/correct.wav","null","2","","","","","","",""
"null","","audio-keyboard-response","585","3191631","0.0-15.0-0.33","a","COGS219_2020_27","Sounds/car_label.wav","null","2","","","","","","",""
"null","","html-keyboard-response","586","3192626","0.0-15.0-1.33","a","COGS219_2020_27","<p style=""font-size: 48px;"">+</p>","null","2","","","","","","",""
"491.039999993518","","image-keyboard-response","587","3193118","0.0-15.0-2.33","a","COGS219_2020_27","Images/car_2.png","65","2","1582590385506","match","car","car","label","test","true"
"null","","audio-keyboard-response","588","3195129","0.0-15.0-3.33","a","COGS219_2020_27","Sounds/correct.wav","null","2","","","","","","",""
"null","","audio-keyboard-response","589","3196151","0.0-15.0-0.34","a","COGS219_2020_27","Sounds/cow_sound.wav","null","2","","","","","","",""
"null","","html-keyboard-response","590","3197143","0.0-15.0-1.34","a","COGS219_2020_27","<p style=""font-size: 48px;"">+</p>","null","2","","","","","","",""
"550.6149999564514","","image-keyboard-response","591","3197694","0.0-15.0-2.34","a","COGS219_2020_27","Images/car_3.png","76","2","1582590390023","non-match","car","cow","sound","test","true"
"null","","audio-keyboard-response","592","3199698","0.0-15.0-3.34","a","COGS219_2020_27","Sounds/correct.wav","null","2","","","","","","",""
"null","","audio-keyboard-response","593","3200811","0.0-15.0-0.35","a","COGS219_2020_27","Sounds/motorcycle_sound.wav","null","2","","","","","","",""
"null","","html-keyboard-response","594","3201810","0.0-15.0-1.35","a","COGS219_2020_27","<p style=""font-size: 48px;"">+</p>","null","2","","","","","","",""
"451.69000001624227","","image-keyboard-response","595","3202262","0.0-15.0-2.35","a","COGS219_2020_27","Images/motorcycle_orig.png","65","2","1582590394690","match","motorcycle","motorcycle","sound","test","true"
"null","","audio-keyboard-response","596","3204280","0.0-15.0-3.35","a","COGS219_2020_27","Sounds/correct.wav","null","2","","","","","","",""
"null","","audio-keyboard-response","597","3204991","0.0-15.0-0.36","a","COGS219_2020_27","Sounds/rooster_sound.wav","null","2","","","","","","",""
"null","","html-keyboard-response","598","3205993","0.0-15.0-1.36","a","COGS219_2020_27","<p style=""font-size: 48px;"">+</p>","null","2","","","","","","",""
"668.3549999725074","","image-keyboard-response","599","3206662","0.0-15.0-2.36","a","COGS219_2020_27","Images/dog_1.png","76","2","1582590398873","non-match","dog","rooster","sound","test","true"
"null","","audio-keyboard-response","600","3208680","0.0-15.0-3.36","a","COGS219_2020_27","Sounds/correct.wav","null","2","","","","","","",""
"null","","audio-keyboard-response","601","3209371","0.0-15.0-0.37","a","COGS219_2020_27","Sounds/rooster_label.wav","null","2","","","","","","",""
"null","","html-keyboard-response","602","3210360","0.0-15.0-1.37","a","COGS219_2020_27","<p style=""font-size: 48px;"">+</p>","null","2","","","","","","",""
"405.6799999671057","","image-keyboard-response","603","3210766","0.0-15.0-2.37","a","COGS219_2020_27","Images/rooster_cartoon.png","65","2","1582590403240","match","rooster","rooster","label","test","true"
"null","","audio-keyboard-response","604","3212780","0.0-15.0-3.37","a","COGS219_2020_27","Sounds/correct.wav","null","2","","","","","","",""
