[{"rt":24955.06499998737,"responses":"{\"Q0\":\"COGS219_2020_25\"}","trial_type":"survey-text","trial_index":0,"time_elapsed":24983,"internal_node_id":"0.0-0.0","match_key":"a","participant_id":"COGS219_2020_25"},{"rt":40734.48000010103,"stimulus":"<p>Use KEYBOARD 2 (match LEFT)</p><p>Press MATCH to continue.</p>","key_press":65,"trial_type":"html-keyboard-response","trial_index":1,"time_elapsed":65728,"internal_node_id":"0.0-1.0","match_key":"a","participant_id":"COGS219_2020_25"},{"rt":2326933.9599999366,"stimulus":"<p>Welcome to the experiment.</p>","key_press":39,"trial_type":"html-keyboard-response","trial_index":2,"time_elapsed":2392504,"internal_node_id":"0.0-2.0","match_key":"a","participant_id":"COGS219_2020_25"},{"rt":8696.430000010878,"stimulus":"<p>Thank you for agreeing to participate in this study.</p><p>If during any part of the procedure you must stop for any reason, please inform the researcher that you do not wish to continue.</p>","key_press":39,"trial_type":"html-keyboard-response","trial_index":3,"time_elapsed":2401206,"internal_node_id":"0.0-3.0","match_key":"a","participant_id":"COGS219_2020_25"},{"rt":22280.00999998767,"stimulus":"<p>In this experiment, you will hear various words or sounds and see pictures of various animals and objects.</p><p>Most of the images will be of common everyday objects, such as cars, cats, cows, firearms, frogs, chickens, whistles, trains, motorcycles, and dogs.</p><p>Some of the images will be real-life stills, while others will be cartoons.</p>","key_press":39,"trial_type":"html-keyboard-response","trial_index":4,"time_elapsed":2423487,"internal_node_id":"0.0-4.0","match_key":"a","participant_id":"COGS219_2020_25"},{"rt":13357.970000011846,"stimulus":"<p>Sometimes, the word/sound will match the picture, for example you'll hear a meowing sound and see a cat.</p><p>Other times, the picture will not match the sound or word.</p><p>Your task is to decide as quickly as possible if the word/sound matches the picture or not. </p>","key_press":39,"trial_type":"html-keyboard-response","trial_index":5,"time_elapsed":2436846,"internal_node_id":"0.0-5.0","match_key":"a","participant_id":"COGS219_2020_25"},{"rt":13070.874999975786,"stimulus":"<p>For example, if you hear the word \"cat\" or hear a meowing sound, and then see a picture of a cat, you should press the MATCH key.</p><p> If the sound and image do not match, press the NOT-MATCH key to indicate that there is not a match.</p>","key_press":39,"trial_type":"html-keyboard-response","trial_index":6,"time_elapsed":2449918,"internal_node_id":"0.0-6.0","match_key":"a","participant_id":"COGS219_2020_25"},{"rt":13966.814999934286,"stimulus":"<p>If you make a mistake, you will hear a buzzing sound instead of a more pleasant sound.</p><p> Try to respond as quickly as possible, while making as few errors as possible. If you are making mistakes, you are probably rushing.</p>","key_press":39,"trial_type":"html-keyboard-response","trial_index":7,"time_elapsed":2463886,"internal_node_id":"0.0-7.0","match_key":"a","participant_id":"COGS219_2020_25"},{"rt":35391.654999926686,"stimulus":"<p>Please try to not move or blink your eyes during the presentation of the images. You can move and blink between images.</p><p>During the experiment there will be some breaks during which you can rest your eyes.</p>","key_press":39,"trial_type":"html-keyboard-response","trial_index":8,"time_elapsed":2499279,"internal_node_id":"0.0-8.0","match_key":"a","participant_id":"COGS219_2020_25"},{"rt":13926.020000013523,"stimulus":"<p>We will begin with 10 practice trials. Please let the experimenter know if you have any questions.</p>","key_press":76,"trial_type":"html-keyboard-response","trial_index":9,"time_elapsed":2513206,"internal_node_id":"0.0-9.0","match_key":"a","participant_id":"COGS219_2020_25"},{"rt":null,"stimulus":"Sounds/motorcycle_sound.wav","key_press":null,"block":0,"trial_type":"audio-keyboard-response","trial_index":10,"time_elapsed":2514410,"internal_node_id":"0.0-10.0-0.0","match_key":"a","participant_id":"COGS219_2020_25"},{"rt":null,"stimulus":"<p style=\"font-size: 48px;\">+</p>","key_press":null,"block":0,"trial_type":"html-keyboard-response","trial_index":11,"time_elapsed":2515405,"internal_node_id":"0.0-10.0-1.0","match_key":"a","participant_id":"COGS219_2020_25"},{"rt":1286.8550000712276,"stimulus":"Images/motorcycle_3.png","key_press":65,"stim_onset":1582508845639,"block":0,"match_type":"match","image_category":"motorcycle","sound_category":"motorcycle","audio_type":"sound","phase":"practice","trial_type":"image-keyboard-response","trial_index":12,"time_elapsed":2516694,"internal_node_id":"0.0-10.0-2.0","match_key":"a","participant_id":"COGS219_2020_25","correct":true},{"rt":null,"stimulus":"Sounds/correct.wav","key_press":null,"block":0,"trial_type":"audio-keyboard-response","trial_index":13,"time_elapsed":2518710,"internal_node_id":"0.0-10.0-3.0","match_key":"a","participant_id":"COGS219_2020_25"},{"rt":null,"stimulus":"Sounds/gun_sound.wav","key_press":null,"block":0,"trial_type":"audio-keyboard-response","trial_index":14,"time_elapsed":2519289,"internal_node_id":"0.0-10.0-0.1","match_key":"a","participant_id":"COGS219_2020_25"},{"rt":null,"stimulus":"<p style=\"font-size: 48px;\">+</p>","key_press":null,"block":0,"trial_type":"html-keyboard-response","trial_index":15,"time_elapsed":2520288,"internal_node_id":"0.0-10.0-1.1","match_key":"a","participant_id":"COGS219_2020_25"},{"rt":924.2249999660999,"stimulus":"Images/gun_1.png","key_press":65,"stim_onset":1582508850522,"block":0,"match_type":"match","image_category":"gun","sound_category":"gun","audio_type":"sound","phase":"practice","trial_type":"image-keyboard-response","trial_index":16,"time_elapsed":2521214,"internal_node_id":"0.0-10.0-2.1","match_key":"a","participant_id":"COGS219_2020_25","correct":true},{"rt":null,"stimulus":"Sounds/correct.wav","key_press":null,"block":0,"trial_type":"audio-keyboard-response","trial_index":17,"time_elapsed":2523220,"internal_node_id":"0.0-10.0-3.1","match_key":"a","participant_id":"COGS219_2020_25"},{"rt":null,"stimulus":"Sounds/motorcycle_sound.wav","key_press":null,"block":0,"trial_type":"audio-keyboard-response","trial_index":18,"time_elapsed":2524310,"internal_node_id":"0.0-10.0-0.2","match_key":"a","participant_id":"COGS219_2020_25"},{"rt":null,"stimulus":"<p style=\"font-size: 48px;\">+</p>","key_press":null,"block":0,"trial_type":"html-keyboard-response","trial_index":19,"time_elapsed":2525306,"internal_node_id":"0.0-10.0-1.2","match_key":"a","participant_id":"COGS219_2020_25"},{"rt":402.6399999856949,"stimulus":"Images/car_1.png","key_press":76,"stim_onset":1582508855540,"block":0,"match_type":"non-match","image_category":"car","sound_category":"motorcycle","audio_type":"sound","phase":"practice","trial_type":"image-keyboard-response","trial_index":20,"time_elapsed":2525711,"internal_node_id":"0.0-10.0-2.2","match_key":"a","participant_id":"COGS219_2020_25","correct":true},{"rt":null,"stimulus":"Sounds/correct.wav","key_press":null,"block":0,"trial_type":"audio-keyboard-response","trial_index":21,"time_elapsed":2527724,"internal_node_id":"0.0-10.0-3.2","match_key":"a","participant_id":"COGS219_2020_25"},{"rt":null,"stimulus":"Sounds/train_label.wav","key_press":null,"block":0,"trial_type":"audio-keyboard-response","trial_index":22,"time_elapsed":2529010,"internal_node_id":"0.0-10.0-0.3","match_key":"a","participant_id":"COGS219_2020_25"},{"rt":null,"stimulus":"<p style=\"font-size: 48px;\">+</p>","key_press":null,"block":0,"trial_type":"html-keyboard-response","trial_index":23,"time_elapsed":2530006,"internal_node_id":"0.0-10.0-1.3","match_key":"a","participant_id":"COGS219_2020_25"},{"rt":863.4300000267103,"stimulus":"Images/cat_3.png","key_press":76,"stim_onset":1582508860240,"block":0,"match_type":"non-match","image_category":"cat","sound_category":"train","audio_type":"label","phase":"practice","trial_type":"image-keyboard-response","trial_index":24,"time_elapsed":2530870,"internal_node_id":"0.0-10.0-2.3","match_key":"a","participant_id":"COGS219_2020_25","correct":true},{"rt":null,"stimulus":"Sounds/correct.wav","key_press":null,"block":0,"trial_type":"audio-keyboard-response","trial_index":25,"time_elapsed":2532874,"internal_node_id":"0.0-10.0-3.3","match_key":"a","participant_id":"COGS219_2020_25"},{"rt":null,"stimulus":"Sounds/car_sound.wav","key_press":null,"block":0,"trial_type":"audio-keyboard-response","trial_index":26,"time_elapsed":2533950,"internal_node_id":"0.0-10.0-0.4","match_key":"a","participant_id":"COGS219_2020_25"},{"rt":null,"stimulus":"<p style=\"font-size: 48px;\">+</p>","key_press":null,"block":0,"trial_type":"html-keyboard-response","trial_index":27,"time_elapsed":2534956,"internal_node_id":"0.0-10.0-1.4","match_key":"a","participant_id":"COGS219_2020_25"},{"rt":737.2050000121817,"stimulus":"Images/whistle_2.png","key_press":76,"stim_onset":1582508865190,"block":0,"match_type":"non-match","image_category":"whistle","sound_category":"car","audio_type":"sound","phase":"practice","trial_type":"image-keyboard-response","trial_index":28,"time_elapsed":2535695,"internal_node_id":"0.0-10.0-2.4","match_key":"a","participant_id":"COGS219_2020_25","correct":true},{"rt":null,"stimulus":"Sounds/correct.wav","key_press":null,"block":0,"trial_type":"audio-keyboard-response","trial_index":29,"time_elapsed":2537698,"internal_node_id":"0.0-10.0-3.4","match_key":"a","participant_id":"COGS219_2020_25"},{"rt":null,"stimulus":"Sounds/gun_label.wav","key_press":null,"block":0,"trial_type":"audio-keyboard-response","trial_index":30,"time_elapsed":2538270,"internal_node_id":"0.0-10.0-0.5","match_key":"a","participant_id":"COGS219_2020_25"},{"rt":null,"stimulus":"<p style=\"font-size: 48px;\">+</p>","key_press":null,"block":0,"trial_type":"html-keyboard-response","trial_index":31,"time_elapsed":2539273,"internal_node_id":"0.0-10.0-1.5","match_key":"a","participant_id":"COGS219_2020_25"},{"rt":540.8299999544397,"stimulus":"Images/rooster_3.png","key_press":76,"stim_onset":1582508869507,"block":0,"match_type":"non-match","image_category":"rooster","sound_category":"gun","audio_type":"label","phase":"practice","trial_type":"image-keyboard-response","trial_index":32,"time_elapsed":2539815,"internal_node_id":"0.0-10.0-2.5","match_key":"a","participant_id":"COGS219_2020_25","correct":true},{"rt":null,"stimulus":"Sounds/correct.wav","key_press":null,"block":0,"trial_type":"audio-keyboard-response","trial_index":33,"time_elapsed":2541830,"internal_node_id":"0.0-10.0-3.5","match_key":"a","participant_id":"COGS219_2020_25"},{"rt":null,"stimulus":"Sounds/dog_sound.wav","key_press":null,"block":0,"trial_type":"audio-keyboard-response","trial_index":34,"time_elapsed":2542530,"internal_node_id":"0.0-10.0-0.6","match_key":"a","participant_id":"COGS219_2020_25"},{"rt":null,"stimulus":"<p style=\"font-size: 48px;\">+</p>","key_press":null,"block":0,"trial_type":"html-keyboard-response","trial_index":35,"time_elapsed":2543523,"internal_node_id":"0.0-10.0-1.6","match_key":"a","participant_id":"COGS219_2020_25"},{"rt":770.6949999555945,"stimulus":"Images/cat_2.png","key_press":76,"stim_onset":1582508873757,"block":0,"match_type":"non-match","image_category":"cat","sound_category":"dog","audio_type":"sound","phase":"practice","trial_type":"image-keyboard-response","trial_index":36,"time_elapsed":2544295,"internal_node_id":"0.0-10.0-2.6","match_key":"a","participant_id":"COGS219_2020_25","correct":true},{"rt":null,"stimulus":"Sounds/correct.wav","key_press":null,"block":0,"trial_type":"audio-keyboard-response","trial_index":37,"time_elapsed":2546312,"internal_node_id":"0.0-10.0-3.6","match_key":"a","participant_id":"COGS219_2020_25"},{"rt":null,"stimulus":"Sounds/cat_label.wav","key_press":null,"block":0,"trial_type":"audio-keyboard-response","trial_index":38,"time_elapsed":2547150,"internal_node_id":"0.0-10.0-0.7","match_key":"a","participant_id":"COGS219_2020_25"},{"rt":null,"stimulus":"<p style=\"font-size: 48px;\">+</p>","key_press":null,"block":0,"trial_type":"html-keyboard-response","trial_index":39,"time_elapsed":2548139,"internal_node_id":"0.0-10.0-1.7","match_key":"a","participant_id":"COGS219_2020_25"},{"rt":481.87499993946403,"stimulus":"Images/cat_orig.png","key_press":65,"stim_onset":1582508878374,"block":0,"match_type":"match","image_category":"cat","sound_category":"cat","audio_type":"label","phase":"practice","trial_type":"image-keyboard-response","trial_index":40,"time_elapsed":2548622,"internal_node_id":"0.0-10.0-2.7","match_key":"a","participant_id":"COGS219_2020_25","correct":true},{"rt":null,"stimulus":"Sounds/correct.wav","key_press":null,"block":0,"trial_type":"audio-keyboard-response","trial_index":41,"time_elapsed":2550640,"internal_node_id":"0.0-10.0-3.7","match_key":"a","participant_id":"COGS219_2020_25"},{"rt":null,"stimulus":"Sounds/cat_label.wav","key_press":null,"block":0,"trial_type":"audio-keyboard-response","trial_index":42,"time_elapsed":2551450,"internal_node_id":"0.0-10.0-0.8","match_key":"a","participant_id":"COGS219_2020_25"},{"rt":null,"stimulus":"<p style=\"font-size: 48px;\">+</p>","key_press":null,"block":0,"trial_type":"html-keyboard-response","trial_index":43,"time_elapsed":2552440,"internal_node_id":"0.0-10.0-1.8","match_key":"a","participant_id":"COGS219_2020_25"},{"rt":390.10999992024153,"stimulus":"Images/whistle_1.png","key_press":76,"stim_onset":1582508882674,"block":0,"match_type":"non-match","image_category":"whistle","sound_category":"cat","audio_type":"label","phase":"practice","trial_type":"image-keyboard-response","trial_index":44,"time_elapsed":2552831,"internal_node_id":"0.0-10.0-2.8","match_key":"a","participant_id":"COGS219_2020_25","correct":true},{"rt":null,"stimulus":"Sounds/correct.wav","key_press":null,"block":0,"trial_type":"audio-keyboard-response","trial_index":45,"time_elapsed":2554843,"internal_node_id":"0.0-10.0-3.8","match_key":"a","participant_id":"COGS219_2020_25"},{"rt":null,"stimulus":"Sounds/whistle_label.wav","key_press":null,"block":0,"trial_type":"audio-keyboard-response","trial_index":46,"time_elapsed":2555550,"internal_node_id":"0.0-10.0-0.9","match_key":"a","participant_id":"COGS219_2020_25"},{"rt":null,"stimulus":"<p style=\"font-size: 48px;\">+</p>","key_press":null,"block":0,"trial_type":"html-keyboard-response","trial_index":47,"time_elapsed":2556540,"internal_node_id":"0.0-10.0-1.9","match_key":"a","participant_id":"COGS219_2020_25"},{"rt":505.9450000990182,"stimulus":"Images/car_3.png","key_press":76,"stim_onset":1582508886774,"block":0,"match_type":"non-match","image_category":"car","sound_category":"whistle","audio_type":"label","phase":"practice","trial_type":"image-keyboard-response","trial_index":48,"time_elapsed":2557047,"internal_node_id":"0.0-10.0-2.9","match_key":"a","participant_id":"COGS219_2020_25","correct":true},{"rt":null,"stimulus":"Sounds/correct.wav","key_press":null,"block":0,"trial_type":"audio-keyboard-response","trial_index":49,"time_elapsed":2559050,"internal_node_id":"0.0-10.0-3.9","match_key":"a","participant_id":"COGS219_2020_25"},{"rt":29028.84499996435,"stimulus":"<p>The rest of the experiment is divided into five blocks with 100 trials in each block. It will take about 45 minutes to complete.</p><p>The experimenter will be in the outer room and you can communicate with them through the monitor if you have any questions or wish to stop the experiment.</p>","key_press":76,"trial_type":"html-keyboard-response","trial_index":50,"time_elapsed":2588076,"internal_node_id":"0.0-11.0","match_key":"a","participant_id":"COGS219_2020_25"},{"rt":8326.100000063889,"stimulus":"<p>Remember, please try not to move or blink your eyes during the presentation of the images. </p><p>At the end of the experiment, we will show you your scores on the task so you can see how you did.</p><p>The experiment will start on the next screen.</p>","key_press":76,"trial_type":"html-keyboard-response","trial_index":51,"time_elapsed":2596404,"internal_node_id":"0.0-12.0","match_key":"a","participant_id":"COGS219_2020_25"},{"rt":null,"stimulus":"Sounds/car_sound.wav","key_press":null,"block":1,"trial_type":"audio-keyboard-response","trial_index":52,"time_elapsed":2599502,"internal_node_id":"0.0-13.0-0.0","match_key":"a","participant_id":"COGS219_2020_25"},{"rt":null,"stimulus":"<p style=\"font-size: 48px;\">+</p>","key_press":null,"block":1,"trial_type":"html-keyboard-response","trial_index":53,"time_elapsed":2600521,"internal_node_id":"0.0-13.0-1.0","match_key":"a","participant_id":"COGS219_2020_25"},{"rt":634.2550000408664,"stimulus":"Images/cow_1.png","key_press":76,"stim_onset":1582508930754,"block":1,"match_type":"non-match","image_category":"cow","sound_category":"car","audio_type":"sound","phase":"test","trial_type":"image-keyboard-response","trial_index":54,"time_elapsed":2601156,"internal_node_id":"0.0-13.0-2.0","match_key":"a","participant_id":"COGS219_2020_25","correct":true},{"rt":null,"stimulus":"Sounds/correct.wav","key_press":null,"block":1,"trial_type":"audio-keyboard-response","trial_index":55,"time_elapsed":2603159,"internal_node_id":"0.0-13.0-3.0","match_key":"a","participant_id":"COGS219_2020_25"},{"rt":null,"stimulus":"Sounds/whistle_label.wav","key_press":null,"block":1,"trial_type":"audio-keyboard-response","trial_index":56,"time_elapsed":2603863,"internal_node_id":"0.0-13.0-0.1","match_key":"a","participant_id":"COGS219_2020_25"},{"rt":null,"stimulus":"<p style=\"font-size: 48px;\">+</p>","key_press":null,"block":1,"trial_type":"html-keyboard-response","trial_index":57,"time_elapsed":2604854,"internal_node_id":"0.0-13.0-1.1","match_key":"a","participant_id":"COGS219_2020_25"},{"rt":572.7050000568852,"stimulus":"Images/whistle_3.png","key_press":65,"stim_onset":1582508935088,"block":1,"match_type":"match","image_category":"whistle","sound_category":"whistle","audio_type":"label","phase":"test","trial_type":"image-keyboard-response","trial_index":58,"time_elapsed":2605427,"internal_node_id":"0.0-13.0-2.1","match_key":"a","participant_id":"COGS219_2020_25","correct":true},{"rt":null,"stimulus":"Sounds/correct.wav","key_press":null,"block":1,"trial_type":"audio-keyboard-response","trial_index":59,"time_elapsed":2607443,"internal_node_id":"0.0-13.0-3.1","match_key":"a","participant_id":"COGS219_2020_25"},{"rt":null,"stimulus":"Sounds/whistle_label.wav","key_press":null,"block":1,"trial_type":"audio-keyboard-response","trial_index":60,"time_elapsed":2608122,"internal_node_id":"0.0-13.0-0.2","match_key":"a","participant_id":"COGS219_2020_25"},{"rt":null,"stimulus":"<p style=\"font-size: 48px;\">+</p>","key_press":null,"block":1,"trial_type":"html-keyboard-response","trial_index":61,"time_elapsed":2609120,"internal_node_id":"0.0-13.0-1.2","match_key":"a","participant_id":"COGS219_2020_25"},{"rt":514.1649999422953,"stimulus":"Images/whistle_orig.png","key_press":65,"stim_onset":1582508939354,"block":1,"match_type":"match","image_category":"whistle","sound_category":"whistle","audio_type":"label","phase":"test","trial_type":"image-keyboard-response","trial_index":62,"time_elapsed":2609636,"internal_node_id":"0.0-13.0-2.2","match_key":"a","participant_id":"COGS219_2020_25","correct":true},{"rt":null,"stimulus":"Sounds/correct.wav","key_press":null,"block":1,"trial_type":"audio-keyboard-response","trial_index":63,"time_elapsed":2611646,"internal_node_id":"0.0-13.0-3.2","match_key":"a","participant_id":"COGS219_2020_25"},{"rt":null,"stimulus":"Sounds/dog_sound.wav","key_press":null,"block":1,"trial_type":"audio-keyboard-response","trial_index":64,"time_elapsed":2612362,"internal_node_id":"0.0-13.0-0.3","match_key":"a","participant_id":"COGS219_2020_25"},{"rt":null,"stimulus":"<p style=\"font-size: 48px;\">+</p>","key_press":null,"block":1,"trial_type":"html-keyboard-response","trial_index":65,"time_elapsed":2613354,"internal_node_id":"0.0-13.0-1.3","match_key":"a","participant_id":"COGS219_2020_25"},{"rt":520.5699999351054,"stimulus":"Images/cat_cartoon.png","key_press":76,"stim_onset":1582508943588,"block":1,"match_type":"non-match","image_category":"cat","sound_category":"dog","audio_type":"sound","phase":"test","trial_type":"image-keyboard-response","trial_index":66,"time_elapsed":2613875,"internal_node_id":"0.0-13.0-2.3","match_key":"a","participant_id":"COGS219_2020_25","correct":true},{"rt":null,"stimulus":"Sounds/correct.wav","key_press":null,"block":1,"trial_type":"audio-keyboard-response","trial_index":67,"time_elapsed":2615879,"internal_node_id":"0.0-13.0-3.3","match_key":"a","participant_id":"COGS219_2020_25"},{"rt":null,"stimulus":"Sounds/whistle_label.wav","key_press":null,"block":1,"trial_type":"audio-keyboard-response","trial_index":68,"time_elapsed":2616542,"internal_node_id":"0.0-13.0-0.4","match_key":"a","participant_id":"COGS219_2020_25"},{"rt":null,"stimulus":"<p style=\"font-size: 48px;\">+</p>","key_press":null,"block":1,"trial_type":"html-keyboard-response","trial_index":69,"time_elapsed":2617537,"internal_node_id":"0.0-13.0-1.4","match_key":"a","participant_id":"COGS219_2020_25"},{"rt":625.0950000248849,"stimulus":"Images/whistle_cartoon.png","key_press":65,"stim_onset":1582508947771,"block":1,"match_type":"match","image_category":"whistle","sound_category":"whistle","audio_type":"label","phase":"test","trial_type":"image-keyboard-response","trial_index":70,"time_elapsed":2618163,"internal_node_id":"0.0-13.0-2.4","match_key":"a","participant_id":"COGS219_2020_25","correct":true},{"rt":null,"stimulus":"Sounds/correct.wav","key_press":null,"block":1,"trial_type":"audio-keyboard-response","trial_index":71,"time_elapsed":2620172,"internal_node_id":"0.0-13.0-3.4","match_key":"a","participant_id":"COGS219_2020_25"},{"rt":null,"stimulus":"Sounds/rooster_label.wav","key_press":null,"block":1,"trial_type":"audio-keyboard-response","trial_index":72,"time_elapsed":2620862,"internal_node_id":"0.0-13.0-0.5","match_key":"a","participant_id":"COGS219_2020_25"},{"rt":null,"stimulus":"<p style=\"font-size: 48px;\">+</p>","key_press":null,"block":1,"trial_type":"html-keyboard-response","trial_index":73,"time_elapsed":2621854,"internal_node_id":"0.0-13.0-1.5","match_key":"a","participant_id":"COGS219_2020_25"},{"rt":500.39500009734184,"stimulus":"Images/dog_orig.png","key_press":76,"stim_onset":1582508952088,"block":1,"match_type":"non-match","image_category":"dog","sound_category":"rooster","audio_type":"label","phase":"test","trial_type":"image-keyboard-response","trial_index":74,"time_elapsed":2622355,"internal_node_id":"0.0-13.0-2.5","match_key":"a","participant_id":"COGS219_2020_25","correct":true},{"rt":null,"stimulus":"Sounds/correct.wav","key_press":null,"block":1,"trial_type":"audio-keyboard-response","trial_index":75,"time_elapsed":2624364,"internal_node_id":"0.0-13.0-3.5","match_key":"a","participant_id":"COGS219_2020_25"},{"rt":null,"stimulus":"Sounds/train_label.wav","key_press":null,"block":1,"trial_type":"audio-keyboard-response","trial_index":76,"time_elapsed":2625642,"internal_node_id":"0.0-13.0-0.6","match_key":"a","participant_id":"COGS219_2020_25"},{"rt":null,"stimulus":"<p style=\"font-size: 48px;\">+</p>","key_press":null,"block":1,"trial_type":"html-keyboard-response","trial_index":77,"time_elapsed":2626637,"internal_node_id":"0.0-13.0-1.6","match_key":"a","participant_id":"COGS219_2020_25"},{"rt":492.824999964796,"stimulus":"Images/car_orig.png","key_press":76,"stim_onset":1582508956871,"block":1,"match_type":"non-match","image_category":"car","sound_category":"train","audio_type":"label","phase":"test","trial_type":"image-keyboard-response","trial_index":78,"time_elapsed":2627132,"internal_node_id":"0.0-13.0-2.6","match_key":"a","participant_id":"COGS219_2020_25","correct":true},{"rt":null,"stimulus":"Sounds/correct.wav","key_press":null,"block":1,"trial_type":"audio-keyboard-response","trial_index":79,"time_elapsed":2629148,"internal_node_id":"0.0-13.0-3.6","match_key":"a","participant_id":"COGS219_2020_25"},{"rt":null,"stimulus":"Sounds/car_sound.wav","key_press":null,"block":1,"trial_type":"audio-keyboard-response","trial_index":80,"time_elapsed":2630222,"internal_node_id":"0.0-13.0-0.7","match_key":"a","participant_id":"COGS219_2020_25"},{"rt":null,"stimulus":"<p style=\"font-size: 48px;\">+</p>","key_press":null,"block":1,"trial_type":"html-keyboard-response","trial_index":81,"time_elapsed":2631221,"internal_node_id":"0.0-13.0-1.7","match_key":"a","participant_id":"COGS219_2020_25"},{"rt":701.9800000125542,"stimulus":"Images/train_cartoon.png","key_press":76,"stim_onset":1582508961455,"block":1,"match_type":"non-match","image_category":"train","sound_category":"car","audio_type":"sound","phase":"test","trial_type":"image-keyboard-response","trial_index":82,"time_elapsed":2631924,"internal_node_id":"0.0-13.0-2.7","match_key":"a","participant_id":"COGS219_2020_25","correct":true},{"rt":null,"stimulus":"Sounds/correct.wav","key_press":null,"block":1,"trial_type":"audio-keyboard-response","trial_index":83,"time_elapsed":2633935,"internal_node_id":"0.0-13.0-3.7","match_key":"a","participant_id":"COGS219_2020_25"},{"rt":null,"stimulus":"Sounds/dog_label.wav","key_press":null,"block":1,"trial_type":"audio-keyboard-response","trial_index":84,"time_elapsed":2634602,"internal_node_id":"0.0-13.0-0.8","match_key":"a","participant_id":"COGS219_2020_25"},{"rt":null,"stimulus":"<p style=\"font-size: 48px;\">+</p>","key_press":null,"block":1,"trial_type":"html-keyboard-response","trial_index":85,"time_elapsed":2635604,"internal_node_id":"0.0-13.0-1.8","match_key":"a","participant_id":"COGS219_2020_25"},{"rt":550.4750000545755,"stimulus":"Images/cow_2.png","key_press":76,"stim_onset":1582508965838,"block":1,"match_type":"non-match","image_category":"cow","sound_category":"dog","audio_type":"label","phase":"test","trial_type":"image-keyboard-response","trial_index":86,"time_elapsed":2636156,"internal_node_id":"0.0-13.0-2.8","match_key":"a","participant_id":"COGS219_2020_25","correct":true},{"rt":null,"stimulus":"Sounds/correct.wav","key_press":null,"block":1,"trial_type":"audio-keyboard-response","trial_index":87,"time_elapsed":2638161,"internal_node_id":"0.0-13.0-3.8","match_key":"a","participant_id":"COGS219_2020_25"},{"rt":null,"stimulus":"Sounds/motorcycle_sound.wav","key_press":null,"block":1,"trial_type":"audio-keyboard-response","trial_index":88,"time_elapsed":2639282,"internal_node_id":"0.0-13.0-0.9","match_key":"a","participant_id":"COGS219_2020_25"},{"rt":null,"stimulus":"<p style=\"font-size: 48px;\">+</p>","key_press":null,"block":1,"trial_type":"html-keyboard-response","trial_index":89,"time_elapsed":2640288,"internal_node_id":"0.0-13.0-1.9","match_key":"a","participant_id":"COGS219_2020_25"},{"rt":531.3999999780208,"stimulus":"Images/whistle_cartoon.png","key_press":76,"stim_onset":1582508970521,"block":1,"match_type":"non-match","image_category":"whistle","sound_category":"motorcycle","audio_type":"sound","phase":"test","trial_type":"image-keyboard-response","trial_index":90,"time_elapsed":2640820,"internal_node_id":"0.0-13.0-2.9","match_key":"a","participant_id":"COGS219_2020_25","correct":true},{"rt":null,"stimulus":"Sounds/correct.wav","key_press":null,"block":1,"trial_type":"audio-keyboard-response","trial_index":91,"time_elapsed":2642829,"internal_node_id":"0.0-13.0-3.9","match_key":"a","participant_id":"COGS219_2020_25"},{"rt":null,"stimulus":"Sounds/dog_label.wav","key_press":null,"block":1,"trial_type":"audio-keyboard-response","trial_index":92,"time_elapsed":2643462,"internal_node_id":"0.0-13.0-0.10","match_key":"a","participant_id":"COGS219_2020_25"},{"rt":null,"stimulus":"<p style=\"font-size: 48px;\">+</p>","key_press":null,"block":1,"trial_type":"html-keyboard-response","trial_index":93,"time_elapsed":2644454,"internal_node_id":"0.0-13.0-1.10","match_key":"a","participant_id":"COGS219_2020_25"},{"rt":572.4049999844283,"stimulus":"Images/rooster_cartoon.png","key_press":76,"stim_onset":1582508974688,"block":1,"match_type":"non-match","image_category":"rooster","sound_category":"dog","audio_type":"label","phase":"test","trial_type":"image-keyboard-response","trial_index":94,"time_elapsed":2645028,"internal_node_id":"0.0-13.0-2.10","match_key":"a","participant_id":"COGS219_2020_25","correct":true},{"rt":null,"stimulus":"Sounds/correct.wav","key_press":null,"block":1,"trial_type":"audio-keyboard-response","trial_index":95,"time_elapsed":2647045,"internal_node_id":"0.0-13.0-3.10","match_key":"a","participant_id":"COGS219_2020_25"},{"rt":null,"stimulus":"Sounds/dog_sound.wav","key_press":null,"block":1,"trial_type":"audio-keyboard-response","trial_index":96,"time_elapsed":2647762,"internal_node_id":"0.0-13.0-0.11","match_key":"a","participant_id":"COGS219_2020_25"},{"rt":null,"stimulus":"<p style=\"font-size: 48px;\">+</p>","key_press":null,"block":1,"trial_type":"html-keyboard-response","trial_index":97,"time_elapsed":2648757,"internal_node_id":"0.0-13.0-1.11","match_key":"a","participant_id":"COGS219_2020_25"},{"rt":472.2750000655651,"stimulus":"Images/motorcycle_3.png","key_press":76,"stim_onset":1582508978991,"block":1,"match_type":"non-match","image_category":"motorcycle","sound_category":"dog","audio_type":"sound","phase":"test","trial_type":"image-keyboard-response","trial_index":98,"time_elapsed":2649230,"internal_node_id":"0.0-13.0-2.11","match_key":"a","participant_id":"COGS219_2020_25","correct":true},{"rt":null,"stimulus":"Sounds/correct.wav","key_press":null,"block":1,"trial_type":"audio-keyboard-response","trial_index":99,"time_elapsed":2651246,"internal_node_id":"0.0-13.0-3.11","match_key":"a","participant_id":"COGS219_2020_25"},{"rt":null,"stimulus":"Sounds/gun_sound.wav","key_press":null,"block":1,"trial_type":"audio-keyboard-response","trial_index":100,"time_elapsed":2651825,"internal_node_id":"0.0-13.0-0.12","match_key":"a","participant_id":"COGS219_2020_25"},{"rt":null,"stimulus":"<p style=\"font-size: 48px;\">+</p>","key_press":null,"block":1,"trial_type":"html-keyboard-response","trial_index":101,"time_elapsed":2652824,"internal_node_id":"0.0-13.0-1.12","match_key":"a","participant_id":"COGS219_2020_25"},{"rt":717.7699999883771,"stimulus":"Images/gun_cartoon.png","key_press":65,"stim_onset":1582508983058,"block":1,"match_type":"match","image_category":"gun","sound_category":"gun","audio_type":"sound","phase":"test","trial_type":"image-keyboard-response","trial_index":102,"time_elapsed":2653543,"internal_node_id":"0.0-13.0-2.12","match_key":"a","participant_id":"COGS219_2020_25","correct":true},{"rt":null,"stimulus":"Sounds/correct.wav","key_press":null,"block":1,"trial_type":"audio-keyboard-response","trial_index":103,"time_elapsed":2655552,"internal_node_id":"0.0-13.0-3.12","match_key":"a","participant_id":"COGS219_2020_25"},{"rt":null,"stimulus":"Sounds/train_sound.wav","key_press":null,"block":1,"trial_type":"audio-keyboard-response","trial_index":104,"time_elapsed":2656845,"internal_node_id":"0.0-13.0-0.13","match_key":"a","participant_id":"COGS219_2020_25"},{"rt":null,"stimulus":"<p style=\"font-size: 48px;\">+</p>","key_press":null,"block":1,"trial_type":"html-keyboard-response","trial_index":105,"time_elapsed":2657840,"internal_node_id":"0.0-13.0-1.13","match_key":"a","participant_id":"COGS219_2020_25"},{"rt":764.9700000183657,"stimulus":"Images/train_3.png","key_press":65,"stim_onset":1582508988075,"block":1,"match_type":"match","image_category":"train","sound_category":"train","audio_type":"sound","phase":"test","trial_type":"image-keyboard-response","trial_index":106,"time_elapsed":2658606,"internal_node_id":"0.0-13.0-2.13","match_key":"a","participant_id":"COGS219_2020_25","correct":true},{"rt":null,"stimulus":"Sounds/correct.wav","key_press":null,"block":1,"trial_type":"audio-keyboard-response","trial_index":107,"time_elapsed":2660616,"internal_node_id":"0.0-13.0-3.13","match_key":"a","participant_id":"COGS219_2020_25"},{"rt":null,"stimulus":"Sounds/cow_sound.wav","key_press":null,"block":1,"trial_type":"audio-keyboard-response","trial_index":108,"time_elapsed":2661625,"internal_node_id":"0.0-13.0-0.14","match_key":"a","participant_id":"COGS219_2020_25"},{"rt":null,"stimulus":"<p style=\"font-size: 48px;\">+</p>","key_press":null,"block":1,"trial_type":"html-keyboard-response","trial_index":109,"time_elapsed":2662624,"internal_node_id":"0.0-13.0-1.14","match_key":"a","participant_id":"COGS219_2020_25"},{"rt":485.6249999720603,"stimulus":"Images/cow_cartoon.png","key_press":65,"stim_onset":1582508992858,"block":1,"match_type":"match","image_category":"cow","sound_category":"cow","audio_type":"sound","phase":"test","trial_type":"image-keyboard-response","trial_index":110,"time_elapsed":2663111,"internal_node_id":"0.0-13.0-2.14","match_key":"a","participant_id":"COGS219_2020_25","correct":true},{"rt":null,"stimulus":"Sounds/correct.wav","key_press":null,"block":1,"trial_type":"audio-keyboard-response","trial_index":111,"time_elapsed":2665120,"internal_node_id":"0.0-13.0-3.14","match_key":"a","participant_id":"COGS219_2020_25"},{"rt":null,"stimulus":"Sounds/cow_sound.wav","key_press":null,"block":1,"trial_type":"audio-keyboard-response","trial_index":112,"time_elapsed":2666105,"internal_node_id":"0.0-13.0-0.15","match_key":"a","participant_id":"COGS219_2020_25"},{"rt":null,"stimulus":"<p style=\"font-size: 48px;\">+</p>","key_press":null,"block":1,"trial_type":"html-keyboard-response","trial_index":113,"time_elapsed":2667107,"internal_node_id":"0.0-13.0-1.15","match_key":"a","participant_id":"COGS219_2020_25"},{"rt":538.4449999546632,"stimulus":"Images/cow_orig.png","key_press":65,"stim_onset":1582508997342,"block":1,"match_type":"match","image_category":"cow","sound_category":"cow","audio_type":"sound","phase":"test","trial_type":"image-keyboard-response","trial_index":114,"time_elapsed":2667647,"internal_node_id":"0.0-13.0-2.15","match_key":"a","participant_id":"COGS219_2020_25","correct":true},{"rt":null,"stimulus":"Sounds/correct.wav","key_press":null,"block":1,"trial_type":"audio-keyboard-response","trial_index":115,"time_elapsed":2669650,"internal_node_id":"0.0-13.0-3.15","match_key":"a","participant_id":"COGS219_2020_25"},{"rt":null,"stimulus":"Sounds/whistle_label.wav","key_press":null,"block":1,"trial_type":"audio-keyboard-response","trial_index":116,"time_elapsed":2670345,"internal_node_id":"0.0-13.0-0.16","match_key":"a","participant_id":"COGS219_2020_25"},{"rt":null,"stimulus":"<p style=\"font-size: 48px;\">+</p>","key_press":null,"block":1,"trial_type":"html-keyboard-response","trial_index":117,"time_elapsed":2671341,"internal_node_id":"0.0-13.0-1.16","match_key":"a","participant_id":"COGS219_2020_25"},{"rt":736.7950000334531,"stimulus":"Images/car_cartoon.png","key_press":76,"stim_onset":1582509001575,"block":1,"match_type":"non-match","image_category":"car","sound_category":"whistle","audio_type":"label","phase":"test","trial_type":"image-keyboard-response","trial_index":118,"time_elapsed":2672079,"internal_node_id":"0.0-13.0-2.16","match_key":"a","participant_id":"COGS219_2020_25","correct":true},{"rt":null,"stimulus":"Sounds/correct.wav","key_press":null,"block":1,"trial_type":"audio-keyboard-response","trial_index":119,"time_elapsed":2674084,"internal_node_id":"0.0-13.0-3.16","match_key":"a","participant_id":"COGS219_2020_25"},{"rt":null,"stimulus":"Sounds/rooster_sound.wav","key_press":null,"block":1,"trial_type":"audio-keyboard-response","trial_index":120,"time_elapsed":2674785,"internal_node_id":"0.0-13.0-0.17","match_key":"a","participant_id":"COGS219_2020_25"},{"rt":null,"stimulus":"<p style=\"font-size: 48px;\">+</p>","key_press":null,"block":1,"trial_type":"html-keyboard-response","trial_index":121,"time_elapsed":2675774,"internal_node_id":"0.0-13.0-1.17","match_key":"a","participant_id":"COGS219_2020_25"},{"rt":463.274999987334,"stimulus":"Images/whistle_orig.png","key_press":76,"stim_onset":1582509006008,"block":1,"match_type":"non-match","image_category":"whistle","sound_category":"rooster","audio_type":"sound","phase":"test","trial_type":"image-keyboard-response","trial_index":122,"time_elapsed":2676238,"internal_node_id":"0.0-13.0-2.17","match_key":"a","participant_id":"COGS219_2020_25","correct":true},{"rt":null,"stimulus":"Sounds/correct.wav","key_press":null,"block":1,"trial_type":"audio-keyboard-response","trial_index":123,"time_elapsed":2678255,"internal_node_id":"0.0-13.0-3.17","match_key":"a","participant_id":"COGS219_2020_25"},{"rt":null,"stimulus":"Sounds/cat_sound.wav","key_press":null,"block":1,"trial_type":"audio-keyboard-response","trial_index":124,"time_elapsed":2679085,"internal_node_id":"0.0-13.0-0.18","match_key":"a","participant_id":"COGS219_2020_25"},{"rt":null,"stimulus":"<p style=\"font-size: 48px;\">+</p>","key_press":null,"block":1,"trial_type":"html-keyboard-response","trial_index":125,"time_elapsed":2680074,"internal_node_id":"0.0-13.0-1.18","match_key":"a","participant_id":"COGS219_2020_25"},{"rt":595.5000000540167,"stimulus":"Images/cat_cartoon.png","key_press":65,"stim_onset":1582509010308,"block":1,"match_type":"match","image_category":"cat","sound_category":"cat","audio_type":"sound","phase":"test","trial_type":"image-keyboard-response","trial_index":126,"time_elapsed":2680671,"internal_node_id":"0.0-13.0-2.18","match_key":"a","participant_id":"COGS219_2020_25","correct":true},{"rt":null,"stimulus":"Sounds/correct.wav","key_press":null,"block":1,"trial_type":"audio-keyboard-response","trial_index":127,"time_elapsed":2682678,"internal_node_id":"0.0-13.0-3.18","match_key":"a","participant_id":"COGS219_2020_25"},{"rt":null,"stimulus":"Sounds/train_sound.wav","key_press":null,"block":1,"trial_type":"audio-keyboard-response","trial_index":128,"time_elapsed":2683985,"internal_node_id":"0.0-13.0-0.19","match_key":"a","participant_id":"COGS219_2020_25"},{"rt":null,"stimulus":"<p style=\"font-size: 48px;\">+</p>","key_press":null,"block":1,"trial_type":"html-keyboard-response","trial_index":129,"time_elapsed":2684991,"internal_node_id":"0.0-13.0-1.19","match_key":"a","participant_id":"COGS219_2020_25"},{"rt":478.5149999661371,"stimulus":"Images/train_cartoon.png","key_press":65,"stim_onset":1582509015225,"block":1,"match_type":"match","image_category":"train","sound_category":"train","audio_type":"sound","phase":"test","trial_type":"image-keyboard-response","trial_index":130,"time_elapsed":2685471,"internal_node_id":"0.0-13.0-2.19","match_key":"a","participant_id":"COGS219_2020_25","correct":true},{"rt":null,"stimulus":"Sounds/correct.wav","key_press":null,"block":1,"trial_type":"audio-keyboard-response","trial_index":131,"time_elapsed":2687484,"internal_node_id":"0.0-13.0-3.19","match_key":"a","participant_id":"COGS219_2020_25"},{"rt":null,"stimulus":"Sounds/rooster_label.wav","key_press":null,"block":1,"trial_type":"audio-keyboard-response","trial_index":132,"time_elapsed":2688185,"internal_node_id":"0.0-13.0-0.20","match_key":"a","participant_id":"COGS219_2020_25"},{"rt":null,"stimulus":"<p style=\"font-size: 48px;\">+</p>","key_press":null,"block":1,"trial_type":"html-keyboard-response","trial_index":133,"time_elapsed":2689174,"internal_node_id":"0.0-13.0-1.20","match_key":"a","participant_id":"COGS219_2020_25"},{"rt":703.1300000380725,"stimulus":"Images/rooster_cartoon.png","key_press":65,"stim_onset":1582509019408,"block":1,"match_type":"match","image_category":"rooster","sound_category":"rooster","audio_type":"label","phase":"test","trial_type":"image-keyboard-response","trial_index":134,"time_elapsed":2689879,"internal_node_id":"0.0-13.0-2.20","match_key":"a","participant_id":"COGS219_2020_25","correct":true},{"rt":null,"stimulus":"Sounds/correct.wav","key_press":null,"block":1,"trial_type":"audio-keyboard-response","trial_index":135,"time_elapsed":2691888,"internal_node_id":"0.0-13.0-3.20","match_key":"a","participant_id":"COGS219_2020_25"},{"rt":null,"stimulus":"Sounds/cat_label.wav","key_press":null,"block":1,"trial_type":"audio-keyboard-response","trial_index":136,"time_elapsed":2692725,"internal_node_id":"0.0-13.0-0.21","match_key":"a","participant_id":"COGS219_2020_25"},{"rt":null,"stimulus":"<p style=\"font-size: 48px;\">+</p>","key_press":null,"block":1,"trial_type":"html-keyboard-response","trial_index":137,"time_elapsed":2693724,"internal_node_id":"0.0-13.0-1.21","match_key":"a","participant_id":"COGS219_2020_25"},{"rt":425.3249999601394,"stimulus":"Images/cat_orig.png","key_press":65,"stim_onset":1582509023958,"block":1,"match_type":"match","image_category":"cat","sound_category":"cat","audio_type":"label","phase":"test","trial_type":"image-keyboard-response","trial_index":138,"time_elapsed":2694151,"internal_node_id":"0.0-13.0-2.21","match_key":"a","participant_id":"COGS219_2020_25","correct":true},{"rt":null,"stimulus":"Sounds/correct.wav","key_press":null,"block":1,"trial_type":"audio-keyboard-response","trial_index":139,"time_elapsed":2696157,"internal_node_id":"0.0-13.0-3.21","match_key":"a","participant_id":"COGS219_2020_25"},{"rt":null,"stimulus":"Sounds/rooster_sound.wav","key_press":null,"block":1,"trial_type":"audio-keyboard-response","trial_index":140,"time_elapsed":2696845,"internal_node_id":"0.0-13.0-0.22","match_key":"a","participant_id":"COGS219_2020_25"},{"rt":null,"stimulus":"<p style=\"font-size: 48px;\">+</p>","key_press":null,"block":1,"trial_type":"html-keyboard-response","trial_index":141,"time_elapsed":2697841,"internal_node_id":"0.0-13.0-1.22","match_key":"a","participant_id":"COGS219_2020_25"},{"rt":444.45499998982996,"stimulus":"Images/gun_2.png","key_press":76,"stim_onset":1582509028075,"block":1,"match_type":"non-match","image_category":"gun","sound_category":"rooster","audio_type":"sound","phase":"test","trial_type":"image-keyboard-response","trial_index":142,"time_elapsed":2698286,"internal_node_id":"0.0-13.0-2.22","match_key":"a","participant_id":"COGS219_2020_25","correct":true},{"rt":null,"stimulus":"Sounds/correct.wav","key_press":null,"block":1,"trial_type":"audio-keyboard-response","trial_index":143,"time_elapsed":2700289,"internal_node_id":"0.0-13.0-3.22","match_key":"a","participant_id":"COGS219_2020_25"},{"rt":null,"stimulus":"Sounds/frog_label.wav","key_press":null,"block":1,"trial_type":"audio-keyboard-response","trial_index":144,"time_elapsed":2701185,"internal_node_id":"0.0-13.0-0.23","match_key":"a","participant_id":"COGS219_2020_25"},{"rt":null,"stimulus":"<p style=\"font-size: 48px;\">+</p>","key_press":null,"block":1,"trial_type":"html-keyboard-response","trial_index":145,"time_elapsed":2702191,"internal_node_id":"0.0-13.0-1.23","match_key":"a","participant_id":"COGS219_2020_25"},{"rt":557.9050000524148,"stimulus":"Images/gun_3.png","key_press":76,"stim_onset":1582509032426,"block":1,"match_type":"non-match","image_category":"gun","sound_category":"frog","audio_type":"label","phase":"test","trial_type":"image-keyboard-response","trial_index":146,"time_elapsed":2702750,"internal_node_id":"0.0-13.0-2.23","match_key":"a","participant_id":"COGS219_2020_25","correct":true},{"rt":null,"stimulus":"Sounds/correct.wav","key_press":null,"block":1,"trial_type":"audio-keyboard-response","trial_index":147,"time_elapsed":2704763,"internal_node_id":"0.0-13.0-3.23","match_key":"a","participant_id":"COGS219_2020_25"},{"rt":null,"stimulus":"Sounds/cow_sound.wav","key_press":null,"block":1,"trial_type":"audio-keyboard-response","trial_index":148,"time_elapsed":2705785,"internal_node_id":"0.0-13.0-0.24","match_key":"a","participant_id":"COGS219_2020_25"},{"rt":null,"stimulus":"<p style=\"font-size: 48px;\">+</p>","key_press":null,"block":1,"trial_type":"html-keyboard-response","trial_index":149,"time_elapsed":2706774,"internal_node_id":"0.0-13.0-1.24","match_key":"a","participant_id":"COGS219_2020_25"},{"rt":703.440000070259,"stimulus":"Images/frog_1.png","key_press":76,"stim_onset":1582509037009,"block":1,"match_type":"non-match","image_category":"frog","sound_category":"cow","audio_type":"sound","phase":"test","trial_type":"image-keyboard-response","trial_index":150,"time_elapsed":2707479,"internal_node_id":"0.0-13.0-2.24","match_key":"a","participant_id":"COGS219_2020_25","correct":true},{"rt":null,"stimulus":"Sounds/correct.wav","key_press":null,"block":1,"trial_type":"audio-keyboard-response","trial_index":151,"time_elapsed":2709487,"internal_node_id":"0.0-13.0-3.24","match_key":"a","participant_id":"COGS219_2020_25"},{"rt":null,"stimulus":"Sounds/rooster_sound.wav","key_press":null,"block":1,"trial_type":"audio-keyboard-response","trial_index":152,"time_elapsed":2710165,"internal_node_id":"0.0-13.0-0.25","match_key":"a","participant_id":"COGS219_2020_25"},{"rt":null,"stimulus":"<p style=\"font-size: 48px;\">+</p>","key_press":null,"block":1,"trial_type":"html-keyboard-response","trial_index":153,"time_elapsed":2711158,"internal_node_id":"0.0-13.0-1.25","match_key":"a","participant_id":"COGS219_2020_25"},{"rt":646.8850000528619,"stimulus":"Images/rooster_orig.png","key_press":65,"stim_onset":1582509041392,"block":1,"match_type":"match","image_category":"rooster","sound_category":"rooster","audio_type":"sound","phase":"test","trial_type":"image-keyboard-response","trial_index":154,"time_elapsed":2711806,"internal_node_id":"0.0-13.0-2.25","match_key":"a","participant_id":"COGS219_2020_25","correct":true},{"rt":null,"stimulus":"Sounds/correct.wav","key_press":null,"block":1,"trial_type":"audio-keyboard-response","trial_index":155,"time_elapsed":2713823,"internal_node_id":"0.0-13.0-3.25","match_key":"a","participant_id":"COGS219_2020_25"},{"rt":null,"stimulus":"Sounds/motorcycle_sound.wav","key_press":null,"block":1,"trial_type":"audio-keyboard-response","trial_index":156,"time_elapsed":2714945,"internal_node_id":"0.0-13.0-0.26","match_key":"a","participant_id":"COGS219_2020_25"},{"rt":null,"stimulus":"<p style=\"font-size: 48px;\">+</p>","key_press":null,"block":1,"trial_type":"html-keyboard-response","trial_index":157,"time_elapsed":2715941,"internal_node_id":"0.0-13.0-1.26","match_key":"a","participant_id":"COGS219_2020_25"},{"rt":488.3699999190867,"stimulus":"Images/frog_orig.png","key_press":76,"stim_onset":1582509046175,"block":1,"match_type":"non-match","image_category":"frog","sound_category":"motorcycle","audio_type":"sound","phase":"test","trial_type":"image-keyboard-response","trial_index":158,"time_elapsed":2716430,"internal_node_id":"0.0-13.0-2.26","match_key":"a","participant_id":"COGS219_2020_25","correct":true},{"rt":null,"stimulus":"Sounds/correct.wav","key_press":null,"block":1,"trial_type":"audio-keyboard-response","trial_index":159,"time_elapsed":2718435,"internal_node_id":"0.0-13.0-3.26","match_key":"a","participant_id":"COGS219_2020_25"},{"rt":null,"stimulus":"Sounds/car_label.wav","key_press":null,"block":1,"trial_type":"audio-keyboard-response","trial_index":160,"time_elapsed":2719505,"internal_node_id":"0.0-13.0-0.27","match_key":"a","participant_id":"COGS219_2020_25"},{"rt":null,"stimulus":"<p style=\"font-size: 48px;\">+</p>","key_press":null,"block":1,"trial_type":"html-keyboard-response","trial_index":161,"time_elapsed":2720508,"internal_node_id":"0.0-13.0-1.27","match_key":"a","participant_id":"COGS219_2020_25"},{"rt":441.74000003840774,"stimulus":"Images/cat_2.png","key_press":76,"stim_onset":1582509050742,"block":1,"match_type":"non-match","image_category":"cat","sound_category":"car","audio_type":"label","phase":"test","trial_type":"image-keyboard-response","trial_index":162,"time_elapsed":2720951,"internal_node_id":"0.0-13.0-2.27","match_key":"a","participant_id":"COGS219_2020_25","correct":true},{"rt":null,"stimulus":"Sounds/correct.wav","key_press":null,"block":1,"trial_type":"audio-keyboard-response","trial_index":163,"time_elapsed":2722956,"internal_node_id":"0.0-13.0-3.27","match_key":"a","participant_id":"COGS219_2020_25"},{"rt":null,"stimulus":"Sounds/whistle_label.wav","key_press":null,"block":1,"trial_type":"audio-keyboard-response","trial_index":164,"time_elapsed":2723645,"internal_node_id":"0.0-13.0-0.28","match_key":"a","participant_id":"COGS219_2020_25"},{"rt":null,"stimulus":"<p style=\"font-size: 48px;\">+</p>","key_press":null,"block":1,"trial_type":"html-keyboard-response","trial_index":165,"time_elapsed":2724641,"internal_node_id":"0.0-13.0-1.28","match_key":"a","participant_id":"COGS219_2020_25"},{"rt":548.369999974966,"stimulus":"Images/dog_cartoon.png","key_press":76,"stim_onset":1582509054875,"block":1,"match_type":"non-match","image_category":"dog","sound_category":"whistle","audio_type":"label","phase":"test","trial_type":"image-keyboard-response","trial_index":166,"time_elapsed":2725191,"internal_node_id":"0.0-13.0-2.28","match_key":"a","participant_id":"COGS219_2020_25","correct":true},{"rt":null,"stimulus":"Sounds/correct.wav","key_press":null,"block":1,"trial_type":"audio-keyboard-response","trial_index":167,"time_elapsed":2727199,"internal_node_id":"0.0-13.0-3.28","match_key":"a","participant_id":"COGS219_2020_25"},{"rt":null,"stimulus":"Sounds/frog_label.wav","key_press":null,"block":1,"trial_type":"audio-keyboard-response","trial_index":168,"time_elapsed":2728105,"internal_node_id":"0.0-13.0-0.29","match_key":"a","participant_id":"COGS219_2020_25"},{"rt":null,"stimulus":"<p style=\"font-size: 48px;\">+</p>","key_press":null,"block":1,"trial_type":"html-keyboard-response","trial_index":169,"time_elapsed":2729108,"internal_node_id":"0.0-13.0-1.29","match_key":"a","participant_id":"COGS219_2020_25"},{"rt":521.1600000038743,"stimulus":"Images/frog_3.png","key_press":65,"stim_onset":1582509059342,"block":1,"match_type":"match","image_category":"frog","sound_category":"frog","audio_type":"label","phase":"test","trial_type":"image-keyboard-response","trial_index":170,"time_elapsed":2729630,"internal_node_id":"0.0-13.0-2.29","match_key":"a","participant_id":"COGS219_2020_25","correct":true},{"rt":null,"stimulus":"Sounds/correct.wav","key_press":null,"block":1,"trial_type":"audio-keyboard-response","trial_index":171,"time_elapsed":2731648,"internal_node_id":"0.0-13.0-3.29","match_key":"a","participant_id":"COGS219_2020_25"},{"rt":null,"stimulus":"Sounds/dog_sound.wav","key_press":null,"block":1,"trial_type":"audio-keyboard-response","trial_index":172,"time_elapsed":2732365,"internal_node_id":"0.0-13.0-0.30","match_key":"a","participant_id":"COGS219_2020_25"},{"rt":null,"stimulus":"<p style=\"font-size: 48px;\">+</p>","key_press":null,"block":1,"trial_type":"html-keyboard-response","trial_index":173,"time_elapsed":2733358,"internal_node_id":"0.0-13.0-1.30","match_key":"a","participant_id":"COGS219_2020_25"},{"rt":655.7099999627098,"stimulus":"Images/dog_cartoon.png","key_press":65,"stim_onset":1582509063592,"block":1,"match_type":"match","image_category":"dog","sound_category":"dog","audio_type":"sound","phase":"test","trial_type":"image-keyboard-response","trial_index":174,"time_elapsed":2734015,"internal_node_id":"0.0-13.0-2.30","match_key":"a","participant_id":"COGS219_2020_25","correct":true},{"rt":null,"stimulus":"Sounds/correct.wav","key_press":null,"block":1,"trial_type":"audio-keyboard-response","trial_index":175,"time_elapsed":2736022,"internal_node_id":"0.0-13.0-3.30","match_key":"a","participant_id":"COGS219_2020_25"},{"rt":null,"stimulus":"Sounds/cat_sound.wav","key_press":null,"block":1,"trial_type":"audio-keyboard-response","trial_index":176,"time_elapsed":2736865,"internal_node_id":"0.0-13.0-0.31","match_key":"a","participant_id":"COGS219_2020_25"},{"rt":null,"stimulus":"<p style=\"font-size: 48px;\">+</p>","key_press":null,"block":1,"trial_type":"html-keyboard-response","trial_index":177,"time_elapsed":2737858,"internal_node_id":"0.0-13.0-1.31","match_key":"a","participant_id":"COGS219_2020_25"},{"rt":507.2449999861419,"stimulus":"Images/cow_cartoon.png","key_press":76,"stim_onset":1582509068092,"block":1,"match_type":"non-match","image_category":"cow","sound_category":"cat","audio_type":"sound","phase":"test","trial_type":"image-keyboard-response","trial_index":178,"time_elapsed":2738366,"internal_node_id":"0.0-13.0-2.31","match_key":"a","participant_id":"COGS219_2020_25","correct":true},{"rt":null,"stimulus":"Sounds/correct.wav","key_press":null,"block":1,"trial_type":"audio-keyboard-response","trial_index":179,"time_elapsed":2740369,"internal_node_id":"0.0-13.0-3.31","match_key":"a","participant_id":"COGS219_2020_25"},{"rt":null,"stimulus":"Sounds/gun_sound.wav","key_press":null,"block":1,"trial_type":"audio-keyboard-response","trial_index":180,"time_elapsed":2740945,"internal_node_id":"0.0-13.0-0.32","match_key":"a","participant_id":"COGS219_2020_25"},{"rt":null,"stimulus":"<p style=\"font-size: 48px;\">+</p>","key_press":null,"block":1,"trial_type":"html-keyboard-response","trial_index":181,"time_elapsed":2741941,"internal_node_id":"0.0-13.0-1.32","match_key":"a","participant_id":"COGS219_2020_25"},{"rt":392.0349999098107,"stimulus":"Images/cat_3.png","key_press":76,"stim_onset":1582509072175,"block":1,"match_type":"non-match","image_category":"cat","sound_category":"gun","audio_type":"sound","phase":"test","trial_type":"image-keyboard-response","trial_index":182,"time_elapsed":2742334,"internal_node_id":"0.0-13.0-2.32","match_key":"a","participant_id":"COGS219_2020_25","correct":true},{"rt":null,"stimulus":"Sounds/correct.wav","key_press":null,"block":1,"trial_type":"audio-keyboard-response","trial_index":183,"time_elapsed":2744344,"internal_node_id":"0.0-13.0-3.32","match_key":"a","participant_id":"COGS219_2020_25"},{"rt":null,"stimulus":"Sounds/dog_sound.wav","key_press":null,"block":1,"trial_type":"audio-keyboard-response","trial_index":184,"time_elapsed":2745045,"internal_node_id":"0.0-13.0-0.33","match_key":"a","participant_id":"COGS219_2020_25"},{"rt":null,"stimulus":"<p style=\"font-size: 48px;\">+</p>","key_press":null,"block":1,"trial_type":"html-keyboard-response","trial_index":185,"time_elapsed":2746041,"internal_node_id":"0.0-13.0-1.33","match_key":"a","participant_id":"COGS219_2020_25"},{"rt":460.3249999927357,"stimulus":"Images/gun_cartoon.png","key_press":76,"stim_onset":1582509076276,"block":1,"match_type":"non-match","image_category":"gun","sound_category":"dog","audio_type":"sound","phase":"test","trial_type":"image-keyboard-response","trial_index":186,"time_elapsed":2746503,"internal_node_id":"0.0-13.0-2.33","match_key":"a","participant_id":"COGS219_2020_25","correct":true},{"rt":null,"stimulus":"Sounds/correct.wav","key_press":null,"block":1,"trial_type":"audio-keyboard-response","trial_index":187,"time_elapsed":2748507,"internal_node_id":"0.0-13.0-3.33","match_key":"a","participant_id":"COGS219_2020_25"},{"rt":null,"stimulus":"Sounds/motorcycle_label.wav","key_press":null,"block":1,"trial_type":"audio-keyboard-response","trial_index":188,"time_elapsed":2749645,"internal_node_id":"0.0-13.0-0.34","match_key":"a","participant_id":"COGS219_2020_25"},{"rt":null,"stimulus":"<p style=\"font-size: 48px;\">+</p>","key_press":null,"block":1,"trial_type":"html-keyboard-response","trial_index":189,"time_elapsed":2750641,"internal_node_id":"0.0-13.0-1.34","match_key":"a","participant_id":"COGS219_2020_25"},{"rt":443.91999999061227,"stimulus":"Images/motorcycle_2.png","key_press":65,"stim_onset":1582509080875,"block":1,"match_type":"match","image_category":"motorcycle","sound_category":"motorcycle","audio_type":"label","phase":"test","trial_type":"image-keyboard-response","trial_index":190,"time_elapsed":2751086,"internal_node_id":"0.0-13.0-2.34","match_key":"a","participant_id":"COGS219_2020_25","correct":true},{"rt":null,"stimulus":"Sounds/correct.wav","key_press":null,"block":1,"trial_type":"audio-keyboard-response","trial_index":191,"time_elapsed":2753090,"internal_node_id":"0.0-13.0-3.34","match_key":"a","participant_id":"COGS219_2020_25"},{"rt":null,"stimulus":"Sounds/frog_label.wav","key_press":null,"block":1,"trial_type":"audio-keyboard-response","trial_index":192,"time_elapsed":2753985,"internal_node_id":"0.0-13.0-0.35","match_key":"a","participant_id":"COGS219_2020_25"},{"rt":null,"stimulus":"<p style=\"font-size: 48px;\">+</p>","key_press":null,"block":1,"trial_type":"html-keyboard-response","trial_index":193,"time_elapsed":2754975,"internal_node_id":"0.0-13.0-1.35","match_key":"a","participant_id":"COGS219_2020_25"},{"rt":734.8449999699369,"stimulus":"Images/frog_1.png","key_press":65,"stim_onset":1582509085209,"block":1,"match_type":"match","image_category":"frog","sound_category":"frog","audio_type":"label","phase":"test","trial_type":"image-keyboard-response","trial_index":194,"time_elapsed":2755710,"internal_node_id":"0.0-13.0-2.35","match_key":"a","participant_id":"COGS219_2020_25","correct":true},{"rt":null,"stimulus":"Sounds/correct.wav","key_press":null,"block":1,"trial_type":"audio-keyboard-response","trial_index":195,"time_elapsed":2757718,"internal_node_id":"0.0-13.0-3.35","match_key":"a","participant_id":"COGS219_2020_25"},{"rt":null,"stimulus":"Sounds/cow_label.wav","key_press":null,"block":1,"trial_type":"audio-keyboard-response","trial_index":196,"time_elapsed":2758745,"internal_node_id":"0.0-13.0-0.36","match_key":"a","participant_id":"COGS219_2020_25"},{"rt":null,"stimulus":"<p style=\"font-size: 48px;\">+</p>","key_press":null,"block":1,"trial_type":"html-keyboard-response","trial_index":197,"time_elapsed":2759741,"internal_node_id":"0.0-13.0-1.36","match_key":"a","participant_id":"COGS219_2020_25"},{"rt":480.0699999323115,"stimulus":"Images/cat_1.png","key_press":76,"stim_onset":1582509089976,"block":1,"match_type":"non-match","image_category":"cat","sound_category":"cow","audio_type":"label","phase":"test","trial_type":"image-keyboard-response","trial_index":198,"time_elapsed":2760223,"internal_node_id":"0.0-13.0-2.36","match_key":"a","participant_id":"COGS219_2020_25","correct":true},{"rt":null,"stimulus":"Sounds/correct.wav","key_press":null,"block":1,"trial_type":"audio-keyboard-response","trial_index":199,"time_elapsed":2762237,"internal_node_id":"0.0-13.0-3.36","match_key":"a","participant_id":"COGS219_2020_25"},{"rt":null,"stimulus":"Sounds/cat_sound.wav","key_press":null,"block":1,"trial_type":"audio-keyboard-response","trial_index":200,"time_elapsed":2763065,"internal_node_id":"0.0-13.0-0.37","match_key":"a","participant_id":"COGS219_2020_25"},{"rt":null,"stimulus":"<p style=\"font-size: 48px;\">+</p>","key_press":null,"block":1,"trial_type":"html-keyboard-response","trial_index":201,"time_elapsed":2764058,"internal_node_id":"0.0-13.0-1.37","match_key":"a","participant_id":"COGS219_2020_25"},{"rt":435.2749999379739,"stimulus":"Images/dog_2.png","key_press":76,"stim_onset":1582509094292,"block":1,"match_type":"non-match","image_category":"dog","sound_category":"cat","audio_type":"sound","phase":"test","trial_type":"image-keyboard-response","trial_index":202,"time_elapsed":2764494,"internal_node_id":"0.0-13.0-2.37","match_key":"a","participant_id":"COGS219_2020_25","correct":true},{"rt":null,"stimulus":"Sounds/correct.wav","key_press":null,"block":1,"trial_type":"audio-keyboard-response","trial_index":203,"time_elapsed":2766508,"internal_node_id":"0.0-13.0-3.37","match_key":"a","participant_id":"COGS219_2020_25"},{"rt":null,"stimulus":"Sounds/motorcycle_sound.wav","key_press":null,"block":1,"trial_type":"audio-keyboard-response","trial_index":204,"time_elapsed":2767625,"internal_node_id":"0.0-13.0-0.38","match_key":"a","participant_id":"COGS219_2020_25"},{"rt":null,"stimulus":"<p style=\"font-size: 48px;\">+</p>","key_press":null,"block":1,"trial_type":"html-keyboard-response","trial_index":205,"time_elapsed":2768625,"internal_node_id":"0.0-13.0-1.38","match_key":"a","participant_id":"COGS219_2020_25"},{"rt":740.3049999848008,"stimulus":"Images/car_2.png","key_press":65,"stim_onset":1582509098859,"block":1,"match_type":"non-match","image_category":"car","sound_category":"motorcycle","audio_type":"sound","phase":"test","trial_type":"image-keyboard-response","trial_index":206,"time_elapsed":2769366,"internal_node_id":"0.0-13.0-2.38","match_key":"a","participant_id":"COGS219_2020_25","correct":false},{"rt":null,"stimulus":"Sounds/incorrect.wav","key_press":null,"block":1,"trial_type":"audio-keyboard-response","trial_index":207,"time_elapsed":2771384,"internal_node_id":"0.0-13.0-3.38","match_key":"a","participant_id":"COGS219_2020_25"},{"rt":null,"stimulus":"Sounds/car_label.wav","key_press":null,"block":1,"trial_type":"audio-keyboard-response","trial_index":208,"time_elapsed":2772465,"internal_node_id":"0.0-13.0-0.39","match_key":"a","participant_id":"COGS219_2020_25"},{"rt":null,"stimulus":"<p style=\"font-size: 48px;\">+</p>","key_press":null,"block":1,"trial_type":"html-keyboard-response","trial_index":209,"time_elapsed":2773458,"internal_node_id":"0.0-13.0-1.39","match_key":"a","participant_id":"COGS219_2020_25"},{"rt":523.285000002943,"stimulus":"Images/motorcycle_1.png","key_press":76,"stim_onset":1582509103692,"block":1,"match_type":"non-match","image_category":"motorcycle","sound_category":"car","audio_type":"label","phase":"test","trial_type":"image-keyboard-response","trial_index":210,"time_elapsed":2773983,"internal_node_id":"0.0-13.0-2.39","match_key":"a","participant_id":"COGS219_2020_25","correct":true},{"rt":null,"stimulus":"Sounds/correct.wav","key_press":null,"block":1,"trial_type":"audio-keyboard-response","trial_index":211,"time_elapsed":2775986,"internal_node_id":"0.0-13.0-3.39","match_key":"a","participant_id":"COGS219_2020_25"},{"rt":null,"stimulus":"Sounds/whistle_label.wav","key_press":null,"block":1,"trial_type":"audio-keyboard-response","trial_index":212,"time_elapsed":2776685,"internal_node_id":"0.0-13.0-0.40","match_key":"a","participant_id":"COGS219_2020_25"},{"rt":null,"stimulus":"<p style=\"font-size: 48px;\">+</p>","key_press":null,"block":1,"trial_type":"html-keyboard-response","trial_index":213,"time_elapsed":2777675,"internal_node_id":"0.0-13.0-1.40","match_key":"a","participant_id":"COGS219_2020_25"},{"rt":434.2999999644235,"stimulus":"Images/whistle_2.png","key_press":65,"stim_onset":1582509107909,"block":1,"match_type":"match","image_category":"whistle","sound_category":"whistle","audio_type":"label","phase":"test","trial_type":"image-keyboard-response","trial_index":214,"time_elapsed":2778110,"internal_node_id":"0.0-13.0-2.40","match_key":"a","participant_id":"COGS219_2020_25","correct":true},{"rt":null,"stimulus":"Sounds/correct.wav","key_press":null,"block":1,"trial_type":"audio-keyboard-response","trial_index":215,"time_elapsed":2780125,"internal_node_id":"0.0-13.0-3.40","match_key":"a","participant_id":"COGS219_2020_25"},{"rt":null,"stimulus":"Sounds/gun_label.wav","key_press":null,"block":1,"trial_type":"audio-keyboard-response","trial_index":216,"time_elapsed":2780705,"internal_node_id":"0.0-13.0-0.41","match_key":"a","participant_id":"COGS219_2020_25"},{"rt":null,"stimulus":"<p style=\"font-size: 48px;\">+</p>","key_press":null,"block":1,"trial_type":"html-keyboard-response","trial_index":217,"time_elapsed":2781708,"internal_node_id":"0.0-13.0-1.41","match_key":"a","participant_id":"COGS219_2020_25"},{"rt":472.7549999952316,"stimulus":"Images/gun_1.png","key_press":65,"stim_onset":1582509111942,"block":1,"match_type":"match","image_category":"gun","sound_category":"gun","audio_type":"label","phase":"test","trial_type":"image-keyboard-response","trial_index":218,"time_elapsed":2782182,"internal_node_id":"0.0-13.0-2.41","match_key":"a","participant_id":"COGS219_2020_25","correct":true},{"rt":null,"stimulus":"Sounds/correct.wav","key_press":null,"block":1,"trial_type":"audio-keyboard-response","trial_index":219,"time_elapsed":2784187,"internal_node_id":"0.0-13.0-3.41","match_key":"a","participant_id":"COGS219_2020_25"},{"rt":null,"stimulus":"Sounds/gun_sound.wav","key_press":null,"block":1,"trial_type":"audio-keyboard-response","trial_index":220,"time_elapsed":2784765,"internal_node_id":"0.0-13.0-0.42","match_key":"a","participant_id":"COGS219_2020_25"},{"rt":null,"stimulus":"<p style=\"font-size: 48px;\">+</p>","key_press":null,"block":1,"trial_type":"html-keyboard-response","trial_index":221,"time_elapsed":2785758,"internal_node_id":"0.0-13.0-1.42","match_key":"a","participant_id":"COGS219_2020_25"},{"rt":463.0749999778345,"stimulus":"Images/gun_3.png","key_press":65,"stim_onset":1582509115993,"block":1,"match_type":"match","image_category":"gun","sound_category":"gun","audio_type":"sound","phase":"test","trial_type":"image-keyboard-response","trial_index":222,"time_elapsed":2786223,"internal_node_id":"0.0-13.0-2.42","match_key":"a","participant_id":"COGS219_2020_25","correct":true},{"rt":null,"stimulus":"Sounds/correct.wav","key_press":null,"block":1,"trial_type":"audio-keyboard-response","trial_index":223,"time_elapsed":2788238,"internal_node_id":"0.0-13.0-3.42","match_key":"a","participant_id":"COGS219_2020_25"},{"rt":null,"stimulus":"Sounds/rooster_sound.wav","key_press":null,"block":1,"trial_type":"audio-keyboard-response","trial_index":224,"time_elapsed":2788945,"internal_node_id":"0.0-13.0-0.43","match_key":"a","participant_id":"COGS219_2020_25"},{"rt":null,"stimulus":"<p style=\"font-size: 48px;\">+</p>","key_press":null,"block":1,"trial_type":"html-keyboard-response","trial_index":225,"time_elapsed":2789942,"internal_node_id":"0.0-13.0-1.43","match_key":"a","participant_id":"COGS219_2020_25"},{"rt":567.4099999014288,"stimulus":"Images/rooster_3.png","key_press":65,"stim_onset":1582509120176,"block":1,"match_type":"match","image_category":"rooster","sound_category":"rooster","audio_type":"sound","phase":"test","trial_type":"image-keyboard-response","trial_index":226,"time_elapsed":2790510,"internal_node_id":"0.0-13.0-2.43","match_key":"a","participant_id":"COGS219_2020_25","correct":true},{"rt":null,"stimulus":"Sounds/correct.wav","key_press":null,"block":1,"trial_type":"audio-keyboard-response","trial_index":227,"time_elapsed":2792520,"internal_node_id":"0.0-13.0-3.43","match_key":"a","participant_id":"COGS219_2020_25"},{"rt":null,"stimulus":"Sounds/motorcycle_sound.wav","key_press":null,"block":1,"trial_type":"audio-keyboard-response","trial_index":228,"time_elapsed":2793645,"internal_node_id":"0.0-13.0-0.44","match_key":"a","participant_id":"COGS219_2020_25"},{"rt":null,"stimulus":"<p style=\"font-size: 48px;\">+</p>","key_press":null,"block":1,"trial_type":"html-keyboard-response","trial_index":229,"time_elapsed":2794642,"internal_node_id":"0.0-13.0-1.44","match_key":"a","participant_id":"COGS219_2020_25"},{"rt":699.4900000281632,"stimulus":"Images/motorcycle_3.png","key_press":65,"stim_onset":1582509124876,"block":1,"match_type":"match","image_category":"motorcycle","sound_category":"motorcycle","audio_type":"sound","phase":"test","trial_type":"image-keyboard-response","trial_index":230,"time_elapsed":2795342,"internal_node_id":"0.0-13.0-2.44","match_key":"a","participant_id":"COGS219_2020_25","correct":true},{"rt":null,"stimulus":"Sounds/correct.wav","key_press":null,"block":1,"trial_type":"audio-keyboard-response","trial_index":231,"time_elapsed":2797354,"internal_node_id":"0.0-13.0-3.44","match_key":"a","participant_id":"COGS219_2020_25"},{"rt":null,"stimulus":"Sounds/frog_label.wav","key_press":null,"block":1,"trial_type":"audio-keyboard-response","trial_index":232,"time_elapsed":2798245,"internal_node_id":"0.0-13.0-0.45","match_key":"a","participant_id":"COGS219_2020_25"},{"rt":null,"stimulus":"<p style=\"font-size: 48px;\">+</p>","key_press":null,"block":1,"trial_type":"html-keyboard-response","trial_index":233,"time_elapsed":2799242,"internal_node_id":"0.0-13.0-1.45","match_key":"a","participant_id":"COGS219_2020_25"},{"rt":571.6450000181794,"stimulus":"Images/frog_cartoon.png","key_press":65,"stim_onset":1582509129476,"block":1,"match_type":"match","image_category":"frog","sound_category":"frog","audio_type":"label","phase":"test","trial_type":"image-keyboard-response","trial_index":234,"time_elapsed":2799815,"internal_node_id":"0.0-13.0-2.45","match_key":"a","participant_id":"COGS219_2020_25","correct":true},{"rt":null,"stimulus":"Sounds/correct.wav","key_press":null,"block":1,"trial_type":"audio-keyboard-response","trial_index":235,"time_elapsed":2801831,"internal_node_id":"0.0-13.0-3.45","match_key":"a","participant_id":"COGS219_2020_25"},{"rt":null,"stimulus":"Sounds/motorcycle_label.wav","key_press":null,"block":1,"trial_type":"audio-keyboard-response","trial_index":236,"time_elapsed":2802965,"internal_node_id":"0.0-13.0-0.46","match_key":"a","participant_id":"COGS219_2020_25"},{"rt":null,"stimulus":"<p style=\"font-size: 48px;\">+</p>","key_press":null,"block":1,"trial_type":"html-keyboard-response","trial_index":237,"time_elapsed":2803959,"internal_node_id":"0.0-13.0-1.46","match_key":"a","participant_id":"COGS219_2020_25"},{"rt":422.71500010974705,"stimulus":"Images/motorcycle_cartoon.png","key_press":65,"stim_onset":1582509134193,"block":1,"match_type":"match","image_category":"motorcycle","sound_category":"motorcycle","audio_type":"label","phase":"test","trial_type":"image-keyboard-response","trial_index":238,"time_elapsed":2804382,"internal_node_id":"0.0-13.0-2.46","match_key":"a","participant_id":"COGS219_2020_25","correct":true},{"rt":null,"stimulus":"Sounds/correct.wav","key_press":null,"block":1,"trial_type":"audio-keyboard-response","trial_index":239,"time_elapsed":2806394,"internal_node_id":"0.0-13.0-3.46","match_key":"a","participant_id":"COGS219_2020_25"},{"rt":null,"stimulus":"Sounds/motorcycle_label.wav","key_press":null,"block":1,"trial_type":"audio-keyboard-response","trial_index":240,"time_elapsed":2807505,"internal_node_id":"0.0-13.0-0.47","match_key":"a","participant_id":"COGS219_2020_25"},{"rt":null,"stimulus":"<p style=\"font-size: 48px;\">+</p>","key_press":null,"block":1,"trial_type":"html-keyboard-response","trial_index":241,"time_elapsed":2808509,"internal_node_id":"0.0-13.0-1.47","match_key":"a","participant_id":"COGS219_2020_25"},{"rt":568.654999951832,"stimulus":"Images/dog_1.png","key_press":76,"stim_onset":1582509138743,"block":1,"match_type":"non-match","image_category":"dog","sound_category":"motorcycle","audio_type":"label","phase":"test","trial_type":"image-keyboard-response","trial_index":242,"time_elapsed":2809078,"internal_node_id":"0.0-13.0-2.47","match_key":"a","participant_id":"COGS219_2020_25","correct":true},{"rt":null,"stimulus":"Sounds/correct.wav","key_press":null,"block":1,"trial_type":"audio-keyboard-response","trial_index":243,"time_elapsed":2811081,"internal_node_id":"0.0-13.0-3.47","match_key":"a","participant_id":"COGS219_2020_25"},{"rt":null,"stimulus":"Sounds/whistle_sound.wav","key_press":null,"block":1,"trial_type":"audio-keyboard-response","trial_index":244,"time_elapsed":2811785,"internal_node_id":"0.0-13.0-0.48","match_key":"a","participant_id":"COGS219_2020_25"},{"rt":null,"stimulus":"<p style=\"font-size: 48px;\">+</p>","key_press":null,"block":1,"trial_type":"html-keyboard-response","trial_index":245,"time_elapsed":2812775,"internal_node_id":"0.0-13.0-1.48","match_key":"a","participant_id":"COGS219_2020_25"},{"rt":478.12500002328306,"stimulus":"Images/train_2.png","key_press":76,"stim_onset":1582509143009,"block":1,"match_type":"non-match","image_category":"train","sound_category":"whistle","audio_type":"sound","phase":"test","trial_type":"image-keyboard-response","trial_index":246,"time_elapsed":2813255,"internal_node_id":"0.0-13.0-2.48","match_key":"a","participant_id":"COGS219_2020_25","correct":true},{"rt":null,"stimulus":"Sounds/correct.wav","key_press":null,"block":1,"trial_type":"audio-keyboard-response","trial_index":247,"time_elapsed":2815271,"internal_node_id":"0.0-13.0-3.48","match_key":"a","participant_id":"COGS219_2020_25"},{"rt":null,"stimulus":"Sounds/whistle_sound.wav","key_press":null,"block":1,"trial_type":"audio-keyboard-response","trial_index":248,"time_elapsed":2815945,"internal_node_id":"0.0-13.0-0.49","match_key":"a","participant_id":"COGS219_2020_25"},{"rt":null,"stimulus":"<p style=\"font-size: 48px;\">+</p>","key_press":null,"block":1,"trial_type":"html-keyboard-response","trial_index":249,"time_elapsed":2816942,"internal_node_id":"0.0-13.0-1.49","match_key":"a","participant_id":"COGS219_2020_25"},{"rt":423.19500003941357,"stimulus":"Images/whistle_1.png","key_press":65,"stim_onset":1582509147176,"block":1,"match_type":"match","image_category":"whistle","sound_category":"whistle","audio_type":"sound","phase":"test","trial_type":"image-keyboard-response","trial_index":250,"time_elapsed":2817366,"internal_node_id":"0.0-13.0-2.49","match_key":"a","participant_id":"COGS219_2020_25","correct":true},{"rt":null,"stimulus":"Sounds/correct.wav","key_press":null,"block":1,"trial_type":"audio-keyboard-response","trial_index":251,"time_elapsed":2819375,"internal_node_id":"0.0-13.0-3.49","match_key":"a","participant_id":"COGS219_2020_25"},{"rt":null,"stimulus":"Sounds/cow_sound.wav","key_press":null,"block":1,"trial_type":"audio-keyboard-response","trial_index":252,"time_elapsed":2820385,"internal_node_id":"0.0-13.0-0.50","match_key":"a","participant_id":"COGS219_2020_25"},{"rt":null,"stimulus":"<p style=\"font-size: 48px;\">+</p>","key_press":null,"block":1,"trial_type":"html-keyboard-response","trial_index":253,"time_elapsed":2821375,"internal_node_id":"0.0-13.0-1.50","match_key":"a","participant_id":"COGS219_2020_25"},{"rt":486.18000000715256,"stimulus":"Images/cow_2.png","key_press":65,"stim_onset":1582509151610,"block":1,"match_type":"match","image_category":"cow","sound_category":"cow","audio_type":"sound","phase":"test","trial_type":"image-keyboard-response","trial_index":254,"time_elapsed":2821863,"internal_node_id":"0.0-13.0-2.50","match_key":"a","participant_id":"COGS219_2020_25","correct":true},{"rt":null,"stimulus":"Sounds/correct.wav","key_press":null,"block":1,"trial_type":"audio-keyboard-response","trial_index":255,"time_elapsed":2823871,"internal_node_id":"0.0-13.0-3.50","match_key":"a","participant_id":"COGS219_2020_25"},{"rt":null,"stimulus":"Sounds/dog_sound.wav","key_press":null,"block":1,"trial_type":"audio-keyboard-response","trial_index":256,"time_elapsed":2824585,"internal_node_id":"0.0-13.0-0.51","match_key":"a","participant_id":"COGS219_2020_25"},{"rt":null,"stimulus":"<p style=\"font-size: 48px;\">+</p>","key_press":null,"block":1,"trial_type":"html-keyboard-response","trial_index":257,"time_elapsed":2825576,"internal_node_id":"0.0-13.0-1.51","match_key":"a","participant_id":"COGS219_2020_25"},{"rt":869.9000000488013,"stimulus":"Images/dog_orig.png","key_press":65,"stim_onset":1582509155810,"block":1,"match_type":"match","image_category":"dog","sound_category":"dog","audio_type":"sound","phase":"test","trial_type":"image-keyboard-response","trial_index":258,"time_elapsed":2826447,"internal_node_id":"0.0-13.0-2.51","match_key":"a","participant_id":"COGS219_2020_25","correct":true},{"rt":null,"stimulus":"Sounds/correct.wav","key_press":null,"block":1,"trial_type":"audio-keyboard-response","trial_index":259,"time_elapsed":2828460,"internal_node_id":"0.0-13.0-3.51","match_key":"a","participant_id":"COGS219_2020_25"},{"rt":null,"stimulus":"Sounds/gun_label.wav","key_press":null,"block":1,"trial_type":"audio-keyboard-response","trial_index":260,"time_elapsed":2829045,"internal_node_id":"0.0-13.0-0.52","match_key":"a","participant_id":"COGS219_2020_25"},{"rt":null,"stimulus":"<p style=\"font-size: 48px;\">+</p>","key_press":null,"block":1,"trial_type":"html-keyboard-response","trial_index":261,"time_elapsed":2830042,"internal_node_id":"0.0-13.0-1.52","match_key":"a","participant_id":"COGS219_2020_25"},{"rt":483.0349999247119,"stimulus":"Images/gun_2.png","key_press":65,"stim_onset":1582509160276,"block":1,"match_type":"match","image_category":"gun","sound_category":"gun","audio_type":"label","phase":"test","trial_type":"image-keyboard-response","trial_index":262,"time_elapsed":2830526,"internal_node_id":"0.0-13.0-2.52","match_key":"a","participant_id":"COGS219_2020_25","correct":true},{"rt":null,"stimulus":"Sounds/correct.wav","key_press":null,"block":1,"trial_type":"audio-keyboard-response","trial_index":263,"time_elapsed":2832538,"internal_node_id":"0.0-13.0-3.52","match_key":"a","participant_id":"COGS219_2020_25"},{"rt":null,"stimulus":"Sounds/cow_label.wav","key_press":null,"block":1,"trial_type":"audio-keyboard-response","trial_index":264,"time_elapsed":2833565,"internal_node_id":"0.0-13.0-0.53","match_key":"a","participant_id":"COGS219_2020_25"},{"rt":null,"stimulus":"<p style=\"font-size: 48px;\">+</p>","key_press":null,"block":1,"trial_type":"html-keyboard-response","trial_index":265,"time_elapsed":2834559,"internal_node_id":"0.0-13.0-1.53","match_key":"a","participant_id":"COGS219_2020_25"},{"rt":590.2500000083819,"stimulus":"Images/cow_3.png","key_press":65,"stim_onset":1582509164793,"block":1,"match_type":"match","image_category":"cow","sound_category":"cow","audio_type":"label","phase":"test","trial_type":"image-keyboard-response","trial_index":266,"time_elapsed":2835150,"internal_node_id":"0.0-13.0-2.53","match_key":"a","participant_id":"COGS219_2020_25","correct":true},{"rt":null,"stimulus":"Sounds/correct.wav","key_press":null,"block":1,"trial_type":"audio-keyboard-response","trial_index":267,"time_elapsed":2837163,"internal_node_id":"0.0-13.0-3.53","match_key":"a","participant_id":"COGS219_2020_25"},{"rt":null,"stimulus":"Sounds/car_sound.wav","key_press":null,"block":1,"trial_type":"audio-keyboard-response","trial_index":268,"time_elapsed":2838245,"internal_node_id":"0.0-13.0-0.54","match_key":"a","participant_id":"COGS219_2020_25"},{"rt":null,"stimulus":"<p style=\"font-size: 48px;\">+</p>","key_press":null,"block":1,"trial_type":"html-keyboard-response","trial_index":269,"time_elapsed":2839243,"internal_node_id":"0.0-13.0-1.54","match_key":"a","participant_id":"COGS219_2020_25"},{"rt":491.11000006087124,"stimulus":"Images/car_2.png","key_press":65,"stim_onset":1582509169477,"block":1,"match_type":"match","image_category":"car","sound_category":"car","audio_type":"sound","phase":"test","trial_type":"image-keyboard-response","trial_index":270,"time_elapsed":2839735,"internal_node_id":"0.0-13.0-2.54","match_key":"a","participant_id":"COGS219_2020_25","correct":true},{"rt":null,"stimulus":"Sounds/correct.wav","key_press":null,"block":1,"trial_type":"audio-keyboard-response","trial_index":271,"time_elapsed":2841746,"internal_node_id":"0.0-13.0-3.54","match_key":"a","participant_id":"COGS219_2020_25"},{"rt":null,"stimulus":"Sounds/frog_sound.wav","key_press":null,"block":1,"trial_type":"audio-keyboard-response","trial_index":272,"time_elapsed":2842645,"internal_node_id":"0.0-13.0-0.55","match_key":"a","participant_id":"COGS219_2020_25"},{"rt":null,"stimulus":"<p style=\"font-size: 48px;\">+</p>","key_press":null,"block":1,"trial_type":"html-keyboard-response","trial_index":273,"time_elapsed":2843643,"internal_node_id":"0.0-13.0-1.55","match_key":"a","participant_id":"COGS219_2020_25"},{"rt":474.9399999855086,"stimulus":"Images/rooster_orig.png","key_press":76,"stim_onset":1582509173877,"block":1,"match_type":"non-match","image_category":"rooster","sound_category":"frog","audio_type":"sound","phase":"test","trial_type":"image-keyboard-response","trial_index":274,"time_elapsed":2844119,"internal_node_id":"0.0-13.0-2.55","match_key":"a","participant_id":"COGS219_2020_25","correct":true},{"rt":null,"stimulus":"Sounds/correct.wav","key_press":null,"block":1,"trial_type":"audio-keyboard-response","trial_index":275,"time_elapsed":2846122,"internal_node_id":"0.0-13.0-3.55","match_key":"a","participant_id":"COGS219_2020_25"},{"rt":null,"stimulus":"Sounds/car_label.wav","key_press":null,"block":1,"trial_type":"audio-keyboard-response","trial_index":276,"time_elapsed":2847205,"internal_node_id":"0.0-13.0-0.56","match_key":"a","participant_id":"COGS219_2020_25"},{"rt":null,"stimulus":"<p style=\"font-size: 48px;\">+</p>","key_press":null,"block":1,"trial_type":"html-keyboard-response","trial_index":277,"time_elapsed":2848209,"internal_node_id":"0.0-13.0-1.56","match_key":"a","participant_id":"COGS219_2020_25"},{"rt":580.2000000840053,"stimulus":"Images/car_orig.png","key_press":65,"stim_onset":1582509178443,"block":1,"match_type":"match","image_category":"car","sound_category":"car","audio_type":"label","phase":"test","trial_type":"image-keyboard-response","trial_index":278,"time_elapsed":2848790,"internal_node_id":"0.0-13.0-2.56","match_key":"a","participant_id":"COGS219_2020_25","correct":true},{"rt":null,"stimulus":"Sounds/correct.wav","key_press":null,"block":1,"trial_type":"audio-keyboard-response","trial_index":279,"time_elapsed":2850800,"internal_node_id":"0.0-13.0-3.56","match_key":"a","participant_id":"COGS219_2020_25"},{"rt":null,"stimulus":"Sounds/dog_label.wav","key_press":null,"block":1,"trial_type":"audio-keyboard-response","trial_index":280,"time_elapsed":2851465,"internal_node_id":"0.0-13.0-0.57","match_key":"a","participant_id":"COGS219_2020_25"},{"rt":null,"stimulus":"<p style=\"font-size: 48px;\">+</p>","key_press":null,"block":1,"trial_type":"html-keyboard-response","trial_index":281,"time_elapsed":2852459,"internal_node_id":"0.0-13.0-1.57","match_key":"a","participant_id":"COGS219_2020_25"},{"rt":546.4800000190735,"stimulus":"Images/dog_2.png","key_press":65,"stim_onset":1582509182693,"block":1,"match_type":"match","image_category":"dog","sound_category":"dog","audio_type":"label","phase":"test","trial_type":"image-keyboard-response","trial_index":282,"time_elapsed":2853007,"internal_node_id":"0.0-13.0-2.57","match_key":"a","participant_id":"COGS219_2020_25","correct":true},{"rt":null,"stimulus":"Sounds/correct.wav","key_press":null,"block":1,"trial_type":"audio-keyboard-response","trial_index":283,"time_elapsed":2855018,"internal_node_id":"0.0-13.0-3.57","match_key":"a","participant_id":"COGS219_2020_25"},{"rt":null,"stimulus":"Sounds/cat_label.wav","key_press":null,"block":1,"trial_type":"audio-keyboard-response","trial_index":284,"time_elapsed":2855865,"internal_node_id":"0.0-13.0-0.58","match_key":"a","participant_id":"COGS219_2020_25"},{"rt":null,"stimulus":"<p style=\"font-size: 48px;\">+</p>","key_press":null,"block":1,"trial_type":"html-keyboard-response","trial_index":285,"time_elapsed":2856859,"internal_node_id":"0.0-13.0-1.58","match_key":"a","participant_id":"COGS219_2020_25"},{"rt":378.08499997481704,"stimulus":"Images/cat_1.png","key_press":65,"stim_onset":1582509187093,"block":1,"match_type":"match","image_category":"cat","sound_category":"cat","audio_type":"label","phase":"test","trial_type":"image-keyboard-response","trial_index":286,"time_elapsed":2857238,"internal_node_id":"0.0-13.0-2.58","match_key":"a","participant_id":"COGS219_2020_25","correct":true},{"rt":null,"stimulus":"Sounds/correct.wav","key_press":null,"block":1,"trial_type":"audio-keyboard-response","trial_index":287,"time_elapsed":2859247,"internal_node_id":"0.0-13.0-3.58","match_key":"a","participant_id":"COGS219_2020_25"},{"rt":null,"stimulus":"Sounds/car_label.wav","key_press":null,"block":1,"trial_type":"audio-keyboard-response","trial_index":288,"time_elapsed":2860305,"internal_node_id":"0.0-13.0-0.59","match_key":"a","participant_id":"COGS219_2020_25"},{"rt":null,"stimulus":"<p style=\"font-size: 48px;\">+</p>","key_press":null,"block":1,"trial_type":"html-keyboard-response","trial_index":289,"time_elapsed":2861309,"internal_node_id":"0.0-13.0-1.59","match_key":"a","participant_id":"COGS219_2020_25"},{"rt":527.9699999373406,"stimulus":"Images/car_1.png","key_press":65,"stim_onset":1582509191543,"block":1,"match_type":"match","image_category":"car","sound_category":"car","audio_type":"label","phase":"test","trial_type":"image-keyboard-response","trial_index":290,"time_elapsed":2861839,"internal_node_id":"0.0-13.0-2.59","match_key":"a","participant_id":"COGS219_2020_25","correct":true},{"rt":null,"stimulus":"Sounds/correct.wav","key_press":null,"block":1,"trial_type":"audio-keyboard-response","trial_index":291,"time_elapsed":2863852,"internal_node_id":"0.0-13.0-3.59","match_key":"a","participant_id":"COGS219_2020_25"},{"rt":null,"stimulus":"Sounds/motorcycle_label.wav","key_press":null,"block":1,"trial_type":"audio-keyboard-response","trial_index":292,"time_elapsed":2864985,"internal_node_id":"0.0-13.0-0.60","match_key":"a","participant_id":"COGS219_2020_25"},{"rt":null,"stimulus":"<p style=\"font-size: 48px;\">+</p>","key_press":null,"block":1,"trial_type":"html-keyboard-response","trial_index":293,"time_elapsed":2865976,"internal_node_id":"0.0-13.0-1.60","match_key":"a","participant_id":"COGS219_2020_25"},{"rt":653.690000064671,"stimulus":"Images/train_1.png","key_press":76,"stim_onset":1582509196210,"block":1,"match_type":"non-match","image_category":"train","sound_category":"motorcycle","audio_type":"label","phase":"test","trial_type":"image-keyboard-response","trial_index":294,"time_elapsed":2866631,"internal_node_id":"0.0-13.0-2.60","match_key":"a","participant_id":"COGS219_2020_25","correct":true},{"rt":null,"stimulus":"Sounds/correct.wav","key_press":null,"block":1,"trial_type":"audio-keyboard-response","trial_index":295,"time_elapsed":2868643,"internal_node_id":"0.0-13.0-3.60","match_key":"a","participant_id":"COGS219_2020_25"},{"rt":null,"stimulus":"Sounds/cat_sound.wav","key_press":null,"block":1,"trial_type":"audio-keyboard-response","trial_index":296,"time_elapsed":2869485,"internal_node_id":"0.0-13.0-0.61","match_key":"a","participant_id":"COGS219_2020_25"},{"rt":null,"stimulus":"<p style=\"font-size: 48px;\">+</p>","key_press":null,"block":1,"trial_type":"html-keyboard-response","trial_index":297,"time_elapsed":2870476,"internal_node_id":"0.0-13.0-1.61","match_key":"a","participant_id":"COGS219_2020_25"},{"rt":737.1850000927225,"stimulus":"Images/rooster_1.png","key_press":76,"stim_onset":1582509200710,"block":1,"match_type":"non-match","image_category":"rooster","sound_category":"cat","audio_type":"sound","phase":"test","trial_type":"image-keyboard-response","trial_index":298,"time_elapsed":2871214,"internal_node_id":"0.0-13.0-2.61","match_key":"a","participant_id":"COGS219_2020_25","correct":true},{"rt":null,"stimulus":"Sounds/correct.wav","key_press":null,"block":1,"trial_type":"audio-keyboard-response","trial_index":299,"time_elapsed":2873220,"internal_node_id":"0.0-13.0-3.61","match_key":"a","participant_id":"COGS219_2020_25"},{"rt":null,"stimulus":"Sounds/rooster_sound.wav","key_press":null,"block":1,"trial_type":"audio-keyboard-response","trial_index":300,"time_elapsed":2873925,"internal_node_id":"0.0-13.0-0.62","match_key":"a","participant_id":"COGS219_2020_25"},{"rt":null,"stimulus":"<p style=\"font-size: 48px;\">+</p>","key_press":null,"block":1,"trial_type":"html-keyboard-response","trial_index":301,"time_elapsed":2874943,"internal_node_id":"0.0-13.0-1.62","match_key":"a","participant_id":"COGS219_2020_25"},{"rt":494.56000002101064,"stimulus":"Images/rooster_2.png","key_press":65,"stim_onset":1582509205177,"block":1,"match_type":"match","image_category":"rooster","sound_category":"rooster","audio_type":"sound","phase":"test","trial_type":"image-keyboard-response","trial_index":302,"time_elapsed":2875438,"internal_node_id":"0.0-13.0-2.62","match_key":"a","participant_id":"COGS219_2020_25","correct":true},{"rt":null,"stimulus":"Sounds/correct.wav","key_press":null,"block":1,"trial_type":"audio-keyboard-response","trial_index":303,"time_elapsed":2877454,"internal_node_id":"0.0-13.0-3.62","match_key":"a","participant_id":"COGS219_2020_25"},{"rt":null,"stimulus":"Sounds/cat_sound.wav","key_press":null,"block":1,"trial_type":"audio-keyboard-response","trial_index":304,"time_elapsed":2878265,"internal_node_id":"0.0-13.0-0.63","match_key":"a","participant_id":"COGS219_2020_25"},{"rt":null,"stimulus":"<p style=\"font-size: 48px;\">+</p>","key_press":null,"block":1,"trial_type":"html-keyboard-response","trial_index":305,"time_elapsed":2879260,"internal_node_id":"0.0-13.0-1.63","match_key":"a","participant_id":"COGS219_2020_25"},{"rt":474.2150000529364,"stimulus":"Images/motorcycle_orig.png","key_press":76,"stim_onset":1582509209494,"block":1,"match_type":"non-match","image_category":"motorcycle","sound_category":"cat","audio_type":"sound","phase":"test","trial_type":"image-keyboard-response","trial_index":306,"time_elapsed":2879735,"internal_node_id":"0.0-13.0-2.63","match_key":"a","participant_id":"COGS219_2020_25","correct":true},{"rt":null,"stimulus":"Sounds/correct.wav","key_press":null,"block":1,"trial_type":"audio-keyboard-response","trial_index":307,"time_elapsed":2881739,"internal_node_id":"0.0-13.0-3.63","match_key":"a","participant_id":"COGS219_2020_25"},{"rt":null,"stimulus":"Sounds/cat_label.wav","key_press":null,"block":1,"trial_type":"audio-keyboard-response","trial_index":308,"time_elapsed":2882585,"internal_node_id":"0.0-13.0-0.64","match_key":"a","participant_id":"COGS219_2020_25"},{"rt":null,"stimulus":"<p style=\"font-size: 48px;\">+</p>","key_press":null,"block":1,"trial_type":"html-keyboard-response","trial_index":309,"time_elapsed":2883576,"internal_node_id":"0.0-13.0-1.64","match_key":"a","participant_id":"COGS219_2020_25"},{"rt":469.23000004608184,"stimulus":"Images/frog_2.png","key_press":76,"stim_onset":1582509213810,"block":1,"match_type":"non-match","image_category":"frog","sound_category":"cat","audio_type":"label","phase":"test","trial_type":"image-keyboard-response","trial_index":310,"time_elapsed":2884047,"internal_node_id":"0.0-13.0-2.64","match_key":"a","participant_id":"COGS219_2020_25","correct":true},{"rt":null,"stimulus":"Sounds/correct.wav","key_press":null,"block":1,"trial_type":"audio-keyboard-response","trial_index":311,"time_elapsed":2886055,"internal_node_id":"0.0-13.0-3.64","match_key":"a","participant_id":"COGS219_2020_25"},{"rt":null,"stimulus":"Sounds/frog_label.wav","key_press":null,"block":1,"trial_type":"audio-keyboard-response","trial_index":312,"time_elapsed":2886945,"internal_node_id":"0.0-13.0-0.65","match_key":"a","participant_id":"COGS219_2020_25"},{"rt":null,"stimulus":"<p style=\"font-size: 48px;\">+</p>","key_press":null,"block":1,"trial_type":"html-keyboard-response","trial_index":313,"time_elapsed":2887943,"internal_node_id":"0.0-13.0-1.65","match_key":"a","participant_id":"COGS219_2020_25"},{"rt":550.444999942556,"stimulus":"Images/frog_orig.png","key_press":65,"stim_onset":1582509218177,"block":1,"match_type":"match","image_category":"frog","sound_category":"frog","audio_type":"label","phase":"test","trial_type":"image-keyboard-response","trial_index":314,"time_elapsed":2888495,"internal_node_id":"0.0-13.0-2.65","match_key":"a","participant_id":"COGS219_2020_25","correct":true},{"rt":null,"stimulus":"Sounds/correct.wav","key_press":null,"block":1,"trial_type":"audio-keyboard-response","trial_index":315,"time_elapsed":2890502,"internal_node_id":"0.0-13.0-3.65","match_key":"a","participant_id":"COGS219_2020_25"},{"rt":null,"stimulus":"Sounds/car_label.wav","key_press":null,"block":1,"trial_type":"audio-keyboard-response","trial_index":316,"time_elapsed":2891585,"internal_node_id":"0.0-13.0-0.66","match_key":"a","participant_id":"COGS219_2020_25"},{"rt":null,"stimulus":"<p style=\"font-size: 48px;\">+</p>","key_press":null,"block":1,"trial_type":"html-keyboard-response","trial_index":317,"time_elapsed":2892576,"internal_node_id":"0.0-13.0-1.66","match_key":"a","participant_id":"COGS219_2020_25"},{"rt":557.4900000356138,"stimulus":"Images/whistle_2.png","key_press":76,"stim_onset":1582509222811,"block":1,"match_type":"non-match","image_category":"whistle","sound_category":"car","audio_type":"label","phase":"test","trial_type":"image-keyboard-response","trial_index":318,"time_elapsed":2893135,"internal_node_id":"0.0-13.0-2.66","match_key":"a","participant_id":"COGS219_2020_25","correct":true},{"rt":null,"stimulus":"Sounds/correct.wav","key_press":null,"block":1,"trial_type":"audio-keyboard-response","trial_index":319,"time_elapsed":2895149,"internal_node_id":"0.0-13.0-3.66","match_key":"a","participant_id":"COGS219_2020_25"},{"rt":null,"stimulus":"Sounds/rooster_label.wav","key_press":null,"block":1,"trial_type":"audio-keyboard-response","trial_index":320,"time_elapsed":2895845,"internal_node_id":"0.0-13.0-0.67","match_key":"a","participant_id":"COGS219_2020_25"},{"rt":null,"stimulus":"<p style=\"font-size: 48px;\">+</p>","key_press":null,"block":1,"trial_type":"html-keyboard-response","trial_index":321,"time_elapsed":2896843,"internal_node_id":"0.0-13.0-1.67","match_key":"a","participant_id":"COGS219_2020_25"},{"rt":602.2100000409409,"stimulus":"Images/motorcycle_2.png","key_press":76,"stim_onset":1582509227077,"block":1,"match_type":"non-match","image_category":"motorcycle","sound_category":"rooster","audio_type":"label","phase":"test","trial_type":"image-keyboard-response","trial_index":322,"time_elapsed":2897447,"internal_node_id":"0.0-13.0-2.67","match_key":"a","participant_id":"COGS219_2020_25","correct":true},{"rt":null,"stimulus":"Sounds/correct.wav","key_press":null,"block":1,"trial_type":"audio-keyboard-response","trial_index":323,"time_elapsed":2899462,"internal_node_id":"0.0-13.0-3.67","match_key":"a","participant_id":"COGS219_2020_25"},{"rt":null,"stimulus":"Sounds/train_sound.wav","key_press":null,"block":1,"trial_type":"audio-keyboard-response","trial_index":324,"time_elapsed":2900765,"internal_node_id":"0.0-13.0-0.68","match_key":"a","participant_id":"COGS219_2020_25"},{"rt":null,"stimulus":"<p style=\"font-size: 48px;\">+</p>","key_press":null,"block":1,"trial_type":"html-keyboard-response","trial_index":325,"time_elapsed":2901760,"internal_node_id":"0.0-13.0-1.68","match_key":"a","participant_id":"COGS219_2020_25"},{"rt":549.7800000011921,"stimulus":"Images/train_2.png","key_press":65,"stim_onset":1582509231994,"block":1,"match_type":"match","image_category":"train","sound_category":"train","audio_type":"sound","phase":"test","trial_type":"image-keyboard-response","trial_index":326,"time_elapsed":2902311,"internal_node_id":"0.0-13.0-2.68","match_key":"a","participant_id":"COGS219_2020_25","correct":true},{"rt":null,"stimulus":"Sounds/correct.wav","key_press":null,"block":1,"trial_type":"audio-keyboard-response","trial_index":327,"time_elapsed":2904318,"internal_node_id":"0.0-13.0-3.68","match_key":"a","participant_id":"COGS219_2020_25"},{"rt":null,"stimulus":"Sounds/train_sound.wav","key_press":null,"block":1,"trial_type":"audio-keyboard-response","trial_index":328,"time_elapsed":2905585,"internal_node_id":"0.0-13.0-0.69","match_key":"a","participant_id":"COGS219_2020_25"},{"rt":null,"stimulus":"<p style=\"font-size: 48px;\">+</p>","key_press":null,"block":1,"trial_type":"html-keyboard-response","trial_index":329,"time_elapsed":2906577,"internal_node_id":"0.0-13.0-1.69","match_key":"a","participant_id":"COGS219_2020_25"},{"rt":485.21499999333173,"stimulus":"Images/train_orig.png","key_press":65,"stim_onset":1582509236811,"block":1,"match_type":"match","image_category":"train","sound_category":"train","audio_type":"sound","phase":"test","trial_type":"image-keyboard-response","trial_index":330,"time_elapsed":2907063,"internal_node_id":"0.0-13.0-2.69","match_key":"a","participant_id":"COGS219_2020_25","correct":true},{"rt":null,"stimulus":"Sounds/correct.wav","key_press":null,"block":1,"trial_type":"audio-keyboard-response","trial_index":331,"time_elapsed":2909071,"internal_node_id":"0.0-13.0-3.69","match_key":"a","participant_id":"COGS219_2020_25"},{"rt":null,"stimulus":"Sounds/dog_sound.wav","key_press":null,"block":1,"trial_type":"audio-keyboard-response","trial_index":332,"time_elapsed":2909785,"internal_node_id":"0.0-13.0-0.70","match_key":"a","participant_id":"COGS219_2020_25"},{"rt":null,"stimulus":"<p style=\"font-size: 48px;\">+</p>","key_press":null,"block":1,"trial_type":"html-keyboard-response","trial_index":333,"time_elapsed":2910777,"internal_node_id":"0.0-13.0-1.70","match_key":"a","participant_id":"COGS219_2020_25"},{"rt":572.8050000034273,"stimulus":"Images/dog_1.png","key_press":65,"stim_onset":1582509241011,"block":1,"match_type":"match","image_category":"dog","sound_category":"dog","audio_type":"sound","phase":"test","trial_type":"image-keyboard-response","trial_index":334,"time_elapsed":2911351,"internal_node_id":"0.0-13.0-2.70","match_key":"a","participant_id":"COGS219_2020_25","correct":true},{"rt":null,"stimulus":"Sounds/correct.wav","key_press":null,"block":1,"trial_type":"audio-keyboard-response","trial_index":335,"time_elapsed":2913366,"internal_node_id":"0.0-13.0-3.70","match_key":"a","participant_id":"COGS219_2020_25"},{"rt":null,"stimulus":"Sounds/whistle_label.wav","key_press":null,"block":1,"trial_type":"audio-keyboard-response","trial_index":336,"time_elapsed":2914065,"internal_node_id":"0.0-13.0-0.71","match_key":"a","participant_id":"COGS219_2020_25"},{"rt":null,"stimulus":"<p style=\"font-size: 48px;\">+</p>","key_press":null,"block":1,"trial_type":"html-keyboard-response","trial_index":337,"time_elapsed":2915060,"internal_node_id":"0.0-13.0-1.71","match_key":"a","participant_id":"COGS219_2020_25"},{"rt":561.4000000059605,"stimulus":"Images/gun_1.png","key_press":76,"stim_onset":1582509245294,"block":1,"match_type":"non-match","image_category":"gun","sound_category":"whistle","audio_type":"label","phase":"test","trial_type":"image-keyboard-response","trial_index":338,"time_elapsed":2915623,"internal_node_id":"0.0-13.0-2.71","match_key":"a","participant_id":"COGS219_2020_25","correct":true},{"rt":null,"stimulus":"Sounds/correct.wav","key_press":null,"block":1,"trial_type":"audio-keyboard-response","trial_index":339,"time_elapsed":2917634,"internal_node_id":"0.0-13.0-3.71","match_key":"a","participant_id":"COGS219_2020_25"},{"rt":null,"stimulus":"Sounds/cow_sound.wav","key_press":null,"block":1,"trial_type":"audio-keyboard-response","trial_index":340,"time_elapsed":2918645,"internal_node_id":"0.0-13.0-0.72","match_key":"a","participant_id":"COGS219_2020_25"},{"rt":null,"stimulus":"<p style=\"font-size: 48px;\">+</p>","key_press":null,"block":1,"trial_type":"html-keyboard-response","trial_index":341,"time_elapsed":2919643,"internal_node_id":"0.0-13.0-1.72","match_key":"a","participant_id":"COGS219_2020_25"},{"rt":490.5100000323728,"stimulus":"Images/cow_1.png","key_press":65,"stim_onset":1582509249877,"block":1,"match_type":"match","image_category":"cow","sound_category":"cow","audio_type":"sound","phase":"test","trial_type":"image-keyboard-response","trial_index":342,"time_elapsed":2920135,"internal_node_id":"0.0-13.0-2.72","match_key":"a","participant_id":"COGS219_2020_25","correct":true},{"rt":null,"stimulus":"Sounds/correct.wav","key_press":null,"block":1,"trial_type":"audio-keyboard-response","trial_index":343,"time_elapsed":2922138,"internal_node_id":"0.0-13.0-3.72","match_key":"a","participant_id":"COGS219_2020_25"},{"rt":null,"stimulus":"Sounds/frog_sound.wav","key_press":null,"block":1,"trial_type":"audio-keyboard-response","trial_index":344,"time_elapsed":2923045,"internal_node_id":"0.0-13.0-0.73","match_key":"a","participant_id":"COGS219_2020_25"},{"rt":null,"stimulus":"<p style=\"font-size: 48px;\">+</p>","key_press":null,"block":1,"trial_type":"html-keyboard-response","trial_index":345,"time_elapsed":2924044,"internal_node_id":"0.0-13.0-1.73","match_key":"a","participant_id":"COGS219_2020_25"},{"rt":585.9850000124425,"stimulus":"Images/motorcycle_cartoon.png","key_press":76,"stim_onset":1582509254278,"block":1,"match_type":"non-match","image_category":"motorcycle","sound_category":"frog","audio_type":"sound","phase":"test","trial_type":"image-keyboard-response","trial_index":346,"time_elapsed":2924631,"internal_node_id":"0.0-13.0-2.73","match_key":"a","participant_id":"COGS219_2020_25","correct":true},{"rt":null,"stimulus":"Sounds/correct.wav","key_press":null,"block":1,"trial_type":"audio-keyboard-response","trial_index":347,"time_elapsed":2926637,"internal_node_id":"0.0-13.0-3.73","match_key":"a","participant_id":"COGS219_2020_25"},{"rt":null,"stimulus":"Sounds/frog_sound.wav","key_press":null,"block":1,"trial_type":"audio-keyboard-response","trial_index":348,"time_elapsed":2927525,"internal_node_id":"0.0-13.0-0.74","match_key":"a","participant_id":"COGS219_2020_25"},{"rt":null,"stimulus":"<p style=