[{"rt":17664.10999999789,"responses":"{\"Q0\":\"11\"}","trial_type":"survey-text","trial_index":0,"time_elapsed":17711,"internal_node_id":"0.0-0.0","match_key":"a","participant_id":"11"},{"rt":33726.75499999605,"stimulus":"<p>Use KEYBOARD 2 (match LEFT)</p><p>Press MATCH to continue.</p>","key_press":65,"trial_type":"html-keyboard-response","trial_index":1,"time_elapsed":51449,"internal_node_id":"0.0-1.0","match_key":"a","participant_id":"11"},{"rt":2945357.335000008,"stimulus":"<p>Welcome to the experiment.</p>","key_press":32,"trial_type":"html-keyboard-response","trial_index":2,"time_elapsed":2995676,"internal_node_id":"0.0-2.0","match_key":"a","participant_id":"11"},{"rt":16120.720000006258,"stimulus":"<p>Thank you for agreeing to participate in this study.</p><p>If during any part of the procedure you must stop for any reason, please inform the researcher that you do not wish to continue.</p>","key_press":32,"trial_type":"html-keyboard-response","trial_index":3,"time_elapsed":3011804,"internal_node_id":"0.0-3.0","match_key":"a","participant_id":"11"},{"rt":24862.630000003148,"stimulus":"<p>In this experiment, you will hear various words or sounds and see pictures of various animals and objects.</p><p>Most of the images will be of common everyday objects, such as cars, cats, cows, firearms, frogs, chickens, whistles, trains, motorcycles, and dogs.</p><p>Some of the images will be real-life stills, while others will be cartoons.</p>","key_press":32,"trial_type":"html-keyboard-response","trial_index":4,"time_elapsed":3036668,"internal_node_id":"0.0-4.0","match_key":"a","participant_id":"11"},{"rt":20214.980000004638,"stimulus":"<p>Sometimes, the word/sound will match the picture, for example you'll hear a meowing sound and see a cat.</p><p>Other times, the picture will not match the sound or word.</p><p>Your task is to decide as quickly as possible if the word/sound matches the picture or not. </p>","key_press":32,"trial_type":"html-keyboard-response","trial_index":5,"time_elapsed":3056880,"internal_node_id":"0.0-5.0","match_key":"a","participant_id":"11"},{"rt":15550.30500001181,"stimulus":"<p>For example, if you hear the word \"cat\" or hear a meowing sound, and then see a picture of a cat, you should press the MATCH key.</p><p> If the sound and image do not match, press the NOT-MATCH key to indicate that there is not a match.</p>","key_press":32,"trial_type":"html-keyboard-response","trial_index":6,"time_elapsed":3072431,"internal_node_id":"0.0-6.0","match_key":"a","participant_id":"11"},{"rt":15375.180000002496,"stimulus":"<p>If you make a mistake, you will hear a buzzing sound instead of a more pleasant sound.</p><p> Try to respond as quickly as possible, while making as few errors as possible. If you are making mistakes, you are probably rushing.</p>","key_press":32,"trial_type":"html-keyboard-response","trial_index":7,"time_elapsed":3087808,"internal_node_id":"0.0-7.0","match_key":"a","participant_id":"11"},{"rt":16790.854999999516,"stimulus":"<p>Please try to not move or blink your eyes during the presentation of the images. You can move and blink between images.</p><p>During the experiment there will be some breaks during which you can rest your eyes.</p>","key_press":32,"trial_type":"html-keyboard-response","trial_index":8,"time_elapsed":3104600,"internal_node_id":"0.0-8.0","match_key":"a","participant_id":"11"},{"rt":8286.245000010356,"stimulus":"<p>We will begin with 10 practice trials. Please let the experimenter know if you have any questions.</p>","key_press":32,"trial_type":"html-keyboard-response","trial_index":9,"time_elapsed":3112887,"internal_node_id":"0.0-9.0","match_key":"a","participant_id":"11"},{"rt":null,"stimulus":"Sounds/whistle_label.wav","key_press":null,"block":0,"trial_type":"audio-keyboard-response","trial_index":10,"time_elapsed":3113667,"internal_node_id":"0.0-10.0-0.0","match_key":"a","participant_id":"11"},{"rt":null,"stimulus":"<p style=\"font-size: 48px;\">+</p>","key_press":null,"block":0,"trial_type":"html-keyboard-response","trial_index":11,"time_elapsed":3114670,"internal_node_id":"0.0-10.0-1.0","match_key":"a","participant_id":"11"},{"rt":447.4449999979697,"stimulus":"Images/dog_1.png","key_press":76,"stim_onset":1581633136877,"block":0,"match_type":"non-match","image_category":"dog","sound_category":"whistle","audio_type":"label","phase":"practice","trial_type":"image-keyboard-response","trial_index":12,"time_elapsed":3115120,"internal_node_id":"0.0-10.0-2.0","match_key":"a","participant_id":"11","correct":true},{"rt":null,"stimulus":"Sounds/correct.wav","key_press":null,"block":0,"trial_type":"audio-keyboard-response","trial_index":13,"time_elapsed":3117153,"internal_node_id":"0.0-10.0-3.0","match_key":"a","participant_id":"11"},{"rt":null,"stimulus":"Sounds/frog_label.wav","key_press":null,"block":0,"trial_type":"audio-keyboard-response","trial_index":14,"time_elapsed":3118046,"internal_node_id":"0.0-10.0-0.1","match_key":"a","participant_id":"11"},{"rt":null,"stimulus":"<p style=\"font-size: 48px;\">+</p>","key_press":null,"block":0,"trial_type":"html-keyboard-response","trial_index":15,"time_elapsed":3119039,"internal_node_id":"0.0-10.0-1.1","match_key":"a","participant_id":"11"},{"rt":457.8600000096485,"stimulus":"Images/frog_1.png","key_press":65,"stim_onset":1581633141246,"block":0,"match_type":"match","image_category":"frog","sound_category":"frog","audio_type":"label","phase":"practice","trial_type":"image-keyboard-response","trial_index":16,"time_elapsed":3119498,"internal_node_id":"0.0-10.0-2.1","match_key":"a","participant_id":"11","correct":true},{"rt":null,"stimulus":"Sounds/correct.wav","key_press":null,"block":0,"trial_type":"audio-keyboard-response","trial_index":17,"time_elapsed":3121504,"internal_node_id":"0.0-10.0-3.1","match_key":"a","participant_id":"11"},{"rt":null,"stimulus":"Sounds/car_label.wav","key_press":null,"block":0,"trial_type":"audio-keyboard-response","trial_index":18,"time_elapsed":3122586,"internal_node_id":"0.0-10.0-0.2","match_key":"a","participant_id":"11"},{"rt":null,"stimulus":"<p style=\"font-size: 48px;\">+</p>","key_press":null,"block":0,"trial_type":"html-keyboard-response","trial_index":19,"time_elapsed":3123589,"internal_node_id":"0.0-10.0-1.2","match_key":"a","participant_id":"11"},{"rt":435.8650000067428,"stimulus":"Images/cow_1.png","key_press":65,"stim_onset":1581633145796,"block":0,"match_type":"non-match","image_category":"cow","sound_category":"car","audio_type":"label","phase":"practice","trial_type":"image-keyboard-response","trial_index":20,"time_elapsed":3124026,"internal_node_id":"0.0-10.0-2.2","match_key":"a","participant_id":"11","correct":false},{"rt":null,"stimulus":"Sounds/incorrect.wav","key_press":null,"block":0,"trial_type":"audio-keyboard-response","trial_index":21,"time_elapsed":3126037,"internal_node_id":"0.0-10.0-3.2","match_key":"a","participant_id":"11"},{"rt":null,"stimulus":"Sounds/dog_sound.wav","key_press":null,"block":0,"trial_type":"audio-keyboard-response","trial_index":22,"time_elapsed":3126746,"internal_node_id":"0.0-10.0-0.3","match_key":"a","participant_id":"11"},{"rt":null,"stimulus":"<p style=\"font-size: 48px;\">+</p>","key_press":null,"block":0,"trial_type":"html-keyboard-response","trial_index":23,"time_elapsed":3127739,"internal_node_id":"0.0-10.0-1.3","match_key":"a","participant_id":"11"},{"rt":382.0500000002794,"stimulus":"Images/cow_2.png","key_press":76,"stim_onset":1581633149946,"block":0,"match_type":"non-match","image_category":"cow","sound_category":"dog","audio_type":"sound","phase":"practice","trial_type":"image-keyboard-response","trial_index":24,"time_elapsed":3128122,"internal_node_id":"0.0-10.0-2.3","match_key":"a","participant_id":"11","correct":true},{"rt":null,"stimulus":"Sounds/correct.wav","key_press":null,"block":0,"trial_type":"audio-keyboard-response","trial_index":25,"time_elapsed":3130126,"internal_node_id":"0.0-10.0-3.3","match_key":"a","participant_id":"11"},{"rt":null,"stimulus":"Sounds/frog_label.wav","key_press":null,"block":0,"trial_type":"audio-keyboard-response","trial_index":26,"time_elapsed":3131006,"internal_node_id":"0.0-10.0-0.4","match_key":"a","participant_id":"11"},{"rt":null,"stimulus":"<p style=\"font-size: 48px;\">+</p>","key_press":null,"block":0,"trial_type":"html-keyboard-response","trial_index":27,"time_elapsed":3132006,"internal_node_id":"0.0-10.0-1.4","match_key":"a","participant_id":"11"},{"rt":459.16499999305233,"stimulus":"Images/frog_orig.png","key_press":65,"stim_onset":1581633154213,"block":0,"match_type":"match","image_category":"frog","sound_category":"frog","audio_type":"label","phase":"practice","trial_type":"image-keyboard-response","trial_index":28,"time_elapsed":3132466,"internal_node_id":"0.0-10.0-2.4","match_key":"a","participant_id":"11","correct":true},{"rt":null,"stimulus":"Sounds/correct.wav","key_press":null,"block":0,"trial_type":"audio-keyboard-response","trial_index":29,"time_elapsed":3134469,"internal_node_id":"0.0-10.0-3.4","match_key":"a","participant_id":"11"},{"rt":null,"stimulus":"Sounds/whistle_label.wav","key_press":null,"block":0,"trial_type":"audio-keyboard-response","trial_index":30,"time_elapsed":3135166,"internal_node_id":"0.0-10.0-0.5","match_key":"a","participant_id":"11"},{"rt":null,"stimulus":"<p style=\"font-size: 48px;\">+</p>","key_press":null,"block":0,"trial_type":"html-keyboard-response","trial_index":31,"time_elapsed":3136156,"internal_node_id":"0.0-10.0-1.5","match_key":"a","participant_id":"11"},{"rt":701.0299999965355,"stimulus":"Images/whistle_2.png","key_press":65,"stim_onset":1581633158363,"block":0,"match_type":"match","image_category":"whistle","sound_category":"whistle","audio_type":"label","phase":"practice","trial_type":"image-keyboard-response","trial_index":32,"time_elapsed":3136858,"internal_node_id":"0.0-10.0-2.5","match_key":"a","participant_id":"11","correct":true},{"rt":null,"stimulus":"Sounds/correct.wav","key_press":null,"block":0,"trial_type":"audio-keyboard-response","trial_index":33,"time_elapsed":3138869,"internal_node_id":"0.0-10.0-3.5","match_key":"a","participant_id":"11"},{"rt":null,"stimulus":"Sounds/car_label.wav","key_press":null,"block":0,"trial_type":"audio-keyboard-response","trial_index":34,"time_elapsed":3139926,"internal_node_id":"0.0-10.0-0.6","match_key":"a","participant_id":"11"},{"rt":null,"stimulus":"<p style=\"font-size: 48px;\">+</p>","key_press":null,"block":0,"trial_type":"html-keyboard-response","trial_index":35,"time_elapsed":3140922,"internal_node_id":"0.0-10.0-1.6","match_key":"a","participant_id":"11"},{"rt":366.59499999927357,"stimulus":"Images/frog_orig.png","key_press":76,"stim_onset":1581633163129,"block":0,"match_type":"non-match","image_category":"frog","sound_category":"car","audio_type":"label","phase":"practice","trial_type":"image-keyboard-response","trial_index":36,"time_elapsed":3141290,"internal_node_id":"0.0-10.0-2.6","match_key":"a","participant_id":"11","correct":true},{"rt":null,"stimulus":"Sounds/correct.wav","key_press":null,"block":0,"trial_type":"audio-keyboard-response","trial_index":37,"time_elapsed":3143296,"internal_node_id":"0.0-10.0-3.6","match_key":"a","participant_id":"11"},{"rt":null,"stimulus":"Sounds/cat_sound.wav","key_press":null,"block":0,"trial_type":"audio-keyboard-response","trial_index":38,"time_elapsed":3144126,"internal_node_id":"0.0-10.0-0.7","match_key":"a","participant_id":"11"},{"rt":null,"stimulus":"<p style=\"font-size: 48px;\">+</p>","key_press":null,"block":0,"trial_type":"html-keyboard-response","trial_index":39,"time_elapsed":3145122,"internal_node_id":"0.0-10.0-1.7","match_key":"a","participant_id":"11"},{"rt":454.6949999933131,"stimulus":"Images/cat_1.png","key_press":65,"stim_onset":1581633167329,"block":0,"match_type":"match","image_category":"cat","sound_category":"cat","audio_type":"sound","phase":"practice","trial_type":"image-keyboard-response","trial_index":40,"time_elapsed":3145578,"internal_node_id":"0.0-10.0-2.7","match_key":"a","participant_id":"11","correct":true},{"rt":null,"stimulus":"Sounds/correct.wav","key_press":null,"block":0,"trial_type":"audio-keyboard-response","trial_index":41,"time_elapsed":3147594,"internal_node_id":"0.0-10.0-3.7","match_key":"a","participant_id":"11"},{"rt":null,"stimulus":"Sounds/car_sound.wav","key_press":null,"block":0,"trial_type":"audio-keyboard-response","trial_index":42,"time_elapsed":3148666,"internal_node_id":"0.0-10.0-0.8","match_key":"a","participant_id":"11"},{"rt":null,"stimulus":"<p style=\"font-size: 48px;\">+</p>","key_press":null,"block":0,"trial_type":"html-keyboard-response","trial_index":43,"time_elapsed":3149656,"internal_node_id":"0.0-10.0-1.8","match_key":"a","participant_id":"11"},{"rt":440.9750000052154,"stimulus":"Images/cat_1.png","key_press":76,"stim_onset":1581633171863,"block":0,"match_type":"non-match","image_category":"cat","sound_category":"car","audio_type":"sound","phase":"practice","trial_type":"image-keyboard-response","trial_index":44,"time_elapsed":3150098,"internal_node_id":"0.0-10.0-2.8","match_key":"a","participant_id":"11","correct":true},{"rt":null,"stimulus":"Sounds/correct.wav","key_press":null,"block":0,"trial_type":"audio-keyboard-response","trial_index":45,"time_elapsed":3152111,"internal_node_id":"0.0-10.0-3.8","match_key":"a","participant_id":"11"},{"rt":null,"stimulus":"Sounds/train_label.wav","key_press":null,"block":0,"trial_type":"audio-keyboard-response","trial_index":46,"time_elapsed":3153386,"internal_node_id":"0.0-10.0-0.9","match_key":"a","participant_id":"11"},{"rt":null,"stimulus":"<p style=\"font-size: 48px;\">+</p>","key_press":null,"block":0,"trial_type":"html-keyboard-response","trial_index":47,"time_elapsed":3154389,"internal_node_id":"0.0-10.0-1.9","match_key":"a","participant_id":"11"},{"rt":547.7299999911338,"stimulus":"Images/car_cartoon.png","key_press":65,"stim_onset":1581633176597,"block":0,"match_type":"non-match","image_category":"car","sound_category":"train","audio_type":"label","phase":"practice","trial_type":"image-keyboard-response","trial_index":48,"time_elapsed":3154938,"internal_node_id":"0.0-10.0-2.9","match_key":"a","participant_id":"11","correct":false},{"rt":null,"stimulus":"Sounds/incorrect.wav","key_press":null,"block":0,"trial_type":"audio-keyboard-response","trial_index":49,"time_elapsed":3156946,"internal_node_id":"0.0-10.0-3.9","match_key":"a","participant_id":"11"},{"rt":50920.12500000419,"stimulus":"<p>The rest of the experiment is divided into five blocks with 100 trials in each block. It will take about 45 minutes to complete.</p><p>The experimenter will be in the outer room and you can communicate with them through the monitor if you have any questions or wish to stop the experiment.</p>","key_press":32,"trial_type":"html-keyboard-response","trial_index":50,"time_elapsed":3207870,"internal_node_id":"0.0-11.0","match_key":"a","participant_id":"11"},{"rt":14086.280000003055,"stimulus":"<p>Remember, please try not to move or blink your eyes during the presentation of the images. </p><p>At the end of the experiment, we will show you your scores on the task so you can see how you did.</p><p>The experiment will start on the next screen.</p>","key_press":32,"trial_type":"html-keyboard-response","trial_index":51,"time_elapsed":3221957,"internal_node_id":"0.0-12.0","match_key":"a","participant_id":"11"},{"rt":null,"stimulus":"Sounds/cat_sound.wav","key_press":null,"block":1,"trial_type":"audio-keyboard-response","trial_index":52,"time_elapsed":3224822,"internal_node_id":"0.0-13.0-0.0","match_key":"a","participant_id":"11"},{"rt":null,"stimulus":"<p style=\"font-size: 48px;\">+</p>","key_press":null,"block":1,"trial_type":"html-keyboard-response","trial_index":53,"time_elapsed":3225827,"internal_node_id":"0.0-13.0-1.0","match_key":"a","participant_id":"11"},{"rt":449.2250000038184,"stimulus":"Images/cat_cartoon.png","key_press":65,"stim_onset":1581633248034,"block":1,"match_type":"match","image_category":"cat","sound_category":"cat","audio_type":"sound","phase":"test","trial_type":"image-keyboard-response","trial_index":54,"time_elapsed":3226278,"internal_node_id":"0.0-13.0-2.0","match_key":"a","participant_id":"11","correct":true},{"rt":null,"stimulus":"Sounds/correct.wav","key_press":null,"block":1,"trial_type":"audio-keyboard-response","trial_index":55,"time_elapsed":3228291,"internal_node_id":"0.0-13.0-3.0","match_key":"a","participant_id":"11"},{"rt":null,"stimulus":"Sounds/whistle_sound.wav","key_press":null,"block":1,"trial_type":"audio-keyboard-response","trial_index":56,"time_elapsed":3228982,"internal_node_id":"0.0-13.0-0.1","match_key":"a","participant_id":"11"},{"rt":null,"stimulus":"<p style=\"font-size: 48px;\">+</p>","key_press":null,"block":1,"trial_type":"html-keyboard-response","trial_index":57,"time_elapsed":3229976,"internal_node_id":"0.0-13.0-1.1","match_key":"a","participant_id":"11"},{"rt":403.38999999221414,"stimulus":"Images/whistle_1.png","key_press":76,"stim_onset":1581633252184,"block":1,"match_type":"match","image_category":"whistle","sound_category":"whistle","audio_type":"sound","phase":"test","trial_type":"image-keyboard-response","trial_index":58,"time_elapsed":3230381,"internal_node_id":"0.0-13.0-2.1","match_key":"a","participant_id":"11","correct":false},{"rt":null,"stimulus":"Sounds/incorrect.wav","key_press":null,"block":1,"trial_type":"audio-keyboard-response","trial_index":59,"time_elapsed":3232395,"internal_node_id":"0.0-13.0-3.1","match_key":"a","participant_id":"11"},{"rt":null,"stimulus":"Sounds/gun_label.wav","key_press":null,"block":1,"trial_type":"audio-keyboard-response","trial_index":60,"time_elapsed":3232982,"internal_node_id":"0.0-13.0-0.2","match_key":"a","participant_id":"11"},{"rt":null,"stimulus":"<p style=\"font-size: 48px;\">+</p>","key_press":null,"block":1,"trial_type":"html-keyboard-response","trial_index":61,"time_elapsed":3233976,"internal_node_id":"0.0-13.0-1.2","match_key":"a","participant_id":"11"},{"rt":475.70000000996515,"stimulus":"Images/train_2.png","key_press":76,"stim_onset":1581633256184,"block":1,"match_type":"non-match","image_category":"train","sound_category":"gun","audio_type":"label","phase":"test","trial_type":"image-keyboard-response","trial_index":62,"time_elapsed":3234453,"internal_node_id":"0.0-13.0-2.2","match_key":"a","participant_id":"11","correct":true},{"rt":null,"stimulus":"Sounds/correct.wav","key_press":null,"block":1,"trial_type":"audio-keyboard-response","trial_index":63,"time_elapsed":3236456,"internal_node_id":"0.0-13.0-3.2","match_key":"a","participant_id":"11"},{"rt":null,"stimulus":"Sounds/cat_label.wav","key_press":null,"block":1,"trial_type":"audio-keyboard-response","trial_index":64,"time_elapsed":3237302,"internal_node_id":"0.0-13.0-0.3","match_key":"a","participant_id":"11"},{"rt":null,"stimulus":"<p style=\"font-size: 48px;\">+</p>","key_press":null,"block":1,"trial_type":"html-keyboard-response","trial_index":65,"time_elapsed":3238293,"internal_node_id":"0.0-13.0-1.3","match_key":"a","participant_id":"11"},{"rt":430.47500000102445,"stimulus":"Images/cat_2.png","key_press":65,"stim_onset":1581633260500,"block":1,"match_type":"match","image_category":"cat","sound_category":"cat","audio_type":"label","phase":"test","trial_type":"image-keyboard-response","trial_index":66,"time_elapsed":3238725,"internal_node_id":"0.0-13.0-2.3","match_key":"a","participant_id":"11","correct":true},{"rt":null,"stimulus":"Sounds/correct.wav","key_press":null,"block":1,"trial_type":"audio-keyboard-response","trial_index":67,"time_elapsed":3240732,"internal_node_id":"0.0-13.0-3.3","match_key":"a","participant_id":"11"},{"rt":null,"stimulus":"Sounds/frog_label.wav","key_press":null,"block":1,"trial_type":"audio-keyboard-response","trial_index":68,"time_elapsed":3241622,"internal_node_id":"0.0-13.0-0.4","match_key":"a","participant_id":"11"},{"rt":null,"stimulus":"<p style=\"font-size: 48px;\">+</p>","key_press":null,"block":1,"trial_type":"html-keyboard-response","trial_index":69,"time_elapsed":3242627,"internal_node_id":"0.0-13.0-1.4","match_key":"a","participant_id":"11"},{"rt":409.30500000854954,"stimulus":"Images/gun_2.png","key_press":76,"stim_onset":1581633264834,"block":1,"match_type":"non-match","image_category":"gun","sound_category":"frog","audio_type":"label","phase":"test","trial_type":"image-keyboard-response","trial_index":70,"time_elapsed":3243037,"internal_node_id":"0.0-13.0-2.4","match_key":"a","participant_id":"11","correct":true},{"rt":null,"stimulus":"Sounds/correct.wav","key_press":null,"block":1,"trial_type":"audio-keyboard-response","trial_index":71,"time_elapsed":3245044,"internal_node_id":"0.0-13.0-3.4","match_key":"a","participant_id":"11"},{"rt":null,"stimulus":"Sounds/gun_label.wav","key_press":null,"block":1,"trial_type":"audio-keyboard-response","trial_index":72,"time_elapsed":3245602,"internal_node_id":"0.0-13.0-0.5","match_key":"a","participant_id":"11"},{"rt":null,"stimulus":"<p style=\"font-size: 48px;\">+</p>","key_press":null,"block":1,"trial_type":"html-keyboard-response","trial_index":73,"time_elapsed":3246593,"internal_node_id":"0.0-13.0-1.5","match_key":"a","participant_id":"11"},{"rt":426.8799999989569,"stimulus":"Images/gun_1.png","key_press":65,"stim_onset":1581633268800,"block":1,"match_type":"match","image_category":"gun","sound_category":"gun","audio_type":"label","phase":"test","trial_type":"image-keyboard-response","trial_index":74,"time_elapsed":3247021,"internal_node_id":"0.0-13.0-2.5","match_key":"a","participant_id":"11","correct":true},{"rt":null,"stimulus":"Sounds/correct.wav","key_press":null,"block":1,"trial_type":"audio-keyboard-response","trial_index":75,"time_elapsed":3249028,"internal_node_id":"0.0-13.0-3.5","match_key":"a","participant_id":"11"},{"rt":null,"stimulus":"Sounds/train_sound.wav","key_press":null,"block":1,"trial_type":"audio-keyboard-response","trial_index":76,"time_elapsed":3250322,"internal_node_id":"0.0-13.0-0.6","match_key":"a","participant_id":"11"},{"rt":null,"stimulus":"<p style=\"font-size: 48px;\">+</p>","key_press":null,"block":1,"trial_type":"html-keyboard-response","trial_index":77,"time_elapsed":3251327,"internal_node_id":"0.0-13.0-1.6","match_key":"a","participant_id":"11"},{"rt":365.1399999940768,"stimulus":"Images/train_orig.png","key_press":65,"stim_onset":1581633273534,"block":1,"match_type":"match","image_category":"train","sound_category":"train","audio_type":"sound","phase":"test","trial_type":"image-keyboard-response","trial_index":78,"time_elapsed":3251693,"internal_node_id":"0.0-13.0-2.6","match_key":"a","participant_id":"11","correct":true},{"rt":null,"stimulus":"Sounds/correct.wav","key_press":null,"block":1,"trial_type":"audio-keyboard-response","trial_index":79,"time_elapsed":3253698,"internal_node_id":"0.0-13.0-3.6","match_key":"a","participant_id":"11"},{"rt":null,"stimulus":"Sounds/whistle_label.wav","key_press":null,"block":1,"trial_type":"audio-keyboard-response","trial_index":80,"time_elapsed":3254403,"internal_node_id":"0.0-13.0-0.7","match_key":"a","participant_id":"11"},{"rt":null,"stimulus":"<p style=\"font-size: 48px;\">+</p>","key_press":null,"block":1,"trial_type":"html-keyboard-response","trial_index":81,"time_elapsed":3255394,"internal_node_id":"0.0-13.0-1.7","match_key":"a","participant_id":"11"},{"rt":442.664999994915,"stimulus":"Images/whistle_orig.png","key_press":65,"stim_onset":1581633277602,"block":1,"match_type":"match","image_category":"whistle","sound_category":"whistle","audio_type":"label","phase":"test","trial_type":"image-keyboard-response","trial_index":82,"time_elapsed":3255838,"internal_node_id":"0.0-13.0-2.7","match_key":"a","participant_id":"11","correct":true},{"rt":null,"stimulus":"Sounds/correct.wav","key_press":null,"block":1,"trial_type":"audio-keyboard-response","trial_index":83,"time_elapsed":3257849,"internal_node_id":"0.0-13.0-3.7","match_key":"a","participant_id":"11"},{"rt":null,"stimulus":"Sounds/train_label.wav","key_press":null,"block":1,"trial_type":"audio-keyboard-response","trial_index":84,"time_elapsed":3259123,"internal_node_id":"0.0-13.0-0.8","match_key":"a","participant_id":"11"},{"rt":null,"stimulus":"<p style=\"font-size: 48px;\">+</p>","key_press":null,"block":1,"trial_type":"html-keyboard-response","trial_index":85,"time_elapsed":3260128,"internal_node_id":"0.0-13.0-1.8","match_key":"a","participant_id":"11"},{"rt":452.4600000004284,"stimulus":"Images/motorcycle_cartoon.png","key_press":76,"stim_onset":1581633282335,"block":1,"match_type":"non-match","image_category":"motorcycle","sound_category":"train","audio_type":"label","phase":"test","trial_type":"image-keyboard-response","trial_index":86,"time_elapsed":3260582,"internal_node_id":"0.0-13.0-2.8","match_key":"a","participant_id":"11","correct":true},{"rt":null,"stimulus":"Sounds/correct.wav","key_press":null,"block":1,"trial_type":"audio-keyboard-response","trial_index":87,"time_elapsed":3262592,"internal_node_id":"0.0-13.0-3.8","match_key":"a","participant_id":"11"},{"rt":null,"stimulus":"Sounds/whistle_label.wav","key_press":null,"block":1,"trial_type":"audio-keyboard-response","trial_index":88,"time_elapsed":3263263,"internal_node_id":"0.0-13.0-0.9","match_key":"a","participant_id":"11"},{"rt":null,"stimulus":"<p style=\"font-size: 48px;\">+</p>","key_press":null,"block":1,"trial_type":"html-keyboard-response","trial_index":89,"time_elapsed":3264261,"internal_node_id":"0.0-13.0-1.9","match_key":"a","participant_id":"11"},{"rt":543.839999998454,"stimulus":"Images/car_1.png","key_press":76,"stim_onset":1581633286468,"block":1,"match_type":"non-match","image_category":"car","sound_category":"whistle","audio_type":"label","phase":"test","trial_type":"image-keyboard-response","trial_index":90,"time_elapsed":3264806,"internal_node_id":"0.0-13.0-2.9","match_key":"a","participant_id":"11","correct":true},{"rt":null,"stimulus":"Sounds/correct.wav","key_press":null,"block":1,"trial_type":"audio-keyboard-response","trial_index":91,"time_elapsed":3266818,"internal_node_id":"0.0-13.0-3.9","match_key":"a","participant_id":"11"},{"rt":null,"stimulus":"Sounds/dog_label.wav","key_press":null,"block":1,"trial_type":"audio-keyboard-response","trial_index":92,"time_elapsed":3267483,"internal_node_id":"0.0-13.0-0.10","match_key":"a","participant_id":"11"},{"rt":null,"stimulus":"<p style=\"font-size: 48px;\">+</p>","key_press":null,"block":1,"trial_type":"html-keyboard-response","trial_index":93,"time_elapsed":3268478,"internal_node_id":"0.0-13.0-1.10","match_key":"a","participant_id":"11"},{"rt":503.2249999931082,"stimulus":"Images/cow_3.png","key_press":76,"stim_onset":1581633290685,"block":1,"match_type":"non-match","image_category":"cow","sound_category":"dog","audio_type":"label","phase":"test","trial_type":"image-keyboard-response","trial_index":94,"time_elapsed":3268982,"internal_node_id":"0.0-13.0-2.10","match_key":"a","participant_id":"11","correct":true},{"rt":null,"stimulus":"Sounds/correct.wav","key_press":null,"block":1,"trial_type":"audio-keyboard-response","trial_index":95,"time_elapsed":3270988,"internal_node_id":"0.0-13.0-3.10","match_key":"a","participant_id":"11"},{"rt":null,"stimulus":"Sounds/dog_sound.wav","key_press":null,"block":1,"trial_type":"audio-keyboard-response","trial_index":96,"time_elapsed":3271703,"internal_node_id":"0.0-13.0-0.11","match_key":"a","participant_id":"11"},{"rt":null,"stimulus":"<p style=\"font-size: 48px;\">+</p>","key_press":null,"block":1,"trial_type":"html-keyboard-response","trial_index":97,"time_elapsed":3272695,"internal_node_id":"0.0-13.0-1.11","match_key":"a","participant_id":"11"},{"rt":598.679999995511,"stimulus":"Images/cat_3.png","key_press":76,"stim_onset":1581633294902,"block":1,"match_type":"non-match","image_category":"cat","sound_category":"dog","audio_type":"sound","phase":"test","trial_type":"image-keyboard-response","trial_index":98,"time_elapsed":3273294,"internal_node_id":"0.0-13.0-2.11","match_key":"a","participant_id":"11","correct":true},{"rt":null,"stimulus":"Sounds/correct.wav","key_press":null,"block":1,"trial_type":"audio-keyboard-response","trial_index":99,"time_elapsed":3275301,"internal_node_id":"0.0-13.0-3.11","match_key":"a","participant_id":"11"},{"rt":null,"stimulus":"Sounds/frog_sound.wav","key_press":null,"block":1,"trial_type":"audio-keyboard-response","trial_index":100,"time_elapsed":3276203,"internal_node_id":"0.0-13.0-0.12","match_key":"a","participant_id":"11"},{"rt":null,"stimulus":"<p style=\"font-size: 48px;\">+</p>","key_press":null,"block":1,"trial_type":"html-keyboard-response","trial_index":101,"time_elapsed":3277195,"internal_node_id":"0.0-13.0-1.12","match_key":"a","participant_id":"11"},{"rt":314.23500001244247,"stimulus":"Images/frog_1.png","key_press":65,"stim_onset":1581633299402,"block":1,"match_type":"match","image_category":"frog","sound_category":"frog","audio_type":"sound","phase":"test","trial_type":"image-keyboard-response","trial_index":102,"time_elapsed":3277510,"internal_node_id":"0.0-13.0-2.12","match_key":"a","participant_id":"11","correct":true},{"rt":null,"stimulus":"Sounds/correct.wav","key_press":null,"block":1,"trial_type":"audio-keyboard-response","trial_index":103,"time_elapsed":3279520,"internal_node_id":"0.0-13.0-3.12","match_key":"a","participant_id":"11"},{"rt":null,"stimulus":"Sounds/whistle_label.wav","key_press":null,"block":1,"trial_type":"audio-keyboard-response","trial_index":104,"time_elapsed":3280183,"internal_node_id":"0.0-13.0-0.13","match_key":"a","participant_id":"11"},{"rt":null,"stimulus":"<p style=\"font-size: 48px;\">+</p>","key_press":null,"block":1,"trial_type":"html-keyboard-response","trial_index":105,"time_elapsed":3281178,"internal_node_id":"0.0-13.0-1.13","match_key":"a","participant_id":"11"},{"rt":579.1199999949895,"stimulus":"Images/motorcycle_3.png","key_press":76,"stim_onset":1581633303385,"block":1,"match_type":"non-match","image_category":"motorcycle","sound_category":"whistle","audio_type":"label","phase":"test","trial_type":"image-keyboard-response","trial_index":106,"time_elapsed":3281758,"internal_node_id":"0.0-13.0-2.13","match_key":"a","participant_id":"11","correct":true},{"rt":null,"stimulus":"Sounds/correct.wav","key_press":null,"block":1,"trial_type":"audio-keyboard-response","trial_index":107,"time_elapsed":3283767,"internal_node_id":"0.0-13.0-3.13","match_key":"a","participant_id":"11"},{"rt":null,"stimulus":"Sounds/gun_sound.wav","key_press":null,"block":1,"trial_type":"audio-keyboard-response","trial_index":108,"time_elapsed":3284343,"internal_node_id":"0.0-13.0-0.14","match_key":"a","participant_id":"11"},{"rt":null,"stimulus":"<p style=\"font-size: 48px;\">+</p>","key_press":null,"block":1,"trial_type":"html-keyboard-response","trial_index":109,"time_elapsed":3285361,"internal_node_id":"0.0-13.0-1.14","match_key":"a","participant_id":"11"},{"rt":531.6600000080653,"stimulus":"Images/cow_orig.png","key_press":76,"stim_onset":1581633307569,"block":1,"match_type":"non-match","image_category":"cow","sound_category":"gun","audio_type":"sound","phase":"test","trial_type":"image-keyboard-response","trial_index":110,"time_elapsed":3285894,"internal_node_id":"0.0-13.0-2.14","match_key":"a","participant_id":"11","correct":true},{"rt":null,"stimulus":"Sounds/correct.wav","key_press":null,"block":1,"trial_type":"audio-keyboard-response","trial_index":111,"time_elapsed":3287902,"internal_node_id":"0.0-13.0-3.14","match_key":"a","participant_id":"11"},{"rt":null,"stimulus":"Sounds/car_sound.wav","key_press":null,"block":1,"trial_type":"audio-keyboard-response","trial_index":112,"time_elapsed":3288983,"internal_node_id":"0.0-13.0-0.15","match_key":"a","participant_id":"11"},{"rt":null,"stimulus":"<p style=\"font-size: 48px;\">+</p>","key_press":null,"block":1,"trial_type":"html-keyboard-response","trial_index":113,"time_elapsed":3289978,"internal_node_id":"0.0-13.0-1.15","match_key":"a","participant_id":"11"},{"rt":386.88500000024214,"stimulus":"Images/car_2.png","key_press":65,"stim_onset":1581633312185,"block":1,"match_type":"match","image_category":"car","sound_category":"car","audio_type":"sound","phase":"test","trial_type":"image-keyboard-response","trial_index":114,"time_elapsed":3290366,"internal_node_id":"0.0-13.0-2.15","match_key":"a","participant_id":"11","correct":true},{"rt":null,"stimulus":"Sounds/correct.wav","key_press":null,"block":1,"trial_type":"audio-keyboard-response","trial_index":115,"time_elapsed":3292381,"internal_node_id":"0.0-13.0-3.15","match_key":"a","participant_id":"11"},{"rt":null,"stimulus":"Sounds/cat_sound.wav","key_press":null,"block":1,"trial_type":"audio-keyboard-response","trial_index":116,"time_elapsed":3293223,"internal_node_id":"0.0-13.0-0.16","match_key":"a","participant_id":"11"},{"rt":null,"stimulus":"<p style=\"font-size: 48px;\">+</p>","key_press":null,"block":1,"trial_type":"html-keyboard-response","trial_index":117,"time_elapsed":3294212,"internal_node_id":"0.0-13.0-1.16","match_key":"a","participant_id":"11"},{"rt":441.43000000622123,"stimulus":"Images/dog_cartoon.png","key_press":76,"stim_onset":1581633316419,"block":1,"match_type":"non-match","image_category":"dog","sound_category":"cat","audio_type":"sound","phase":"test","trial_type":"image-keyboard-response","trial_index":118,"time_elapsed":3294654,"internal_node_id":"0.0-13.0-2.16","match_key":"a","participant_id":"11","correct":true},{"rt":null,"stimulus":"Sounds/correct.wav","key_press":null,"block":1,"trial_type":"audio-keyboard-response","trial_index":119,"time_elapsed":3296661,"internal_node_id":"0.0-13.0-3.16","match_key":"a","participant_id":"11"},{"rt":null,"stimulus":"Sounds/cat_sound.wav","key_press":null,"block":1,"trial_type":"audio-keyboard-response","trial_index":120,"time_elapsed":3297463,"internal_node_id":"0.0-13.0-0.17","match_key":"a","participant_id":"11"},{"rt":null,"stimulus":"<p style=\"font-size: 48px;\">+</p>","key_press":null,"block":1,"trial_type":"html-keyboard-response","trial_index":121,"time_elapsed":3298461,"internal_node_id":"0.0-13.0-1.17","match_key":"a","participant_id":"11"},{"rt":263.68000000342727,"stimulus":"Images/frog_orig.png","key_press":65,"stim_onset":1581633320669,"block":1,"match_type":"non-match","image_category":"frog","sound_category":"cat","audio_type":"sound","phase":"test","trial_type":"image-keyboard-response","trial_index":122,"time_elapsed":3298726,"internal_node_id":"0.0-13.0-2.17","match_key":"a","participant_id":"11","correct":false},{"rt":null,"stimulus":"Sounds/incorrect.wav","key_press":null,"block":1,"trial_type":"audio-keyboard-response","trial_index":123,"time_elapsed":3300739,"internal_node_id":"0.0-13.0-3.17","match_key":"a","participant_id":"11"},{"rt":null,"stimulus":"Sounds/car_label.wav","key_press":null,"block":1,"trial_type":"audio-keyboard-response","trial_index":124,"time_elapsed":3301823,"internal_node_id":"0.0-13.0-0.18","match_key":"a","participant_id":"11"},{"rt":null,"stimulus":"<p style=\"font-size: 48px;\">+</p>","key_press":null,"block":1,"trial_type":"html-keyboard-response","trial_index":125,"time_elapsed":3302828,"internal_node_id":"0.0-13.0-1.18","match_key":"a","participant_id":"11"},{"rt":736.6100000068545,"stimulus":"Images/car_1.png","key_press":65,"stim_onset":1581633325035,"block":1,"match_type":"match","image_category":"car","sound_category":"car","audio_type":"label","phase":"test","trial_type":"image-keyboard-response","trial_index":126,"time_elapsed":3303566,"internal_node_id":"0.0-13.0-2.18","match_key":"a","participant_id":"11","correct":true},{"rt":null,"stimulus":"Sounds/correct.wav","key_press":null,"block":1,"trial_type":"audio-keyboard-response","trial_index":127,"time_elapsed":3305570,"internal_node_id":"0.0-13.0-3.18","match_key":"a","participant_id":"11"},{"rt":null,"stimulus":"Sounds/rooster_sound.wav","key_press":null,"block":1,"trial_type":"audio-keyboard-response","trial_index":128,"time_elapsed":3306263,"internal_node_id":"0.0-13.0-0.19","match_key":"a","participant_id":"11"},{"rt":null,"stimulus":"<p style=\"font-size: 48px;\">+</p>","key_press":null,"block":1,"trial_type":"html-keyboard-response","trial_index":129,"time_elapsed":3307262,"internal_node_id":"0.0-13.0-1.19","match_key":"a","participant_id":"11"},{"rt":431.3600000021979,"stimulus":"Images/rooster_cartoon.png","key_press":65,"stim_onset":1581633329469,"block":1,"match_type":"match","image_category":"rooster","sound_category":"rooster","audio_type":"sound","phase":"test","trial_type":"image-keyboard-response","trial_index":130,"time_elapsed":3307694,"internal_node_id":"0.0-13.0-2.19","match_key":"a","participant_id":"11","correct":true},{"rt":null,"stimulus":"Sounds/correct.wav","key_press":null,"block":1,"trial_type":"audio-keyboard-response","trial_index":131,"time_elapsed":3309710,"internal_node_id":"0.0-13.0-3.19","match_key":"a","participant_id":"11"},{"rt":null,"stimulus":"Sounds/car_sound.wav","key_press":null,"block":1,"trial_type":"audio-keyboard-response","trial_index":132,"time_elapsed":3310783,"internal_node_id":"0.0-13.0-0.20","match_key":"a","participant_id":"11"},{"rt":null,"stimulus":"<p style=\"font-size: 48px;\">+</p>","key_press":null,"block":1,"trial_type":"html-keyboard-response","trial_index":133,"time_elapsed":3311778,"internal_node_id":"0.0-13.0-1.20","match_key":"a","participant_id":"11"},{"rt":466.8950000051409,"stimulus":"Images/cow_cartoon.png","key_press":76,"stim_onset":1581633333985,"block":1,"match_type":"non-match","image_category":"cow","sound_category":"car","audio_type":"sound","phase":"test","trial_type":"image-keyboard-response","trial_index":134,"time_elapsed":3312246,"internal_node_id":"0.0-13.0-2.20","match_key":"a","participant_id":"11","correct":true},{"rt":null,"stimulus":"Sounds/correct.wav","key_press":null,"block":1,"trial_type":"audio-keyboard-response","trial_index":135,"time_elapsed":3314258,"internal_node_id":"0.0-13.0-3.20","match_key":"a","participant_id":"11"},{"rt":null,"stimulus":"Sounds/cat_sound.wav","key_press":null,"block":1,"trial_type":"audio-keyboard-response","trial_index":136,"time_elapsed":3315064,"internal_node_id":"0.0-13.0-0.21","match_key":"a","participant_id":"11"},{"rt":null,"stimulus":"<p style=\"font-size: 48px;\">+</p>","key_press":null,"block":1,"trial_type":"html-keyboard-response","trial_index":137,"time_elapsed":3316063,"internal_node_id":"0.0-13.0-1.21","match_key":"a","participant_id":"11"},{"rt":735.2649999954738,"stimulus":"Images/cow_2.png","key_press":76,"stim_onset":1581633338270,"block":1,"match_type":"non-match","image_category":"cow","sound_category":"cat","audio_type":"sound","phase":"test","trial_type":"image-keyboard-response","trial_index":138,"time_elapsed":3316799,"internal_node_id":"0.0-13.0-2.21","match_key":"a","participant_id":"11","correct":true},{"rt":null,"stimulus":"Sounds/correct.wav","key_press":null,"block":1,"trial_type":"audio-keyboard-response","trial_index":139,"time_elapsed":3318808,"internal_node_id":"0.0-13.0-3.21","match_key":"a","participant_id":"11"},{"rt":null,"stimulus":"Sounds/cow_label.wav","key_press":null,"block":1,"trial_type":"audio-keyboard-response","trial_index":140,"time_elapsed":3319824,"internal_node_id":"0.0-13.0-0.22","match_key":"a","participant_id":"11"},{"rt":null,"stimulus":"<p style=\"font-size: 48px;\">+</p>","key_press":null,"block":1,"trial_type":"html-keyboard-response","trial_index":141,"time_elapsed":3320830,"internal_node_id":"0.0-13.0-1.22","match_key":"a","participant_id":"11"},{"rt":504.50500000454485,"stimulus":"Images/motorcycle_2.png","key_press":76,"stim_onset":1581633343036,"block":1,"match_type":"non-match","image_category":"motorcycle","sound_category":"cow","audio_type":"label","phase":"test","trial_type":"image-keyboard-response","trial_index":142,"time_elapsed":3321335,"internal_node_id":"0.0-13.0-2.22","match_key":"a","participant_id":"11","correct":true},{"rt":null,"stimulus":"Sounds/correct.wav","key_press":null,"block":1,"trial_type":"audio-keyboard-response","trial_index":143,"time_elapsed":3323339,"internal_node_id":"0.0-13.0-3.22","match_key":"a","participant_id":"11"},{"rt":null,"stimulus":"Sounds/train_sound.wav","key_press":null,"block":1,"trial_type":"audio-keyboard-response","trial_index":144,"time_elapsed":3324644,"internal_node_id":"0.0-13.0-0.23","match_key":"a","participant_id":"11"},{"rt":null,"stimulus":"<p style=\"font-size: 48px;\">+</p>","key_press":null,"block":1,"trial_type":"html-keyboard-response","trial_index":145,"time_elapsed":3325646,"internal_node_id":"0.0-13.0-1.23","match_key":"a","participant_id":"11"},{"rt":544.08999999566,"stimulus":"Images/gun_1.png","key_press":76,"stim_onset":1581633347853,"block":1,"match_type":"non-match","image_category":"gun","sound_category":"train","audio_type":"sound","phase":"test","trial_type":"image-keyboard-response","trial_index":146,"time_elapsed":3326191,"internal_node_id":"0.0-13.0-2.23","match_key":"a","participant_id":"11","correct":true},{"rt":null,"stimulus":"Sounds/correct.wav","key_press":null,"block":1,"trial_type":"audio-keyboard-response","trial_index":147,"time_elapsed":3328203,"internal_node_id":"0.0-13.0-3.23","match_key":"a","participant_id":"11"},{"rt":null,"stimulus":"Sounds/car_label.wav","key_press":null,"block":1,"trial_type":"audio-keyboard-response","trial_index":148,"time_elapsed":3329284,"internal_node_id":"0.0-13.0-0.24","match_key":"a","participant_id":"11"},{"rt":null,"stimulus":"<p style=\"font-size: 48px;\">+</p>","key_press":null,"block":1,"trial_type":"html-keyboard-response","trial_index":149,"time_elapsed":3330279,"internal_node_id":"0.0-13.0-1.24","match_key":"a","participant_id":"11"},{"rt":574.4549999944866,"stimulus":"Images/car_3.png","key_press":65,"stim_onset":1581633352487,"block":1,"match_type":"match","image_category":"car","sound_category":"car","audio_type":"label","phase":"test","trial_type":"image-keyboard-response","trial_index":150,"time_elapsed":3330855,"internal_node_id":"0.0-13.0-2.24","match_key":"a","participant_id":"11","correct":true},{"rt":null,"stimulus":"Sounds/correct.wav","key_press":null,"block":1,"trial_type":"audio-keyboard-response","trial_index":151,"time_elapsed":3332870,"internal_node_id":"0.0-13.0-3.24","match_key":"a","participant_id":"11"},{"rt":null,"stimulus":"Sounds/frog_label.wav","key_press":null,"block":1,"trial_type":"audio-keyboard-response","trial_index":152,"time_elapsed":3333764,"internal_node_id":"0.0-13.0-0.25","match_key":"a","participant_id":"11"},{"rt":null,"stimulus":"<p style=\"font-size: 48px;\">+</p>","key_press":null,"block":1,"trial_type":"html-keyboard-response","trial_index":153,"time_elapsed":3334763,"internal_node_id":"0.0-13.0-1.25","match_key":"a","participant_id":"11"},{"rt":371.20500000333413,"stimulus":"Images/cow_1.png","key_press":76,"stim_onset":1581633356970,"block":1,"match_type":"non-match","image_category":"cow","sound_category":"frog","audio_type":"label","phase":"test","trial_type":"image-keyboard-response","trial_index":154,"time_elapsed":3335135,"internal_node_id":"0.0-13.0-2.25","match_key":"a","participant_id":"11","correct":true},{"rt":null,"stimulus":"Sounds/correct.wav","key_press":null,"block":1,"trial_type":"audio-keyboard-response","trial_index":155,"time_elapsed":3337150,"internal_node_id":"0.0-13.0-3.25","match_key":"a","participant_id":"11"},{"rt":null,"stimulus":"Sounds/car_sound.wav","key_press":null,"block":1,"trial_type":"audio-keyboard-response","trial_index":156,"time_elapsed":3338224,"internal_node_id":"0.0-13.0-0.26","match_key":"a","participant_id":"11"},{"rt":null,"stimulus":"<p style=\"font-size: 48px;\">+</p>","key_press":null,"block":1,"trial_type":"html-keyboard-response","trial_index":157,"time_elapsed":3339230,"internal_node_id":"0.0-13.0-1.26","match_key":"a","participant_id":"11"},{"rt":648.3500000028871,"stimulus":"Images/whistle_3.png","key_press":76,"stim_onset":1581633361437,"block":1,"match_type":"non-match","image_category":"whistle","sound_category":"car","audio_type":"sound","phase":"test","trial_type":"image-keyboard-response","trial_index":158,"time_elapsed":3339879,"internal_node_id":"0.0-13.0-2.26","match_key":"a","participant_id":"11","correct":true},{"rt":null,"stimulus":"Sounds/correct.wav","key_press":null,"block":1,"trial_type":"audio-keyboard-response","trial_index":159,"time_elapsed":3341896,"internal_node_id":"0.0-13.0-3.26","match_key":"a","participant_id":"11"},{"rt":null,"stimulus":"Sounds/train_label.wav","key_press":null,"block":1,"trial_type":"audio-keyboard-response","trial_index":160,"time_elapsed":3343164,"internal_node_id":"0.0-13.0-0.27","match_key":"a","participant_id":"11"},{"rt":null,"stimulus":"<p style=\"font-size: 48px;\">+</p>","key_press":null,"block":1,"trial_type":"html-keyboard-response","trial_index":161,"time_elapsed":3344163,"internal_node_id":"0.0-13.0-1.27","match_key":"a","participant_id":"11"},{"rt":594.8999999961816,"stimulus":"Images/train_1.png","key_press":65,"stim_onset":1581633366370,"block":1,"match_type":"match","image_category":"train","sound_category":"train","audio_type":"label","phase":"test","trial_type":"image-keyboard-response","trial_index":162,"time_elapsed":3344759,"internal_node_id":"0.0-13.0-2.27","match_key":"a","participant_id":"11","correct":true},{"rt":null,"stimulus":"Sounds/correct.wav","key_press":null,"block":1,"trial_type":"audio-keyboard-response","trial_index":163,"time_elapsed":3346767,"internal_node_id":"0.0-13.0-3.27","match_key":"a","participant_id":"11"},{"rt":null,"stimulus":"Sounds/car_label.wav","key_press":null,"block":1,"trial_type":"audio-keyboard-response","trial_index":164,"time_elapsed":3347844,"internal_node_id":"0.0-13.0-0.28","match_key":"a","participant_id":"11"},{"rt":null,"stimulus":"<p style=\"font-size: 48px;\">+</p>","key_press":null,"block":1,"trial_type":"html-keyboard-response","trial_index":165,"time_elapsed":3348846,"internal_node_id":"0.0-13.0-1.28","match_key":"a","participant_id":"11"},{"rt":479.72500001173466,"stimulus":"Images/cat_orig.png","key_press":76,"stim_onset":1581633371053,"block":1,"match_type":"non-match","image_category":"cat","sound_category":"car","audio_type":"label","phase":"test","trial_type":"image-keyboard-response","trial_index":166,"time_elapsed":3349327,"internal_node_id":"0.0-13.0-2.28","match_key":"a","participant_id":"11","correct":true},{"rt":null,"stimulus":"Sounds/correct.wav","key_press":null,"block":1,"trial_type":"audio-keyboard-response","trial_index":167,"time_elapsed":3351342,"internal_node_id":"0.0-13.0-3.28","match_key":"a","participant_id":"11"},{"rt":null,"stimulus":"Sounds/car_label.wav","key_press":null,"block":1,"trial_type":"audio-keyboard-response","trial_index":168,"time_elapsed":3352404,"internal_node_id":"0.0-13.0-0.29","match_key":"a","participant_id":"11"},{"rt":null,"stimulus":"<p style=\"font-size: 48px;\">+</p>","key_press":null,"block":1,"trial_type":"html-keyboard-response","trial_index":169,"time_elapsed":3353396,"internal_node_id":"0.0-13.0-1.29","match_key":"a","participant_id":"11"},{"rt":617.6699999924749,"stimulus":"Images/train_1.png","key_press":76,"stim_onset":1581633375604,"block":1,"match_type":"non-match","image_category":"train","sound_category":"car","audio_type":"label","phase":"test","trial_type":"image-keyboard-response","trial_index":170,"time_elapsed":3354015,"internal_node_id":"0.0-13.0-2.29","match_key":"a","participant_id":"11","correct":true},{"rt":null,"stimulus":"Sounds/correct.wav","key_press":null,"block":1,"trial_type":"audio-keyboard-response","trial_index":171,"time_elapsed":3356032,"internal_node_id":"0.0-13.0-3.29","match_key":"a","participant_id":"11"},{"rt":null,"stimulus":"Sounds/gun_label.wav","key_press":null,"block":1,"trial_type":"audio-keyboard-response","trial_index":172,"time_elapsed":3356604,"internal_node_id":"0.0-13.0-0.30","match_key":"a","participant_id":"11"},{"rt":null,"stimulus":"<p style=\"font-size: 48px;\">+</p>","key_press":null,"block":1,"trial_type":"html-keyboard-response","trial_index":173,"time_elapsed":3357596,"internal_node_id":"0.0-13.0-1.30","match_key":"a","participant_id":"11"},{"rt":449.3349999971688,"stimulus":"Images/gun_3.png","key_press":65,"stim_onset":1581633379804,"block":1,"match_type":"match","image_category":"gun","sound_category":"gun","audio_type":"label","phase":"test","trial_type":"image-keyboard-response","trial_index":174,"time_elapsed":3358047,"internal_node_id":"0.0-13.0-2.30","match_key":"a","participant_id":"11","correct":true},{"rt":null,"stimulus":"Sounds/correct.wav","key_press":null,"block":1,"trial_type":"audio-keyboard-response","trial_index":175,"time_elapsed":3360060,"internal_node_id":"0.0-13.0-3.30","match_key":"a","participant_id":"11"},{"rt":null,"stimulus":"Sounds/dog_sound.wav","key_press":null,"block":1,"trial_type":"audio-keyboard-response","trial_index":176,"time_elapsed":3360764,"internal_node_id":"0.0-13.0-0.31","match_key":"a","participant_id":"11"},{"rt":null,"stimulus":"<p style=\"font-size: 48px;\">+</p>","key_press":null,"block":1,"trial_type":"html-keyboard-response","trial_index":177,"time_elapsed":3361763,"internal_node_id":"0.0-13.0-1.31","match_key":"a","participant_id":"11"},{"rt":562.8850000062957,"stimulus":"Images/dog_2.png","key_press":65,"stim_onset":1581633383970,"block":1,"match_type":"match","image_category":"dog","sound_category":"dog","audio_type":"sound","phase":"test","trial_type":"image-keyboard-response","trial_index":178,"time_elapsed":3362327,"internal_node_id":"0.0-13.0-2.31","match_key":"a","participant_id":"11","correct":true},{"rt":null,"stimulus":"Sounds/correct.wav","key_press":null,"block":1,"trial_type":"audio-keyboard-response","trial_index":179,"time_elapsed":3364336,"internal_node_id":"0.0-13.0-3.31","match_key":"a","participant_id":"11"},{"rt":null,"stimulus":"Sounds/dog_sound.wav","key_press":null,"block":1,"trial_type":"audio-keyboard-response","trial_index":180,"time_elapsed":3365024,"internal_node_id":"0.0-13.0-0.32","match_key":"a","participant_id":"11"},{"rt":null,"stimulus":"<p style=\"font-size: 48px;\">+</p>","key_press":null,"block":1,"trial_type":"html-keyboard-response","trial_index":181,"time_elapsed":3366013,"internal_node_id":"0.0-13.0-1.32","match_key":"a","participant_id":"11"},{"rt":384.8250000006519,"stimulus":"Images/rooster_orig.png","key_press":76,"stim_onset":1581633388220,"block":1,"match_type":"non-match","image_category":"rooster","sound_category":"dog","audio_type":"sound","phase":"test","trial_type":"image-keyboard-response","trial_index":182,"time_elapsed":3366399,"internal_node_id":"0.0-13.0-2.32","match_key":"a","participant_id":"11","correct":true},{"rt":null,"stimulus":"Sounds/correct.wav","key_press":null,"block":1,"trial_type":"audio-keyboard-response","trial_index":183,"time_elapsed":3368403,"internal_node_id":"0.0-13.0-3.32","match_key":"a","participant_id":"11"},{"rt":null,"stimulus":"Sounds/cat_sound.wav","key_press":null,"block":1,"trial_type":"audio-keyboard-response","trial_index":184,"time_elapsed":3369244,"internal_node_id":"0.0-13.0-0.33","match_key":"a","participant_id":"11"},{"rt":null,"stimulus":"<p style=\"font-size: 48px;\">+</p>","key_press":null,"block":1,"trial_type":"html-keyboard-response","trial_index":185,"time_elapsed":3370247,"internal_node_id":"0.0-13.0-1.33","match_key":"a","participant_id":"11"},{"rt":591.4000000050291,"stimulus":"Images/whistle_1.png","key_press":76,"stim_onset":1581633392454,"block":1,"match_type":"non-match","image_category":"whistle","sound_category":"cat","audio_type":"sound","phase":"test","trial_type":"image-keyboard-response","trial_index":186,"time_elapsed":3370839,"internal_node_id":"0.0-13.0-2.33","match_key":"a","participant_id":"11","correct":true},{"rt":null,"stimulus":"Sounds/correct.wav","key_press":null,"block":1,"trial_type":"audio-keyboard-response","trial_index":187,"time_elapsed":3372851,"internal_node_id":"0.0-13.0-3.33","match_key":"a","participant_id":"11"},{"rt":null,"stimulus":"Sounds/rooster_sound.wav","key_press":null,"block":1,"trial_type":"audio-keyboard-response","trial_index":188,"time_elapsed":3373544,"internal_node_id":"0.0-13.0-0.34","match_key":"a","participant_id":"11"},{"rt":null,"stimulus":"<p style=\"font-size: 48px;\">+</p>","key_press":null,"block":1,"trial_type":"html-keyboard-response","trial_index":189,"time_elapsed":3374547,"internal_node_id":"0.0-13.0-1.34","match_key":"a","participant_id":"11"},{"rt":435.30500000622123,"stimulus":"Images/whistle_2.png","key_press":76,"stim_onset":1581633396755,"block":1,"match_type":"non-match","image_category":"whistle","sound_category":"rooster","audio_type":"sound","phase":"test","trial_type":"image-keyboard-response","trial_index":190,"time_elapsed":3374984,"internal_node_id":"0.0-13.0-2.34","match_key":"a","participant_id":"11","correct":true},{"rt":null,"stimulus":"Sounds/correct.wav","key_press":null,"block":1,"trial_type":"audio-keyboard-response","trial_index":191,"time_elapsed":3376996,"internal_node_id":"0.0-13.0-3.34","match_key":"a","participant_id":"11"},{"rt":null,"stimulus":"Sounds/frog_sound.wav","key_press":null,"block":1,"trial_type":"audio-keyboard-response","trial_index":192,"time_elapsed":3377905,"internal_node_id":"0.0-13.0-0.35","match_key":"a","participant_id":"11"},{"rt":null,"stimulus":"<p style=\"font-size: 48px;\">+</p>","key_press":null,"block":1,"trial_type":"html-keyboard-response","trial_index":193,"time_elapsed":3378897,"internal_node_id":"0.0-13.0-1.35","match_key":"a","participant_id":"11"},{"rt":405.6199999903329,"stimulus":"Images/frog_orig.png","key_press":65,"stim_onset":1581633401105,"block":1,"match_type":"match","image_category":"frog","sound_category":"frog","audio_type":"sound","phase":"test","trial_type":"image-keyboard-response","trial_index":194,"time_elapsed":3379304,"internal_node_id":"0.0-13.0-2.35","match_key":"a","participant_id":"11","correct":true},{"rt":null,"stimulus":"Sounds/correct.wav","key_press":null,"block":1,"trial_type":"audio-keyboard-response","trial_index":195,"time_elapsed":3381316,"internal_node_id":"0.0-13.0-3.35","match_key":"a","participant_id":"11"},{"rt":null,"stimulus":"Sounds/dog_sound.wav","key_press":null,"block":1,"trial_type":"audio-keyboard-response","trial_index":196,"time_elapsed":3382005,"internal_node_id":"0.0-13.0-0.36","match_key":"a","participant_id":"11"},{"rt":null,"stimulus":"<p style=\"font-size: 48px;\">+</p>","key_press":null,"block":1,"trial_type":"html-keyboard-response","trial_index":197,"time_elapsed":3382998,"internal_node_id":"0.0-13.0-1.36","match_key":"a","participant_id":"11"},{"rt":561.1749999956228,"stimulus":"Images/dog_orig.png","key_press":65,"stim_onset":1581633405205,"block":1,"match_type":"match","image_category":"dog","sound_category":"dog","audio_type":"sound","phase":"test","trial_type":"image-keyboard-response","trial_index":198,"time_elapsed":3383560,"internal_node_id":"0.0-13.0-2.36","match_key":"a","participant_id":"11","correct":true},{"rt":null,"stimulus":"Sounds/correct.wav","key_press":null,"block":1,"trial_type":"audio-keyboard-response","trial_index":199,"time_elapsed":3385571,"internal_node_id":"0.0-13.0-3.36","match_key":"a","participant_id":"11"},{"rt":null,"stimulus":"Sounds/whistle_sound.wav","key_press":null,"block":1,"trial_type":"audio-keyboard-response","trial_index":200,"time_elapsed":3386265,"internal_node_id":"0.0-13.0-0.37","match_key":"a","participant_id":"11"},{"rt":null,"stimulus":"<p style=\"font-size: 48px;\">+</p>","key_press":null,"block":1,"trial_type":"html-keyboard-response","trial_index":201,"time_elapsed":3387264,"internal_node_id":"0.0-13.0-1.37","match_key":"a","participant_id":"11"},{"rt":486.5950000095181,"stimulus":"Images/dog_3.png","key_press":76,"stim_onset":1581633409471,"block":1,"match_type":"non-match","image_category":"dog","sound_category":"whistle","audio_type":"sound","phase":"test","trial_type":"image-keyboard-response","trial_index":202,"time_elapsed":3387752,"internal_node_id":"0.0-13.0-2.37","match_key":"a","participant_id":"11","correct":true},{"rt":null,"stimulus":"Sounds/correct.wav","key_press":null,"block":1,"trial_type":"audio-keyboard-response","trial_index":203,"time_elapsed":3389759,"internal_node_id":"0.0-13.0-3.37","match_key":"a","participant_id":"11"},{"rt":null,"stimulus":"Sounds/rooster_sound.wav","key_press":null,"block":1,"trial_type":"audio-keyboard-response","trial_index":204,"time_elapsed":3390425,"internal_node_id":"0.0-13.0-0.38","match_key":"a","participant_id":"11"},{"rt":null,"stimulus":"<p style=\"font-size: 48px;\">+</p>","key_press":null,"block":1,"trial_type":"html-keyboard-response","trial_index":205,"time_elapsed":3391414,"internal_node_id":"0.0-13.0-1.38","match_key":"a","participant_id":"11"},{"rt":504.7599999960512,"stimulus":"Images/rooster_1.png","key_press":65,"stim_onset":1581633413621,"block":1,"match_type":"match","image_category":"rooster","sound_category":"rooster","audio_type":"sound","phase":"test","trial_type":"image-keyboard-response","trial_index":206,"time_elapsed":3391920,"internal_node_id":"0.0-13.0-2.38","match_key":"a","participant_id":"11","correct":true},{"rt":null,"stimulus":"Sounds/correct.wav","key_press":null,"block":1,"trial_type":"audio-keyboard-response","trial_index":207,"time_elapsed":3393924,"internal_node_id":"0.0-13.0-3.38","match_key":"a","participant_id":"11"},{"rt":null,"stimulus":"Sounds/whistle_sound.wav","key_press":null,"block":1,"trial_type":"audio-keyboard-response","trial_index":208,"time_elapsed":3394605,"internal_node_id":"0.0-13.0-0.39","match_key":"a","participant_id":"11"},{"rt":null,"stimulus":"<p style=\"font-size: 48px;\">+</p>","key_press":null,"block":1,"trial_type":"html-keyboard-response","trial_index":209,"time_elapsed":3395598,"internal_node_id":"0.0-13.0-1.39","match_key":"a","participant_id":"11"},{"rt":609.1650000018999,"stimulus":"Images/whistle_cartoon.png","key_press":65,"stim_onset":1581633417805,"block":1,"match_type":"match","image_category":"whistle","sound_category":"whistle","audio_type":"sound","phase":"test","trial_type":"image-keyboard-response","trial_index":210,"time_elapsed":3396208,"internal_node_id":"0.0-13.0-2.39","match_key":"a","participant_id":"11","correct":true},{"rt":null,"stimulus":"Sounds/correct.wav","key_press":null,"block":1,"trial_type":"audio-keyboard-response","trial_index":211,"time_elapsed":3398217,"internal_node_id":"0.0-13.0-3.39","match_key":"a","participant_id":"11"},{"rt":null,"stimulus":"Sounds/cow_sound.wav","key_press":null,"block":1,"trial_type":"audio-keyboard-response","trial_index":212,"time_elapsed":3399245,"internal_node_id":"0.0-13.0-0.40","match_key":"a","participant_id":"11"},{"rt":null,"stimulus":"<p style=\"font-size: 48px;\">+</p>","key_press":null,"block":1,"trial_type":"html-keyboard-response","trial_index":213,"time_elapsed":3400248,"internal_node_id":"0.0-13.0-1.40","match_key":"a","participant_id":"11"},{"rt":855.0400000093505,"stimulus":"Images/gun_orig.png","key_press":76,"stim_onset":1581633422455,"block":1,"match_type":"non-match","image_category":"gun","sound_category":"cow","audio_type":"sound","phase":"test","trial_type":"image-keyboard-response","trial_index":214,"time_elapsed":3401104,"internal_node_id":"0.0-13.0-2.40","match_key":"a","participant_id":"11","correct":true},{"rt":null,"stimulus":"Sounds/correct.wav","key_press":null,"block":1,"trial_type":"audio-keyboard-response","trial_index":215,"time_elapsed":3403117,"internal_node_id":"0.0-13.0-3.40","match_key":"a","participant_id":"11"},{"rt":null,"stimulus":"Sounds/motorcycle_sound.wav","key_press":null,"block":1,"trial_type":"audio-keyboard-response","trial_index":216,"time_elapsed":3404225,"internal_node_id":"0.0-13.0-0.41","match_key":"a","participant_id":"11"},{"rt":null,"stimulus":"<p style=\"font-size: 48px;\">+</p>","key_press":null,"block":1,"trial_type":"html-keyboard-response","trial_index":217,"time_elapsed":3405214,"internal_node_id":"0.0-13.0-1.41","match_key":"a","participant_id":"11"},{"rt":576.7850000117905,"stimulus":"Images/train_cartoon.png","key_press":76,"stim_onset":1581633427422,"block":1,"match_type":"non-match","image_category":"train","sound_category":"motorcycle","audio_type":"sound","phase":"test","trial_type":"image-keyboard-response","trial_index":218,"time_elapsed":3405792,"internal_node_id":"0.0-13.0-2.41","match_key":"a","participant_id":"11","correct":true},{"rt":null,"stimulus":"Sounds/correct.wav","key_press":null,"block":1,"trial_type":"audio-keyboard-response","trial_index":219,"time_elapsed":3407804,"internal_node_id":"0.0-13.0-3.41","match_key":"a","participant_id":"11"},{"rt":null,"stimulus":"Sounds/motorcycle_sound.wav","key_press":null,"block":1,"trial_type":"audio-keyboard-response","trial_index":220,"time_elapsed":3408905,"internal_node_id":"0.0-13.0-0.42","match_key":"a","participant_id":"11"},{"rt":null,"stimulus":"<p style=\"font-size: 48px;\">+</p>","key_press":null,"block":1,"trial_type":"html-keyboard-response","trial_index":221,"time_elapsed":3409898,"internal_node_id":"0.0-13.0-1.42","match_key":"a","participant_id":"11"},{"rt":364.9199999924749,"stimulus":"Images/motorcycle_orig.png","key_press":65,"stim_onset":1581633432105,"block":1,"match_type":"match","image_category":"motorcycle","sound_category":"motorcycle","audio_type":"sound","phase":"test","trial_type":"image-keyboard-response","trial_index":222,"time_elapsed":3410264,"internal_node_id":"0.0-13.0-2.42","match_key":"a","participant_id":"11","correct":true},{"rt":null,"stimulus":"Sounds/correct.wav","key_press":null,"block":1,"trial_type":"audio-keyboard-response","trial_index":223,"time_elapsed":3412270,"internal_node_id":"0.0-13.0-3.42","match_key":"a","participant_id":"11"},{"rt":null,"stimulus":"Sounds/rooster_label.wav","key_press":null,"block":1,"trial_type":"audio-keyboard-response","trial_index":224,"time_elapsed":3412965,"internal_node_id":"0.0-13.0-0.43","match_key":"a","participant_id":"11"},{"rt":null,"stimulus":"<p style=\"font-size: 48px;\">+</p>","key_press":null,"block":1,"trial_type":"html-keyboard-response","trial_index":225,"time_elapsed":3413964,"internal_node_id":"0.0-13.0-1.43","match_key":"a","participant_id":"11"},{"rt":362.26500000339,"stimulus":"Images/rooster_2.png","key_press":65,"stim_onset":1581633436172,"block":1,"match_type":"match","image_category":"rooster","sound_category":"rooster","audio_type":"label","phase":"test","trial_type":"image-keyboard-response","trial_index":226,"time_elapsed":3414328,"internal_node_id":"0.0-13.0-2.43","match_key":"a","participant_id":"11","correct":true},{"rt":null,"stimulus":"Sounds/correct.wav","key_press":null,"block":1,"trial_type":"audio-keyboard-response","trial_index":227,"time_elapsed":3416336,"internal_node_id":"0.0-13.0-3.43","match_key":"a","participant_id":"11"},{"rt":null,"stimulus":"Sounds/train_label.wav","key_press":null,"block":1,"trial_type":"audio-keyboard-response","trial_index":228,"time_elapsed":3417605,"internal_node_id":"0.0-13.0-0.44","match_key":"a","participant_id":"11"},{"rt":null,"stimulus":"<p style=\"font-size: 48px;\">+</p>","key_press":null,"block":1,"trial_type":"html-keyboard-response","trial_index":229,"time_elapsed":3418598,"internal_node_id":"0.0-13.0-1.44","match_key":"a","participant_id":"11"},{"rt":568.2499999967404,"stimulus":"Images/car_orig.png","key_press":76,"stim_onset":1581633440805,"block":1,"match_type":"non-match","image_category":"car","sound_category":"train","audio_type":"label","phase":"test","trial_type":"image-keyboard-response","trial_index":230,"time_elapsed":3419168,"internal_node_id":"0.0-13.0-2.44","match_key":"a","participant_id":"11","correct":true},{"rt":null,"stimulus":"Sounds/correct.wav","key_press":null,"block":1,"trial_type":"audio-keyboard-response","trial_index":231,"time_elapsed":3421171,"internal_node_id":"0.0-13.0-3.44","match_key":"a","participant_id":"11"},{"rt":null,"stimulus":"Sounds/dog_sound.wav","key_press":null,"block":1,"trial_type":"audio-keyboard-response","trial_index":232,"time_elapsed":3421885,"internal_node_id":"0.0-13.0-0.45","match_key":"a","participant_id":"11"},{"rt":null,"stimulus":"<p style=\"font-size: 48px;\">+</p>","key_press":null,"block":1,"trial_type":"html-keyboard-response","trial_index":233,"time_elapsed":3422881,"internal_node_id":"0.0-13.0-1.45","match_key":"a","participant_id":"11"},{"rt":517.5699999961071,"stimulus":"Images/dog_3.png","key_press":65,"stim_onset":1581633445088,"block":1,"match_type":"match","image_category":"dog","sound_category":"dog","audio_type":"sound","phase":"test","trial_type":"image-keyboard-response","trial_index":234,"time_elapsed":3423400,"internal_node_id":"0.0-13.0-2.45","match_key":"a","participant_id":"11","correct":true},{"rt":null,"stimulus":"Sounds/correct.wav","key_press":null,"block":1,"trial_type":"audio-keyboard-response","trial_index":235,"time_elapsed":3425408,"internal_node_id":"0.0-13.0-3.45","match_key":"a","participant_id":"11"},{"rt":null,"stimulus":"Sounds/rooster_label.wav","key_press":null,"block":1,"trial_type":"audio-keyboard-response","trial_index":236,"time_elapsed":3426085,"internal_node_id":"0.0-13.0-0.46","match_key":"a","participant_id":"11"},{"rt":null,"stimulus":"<p style=\"font-size: 48px;\">+</p>","key_press":null,"block":1,"trial_type":"html-keyboard-response","trial_index":237,"time_elapsed":3427083,"internal_node_id":"0.0-13.0-1.46","match_key":"a","participant_id":"11"},{"rt":403.3699999996461,"stimulus":"Images/rooster_3.png","key_press":65,"stim_onset":1581633449289,"block":1,"match_type":"match","image_category":"rooster","sound_category":"rooster","audio_type":"label","phase":"test","trial_type":"image-keyboard-response","trial_index":238,"time_elapsed":3427488,"internal_node_id":"0.0-13.0-2.46","match_key":"a","participant_id":"11","correct":true},{"rt":null,"stimulus":"Sounds/correct.wav","key_press":null,"block":1,"trial_type":"audio-keyboard-response","trial_index":239,"time_elapsed":3429499,"internal_node_id":"0.0-13.0-3.46","match_key":"a","participant_id":"11"},{"rt":null,"stimulus":"Sounds/rooster_sound.wav","key_press":null,"block":1,"trial_type":"audio-keyboard-response","trial_index":240,"time_elapsed":3430205,"internal_node_id":"0.0-13.0-0.47","match_key":"a","participant_id":"11"},{"rt":null,"stimulus":"<p style=\"font-size: 48px;\">+</p>","key_press":null,"block":1,"trial_type":"html-keyboard-response","trial_index":241,"time_elapsed":3431198,"internal_node_id":"0.0-13.0-1.47","match_key":"a","participant_id":"11"},{"rt":384.9500000071712,"stimulus":"Images/rooster_orig.png","key_press":65,"stim_onset":1581633453405,"block":1,"match_type":"match","image_category":"rooster","sound_category":"rooster","audio_type":"sound","phase":"test","trial_type":"image-keyboard-response","trial_index":242,"time_elapsed":3431584,"internal_node_id":"0.0-13.0-2.47","match_key":"a","participant_id":"11","correct":true},{"rt":null,"stimulus":"Sounds/correct.wav","key_press":null,"block":1,"trial_type":"audio-keyboard-response","trial_index":243,"time_elapsed":3433601,"internal_node_id":"0.0-13.0-3.47","match_key":"a","participant_id":"11"},{"rt":null,"stimulus":"Sounds/whistle_label.wav","key_press":null,"block":1,"trial_type":"audio-keyboard-response","trial_index":244,"time_elapsed":3434305,"internal_node_id":"0.0-13.0-0.48","match_key":"a","participant_id":"11"},{"rt":null,"stimulus":"<p style=\"font-size: 48px;\">+</p>","key_press":null,"block":1,"trial_type":"html-keyboard-response","trial_index":245,"time_elapsed":3435299,"internal_node_id":"0.0-13.0-1.48","match_key":"a","participant_id":"11"},{"rt":500.6949999947101,"stimulus":"Images/whistle_3.png","key_press":76,"stim_onset":1581633457506,"block":1,"match_type":"match","image_category":"whistle","sound_category":"whistle","audio_type":"label","phase":"test","trial_type":"image-keyboard-response","trial_index":246,"time_elapsed":3435801,"internal_node_id":"0.0-13.0-2.48","match_key":"a","participant_id":"11","correct":false},{"rt":null,"stimulus":"Sounds/incorrect.wav","key_press":null,"block":1,"trial_type":"audio-keyboard-response","trial_index":247,"time_elapsed":3437809,"internal_node_id":"0.0-13.0-3.48","match_key":"a","participant_id":"11"},{"rt":null,"stimulus":"Sounds/car_sound.wav","key_press":null,"block":1,"trial_type":"audio-keyboard-response","trial_index":248,"time_elapsed":3438886,"internal_node_id":"0.0-13.0-0.49","match_key":"a","participant_id":"11"},{"rt":null,"stimulus":"<p style=\"font-size: 48px;\">+</p>","key_press":null,"block":1,"trial_type":"html-keyboard-response","trial_index":249,"time_elapsed":3439882,"internal_node_id":"0.0-13.0-1.49","match_key":"a","participant_id":"11"},{"rt":565.4599999981001,"stimulus":"Images/frog_cartoon.png","key_press":76,"stim_onset":1581633462089,"block":1,"match_type":"non-match","image_category":"frog","sound_category":"car","audio_type":"sound","phase":"test","trial_type":"image-keyboard-response","trial_index":250,"time_elapsed":3440449,"internal_node_id":"0.0-13.0-2.49","match_key":"a","participant_id":"11","correct":true},{"rt":null,"stimulus":"Sounds/correct.wav","key_press":null,"block":1,"trial_type":"audio-keyboard-response","trial_index":251,"time_elapsed":3442456,"internal_node_id":"0.0-13.0-3.49","match_key":"a","participant_id":"11"},{"rt":null,"stimulus":"Sounds/motorcycle_label.wav","key_press":null,"block":1,"trial_type":"audio-keyboard-response","trial_index":252,"time_elapsed":3443585,"internal_node_id":"0.0-13.0-0.50","match_key":"a","participant_id":"11"},{"rt":null,"stimulus":"<p style=\"font-size: 48px;\">+</p>","key_press":null,"block":1,"trial_type":"html-keyboard-response","trial_index":253,"time_elapsed":3444582,"internal_node_id":"0.0-13.0-1.50","match_key":"a","participant_id":"11"},{"rt":433.6449999976903,"stimulus":"Images/dog_orig.png","key_press":76,"stim_onset":1581633466789,"block":1,"match_type":"non-match","image_category":"dog","sound_category":"motorcycle","audio_type":"label","phase":"test","trial_type":"image-keyboard-response","trial_index":254,"time_elapsed":3445017,"internal_node_id":"0.0-13.0-2.50","match_key":"a","participant_id":"11","correct":true},{"rt":null,"stimulus":"Sounds/correct.wav","key_press":null,"block":1,"trial_type":"audio-keyboard-response","trial_index":255,"time_elapsed":3447031,"internal_node_id":"0.0-13.0-3.50","match_key":"a","participant_id":"11"},{"rt":null,"stimulus":"Sounds/gun_label.wav","key_press":null,"block":1,"trial_type":"audio-keyboard-response","trial_index":256,"time_elapsed":3447605,"internal_node_id":"0.0-13.0-0.51","match_key":"a","participant_id":"11"},{"rt":null,"stimulus":"<p style=\"font-size: 48px;\">+</p>","key_press":null,"block":1,"trial_type":"html-keyboard-response","trial_index":257,"time_elapsed":3448599,"internal_node_id":"0.0-13.0-1.51","match_key":"a","participant_id":"11"},{"rt":432.6099999891594,"stimulus":"Images/frog_3.png","key_press":76,"stim_onset":1581633470806,"block":1,"match_type":"non-match","image_category":"frog","sound_category":"gun","audio_type":"label","phase":"test","trial_type":"image-keyboard-response","trial_index":258,"time_elapsed":3449033,"internal_node_id":"0.0-13.0-2.51","match_key":"a","participant_id":"11","correct":true},{"rt":null,"stimulus":"Sounds/correct.wav","key_press":null,"block":1,"trial_type":"audio-keyboard-response","trial_index":259,"time_elapsed":3451047,"internal_node_id":"0.0-13.0-3.51","match_key":"a","participant_id":"11"},{"rt":null,"stimulus":"Sounds/dog_label.wav","key_press":null,"block":1,"trial_type":"audio-keyboard-response","trial_index":260,"time_elapsed":3451706,"internal_node_id":"0.0-13.0-0.52","match_key":"a","participant_id":"11"},{"rt":null,"stimulus":"<p style=\"font-size: 48px;\">+</p>","key_press":null,"block":1,"trial_type":"html-keyboard-response","trial_index":261,"time_elapsed":3452699,"internal_node_id":"0.0-13.0-1.52","match_key":"a","participant_id":"11"},{"rt":572.6149999974295,"stimulus":"Images/motorcycle_1.png","key_press":76,"stim_onset":1581633474906,"block":1,"match_type":"non-match","image_category":"motorcycle","sound_category":"dog","audio_type":"label","phase":"test","trial_type":"image-keyboard-response","trial_index":262,"time_elapsed":3453273,"internal_node_id":"0.0-13.0-2.52","match_key":"a","participant_id":"11","correct":true},{"rt":null,"stimulus":"Sounds/correct.wav","key_press":null,"block":1,"trial_type":"audio-keyboard-response","trial_index":263,"time_elapsed":3455288,"internal_node_id":"0.0-13.0-3.52","match_key":"a","participant_id":"11"},{"rt":null,"stimulus":"Sounds/cat_sound.wav","key_press":null,"block":1,"trial_type":"audio-keyboard-response","trial_index":264,"time_elapsed":3456125,"internal_node_id":"0.0-13.0-0.53","match_key":"a","participant_id":"11"},{"rt":null,"stimulus":"<p style=\"font-size: 48px;\">+</p>","key_press":null,"block":1,"trial_type":"html-keyboard-response","trial_index":265,"time_elapsed":3457116,"internal_node_id":"0.0-13.0-1.53","match_key":"a","participant_id":"11"},{"rt":548.0600000009872,"stimulus":"Images/train_3.png","key_press":76,"stim_onset":1581633479323,"block":1,"match_type":"non-match","image_category":"train","sound_category":"cat","audio_type":"sound","phase":"test","trial_type":"image-keyboard-response","trial_index":266,"time_elapsed":3457665,"internal_node_id":"0.0-13.0-2.53","match_key":"a","participant_id":"11","correct":true},{"rt":null,"stimulus":"Sounds/correct.wav","key_press":null,"block":1,"trial_type":"audio-keyboard-response","trial_index":267,"time_elapsed":3459674,"internal_node_id":"0.0-13.0-3.53","match_key":"a","participant_id":"11"},{"rt":null,"stimulus":"Sounds/dog_sound.wav","key_press":null,"block":1,"trial_type":"audio-keyboard-response","trial_index":268,"time_elapsed":3460385,"internal_node_id":"0.0-13.0-0.54","match_key":"a","participant_id":"11"},{"rt":null,"stimulus":"<p style=\"font-size: 48px;\">+</p>","key_press":null,"block":1,"trial_type":"html-keyboard-response","trial_index":269,"time_elapsed":3461382,"internal_node_id":"0.0-13.0-1.54","match_key":"a","participant_id":"11"},{"rt":409.07999999728054,"stimulus":"Images/dog_1.png","key_press":65,"stim_onset":1581633483589,"block":1,"match_type":"match","image_category":"dog","sound_category":"dog","audio_type":"sound","phase":"test","trial_type":"image-keyboard-response","trial_index":270,"time_elapsed":3461793,"internal_node_id":"0.0-13.0-2.54","match_key":"a","participant_id":"11","correct":true},{"rt":null,"stimulus":"Sounds/correct.wav","key_press":null,"block":1,"trial_type":"audio-keyboard-response","trial_index":271,"time_elapsed":3463802,"internal_node_id":"0.0-13.0-3.54","match_key":"a","participant_id":"11"},{"rt":null,"stimulus":"Sounds/frog_label.wav","key_press":null,"block":1,"trial_type":"audio-keyboard-response","trial_index":272,"time_elapsed":3464705,"internal_node_id":"0.0-13.0-0.55","match_key":"a","participant_id":"11"},{"rt":null,"stimulus":"<p style=\"font-size: 48px;\">+</p>","key_press":null,"block":1,"trial_type":"html-keyboard-response","trial_index":273,"time_elapsed":3465699,"internal_node_id":"0.0-13.0-1.55","match_key":"a","participant_id":"11"},{"rt":364.29500000644475,"stimulus":"Images/train_orig.png","key_press":76,"stim_onset":1581633487906,"block":1,"match_type":"non-match","image_category":"train","sound_category":"frog","audio_type":"label","phase":"test","trial_type":"image-keyboard-response","trial_index":274,"time_elapsed":3466065,"internal_node_id":"0.0-13.0-2.55","match_key":"a","participant_id":"11","correct":true},{"rt":null,"stimulus":"Sounds/correct.wav","key_press":null,"block":1,"trial_type":"audio-keyboard-response","trial_index":275,"time_elapsed":3468074,"internal_node_id":"0.0-13.0-3.55","match_key":"a","participant_id":"11"},{"rt":null,"stimulus":"Sounds/gun_sound.wav","key_press":null,"block":1,"trial_type":"audio-keyboard-response","trial_index":276,"time_elapsed":3468646,"internal_node_id":"0.0-13.0-0.56","match_key":"a","participant_id":"11"},{"rt":null,"stimulus":"<p style=\"font-size: 48px;\">+</p>","key_press":null,"block":1,"trial_type":"html-keyboard-response","trial_index":277,"time_elapsed":3469649,"internal_node_id":"0.0-13.0-1.56","match_key":"a","participant_id":"11"},{"rt":454.2749999961816,"stimulus":"Images/gun_2.png","key_press":65,"stim_onset":1581633491856,"block":1,"match_type":"match","image_category":"gun","sound_category":"gun","audio_type":"sound","phase":"test","trial_type":"image-keyboard-response","trial_index":278,"time_elapsed":3470105,"internal_node_id":"0.0-13.0-2.56","match_key":"a","participant_id":"11","correct":true},{"rt":null,"stimulus":"Sounds/correct.wav","key_press":null,"block":1,"trial_type":"audio-keyboard-response","trial_index":279,"time_elapsed":3472113,"internal_node_id":"0.0-13.0-3.56","match_key":"a","participant_id":"11"},{"rt":null,"stimulus":"Sounds/motorcycle_label.wav","key_press":null,"block":1,"trial_type":"audio-keyboard-response","trial_index":280,"time_elapsed":3473245,"internal_node_id":"0.0-13.0-0.57","match_key":"a","participant_id":"11"},{"rt":null,"stimulus":"<p style=\"font-size: 48px;\">+</p>","key_press":null,"block":1,"trial_type":"html-keyboard-response","trial_index":281,"time_elapsed":3474249,"internal_node_id":"0.0-13.0-1.57","match_key":"a","participant_id":"11"},{"rt":486.19999999925494,"stimulus":"Images/motorcycle_3.png","key_press":65,"stim_onset":1581633496456,"block":1,"match_type":"match","image_category":"motorcycle","sound_category":"motorcycle","audio_type":"label","phase":"test","trial_type":"image-keyboard-response","trial_index":282,"time_elapsed":3474737,"internal_node_id":"0.0-13.0-2.57","match_key":"a","participant_id":"11","correct":true},{"rt":null,"stimulus":"Sounds/correct.wav","key_press":null,"block":1,"trial_type":"audio-keyboard-response","trial_index":283,"time_elapsed":3476744,"internal_node_id":"0.0-13.0-3.57","match_key":"a","participant_id":"11"},{"rt":null,"stimulus":"Sounds/dog_sound.wav","key_press":null,"block":1,"trial_type":"audio-keyboard-response","trial_index":284,"time_elapsed":3477446,"internal_node_id":"0.0-13.0-0.58","match_key":"a","participant_id":"11"},{"rt":null,"stimulus":"<p style=\"font-size: 48px;\">+</p>","key_press":null,"block":1,"trial_type":"html-keyboard-response","trial_index":285,"time_elapsed":3478449,"internal_node_id":"0.0-13.0-1.58","match_key":"a","participant_id":"11"},{"rt":414.19500000495464,"stimulus":"Images/gun_3.png","key_press":76,"stim_onset":1581633500656,"block":1,"match_type":"non-match","image_category":"gun","sound_category":"dog","audio_type":"sound","phase":"test","trial_type":"image-keyboard-response","trial_index":286,"time_elapsed":3478865,"internal_node_id":"0.0-13.0-2.58","match_key":"a","participant_id":"11","correct":true},{"rt":null,"stimulus":"Sounds/correct.wav","key_press":null,"block":1,"trial_type":"audio-keyboard-response","trial_index":287,"time_elapsed":3480882,"internal_node_id":"0.0-13.0-3.58","match_key":"a","participant_id":"11"},{"rt":null,"stimulus":"Sounds/cow_label.wav","key_press":null,"block":1,"trial_type":"audio-keyboard-response","trial_index":288,"time_elapsed":3481906,"internal_node_id":"0.0-13.0-0.59","match_key":"a","participant_id":"11"},{"rt":null,"stimulus":"<p style=\"font-size: 48px;\">+</p>","key_press":null,"block":1,"trial_type":"html-keyboard-response","trial_index":289,"time_elapsed":3482899,"internal_node_id":"0.0-13.0-1.59","match_key":"a","participant_id":"11"},{"rt":524.6599999954924,"stimulus":"Images/cow_cartoon.png","key_press":65,"stim_onset":1581633505106,"block":1,"match_type":"match","image_category":"cow","sound_category":"cow","audio_type":"label","phase":"test","trial_type":"image-keyboard-response","trial_index":290,"time_elapsed":3483425,"internal_node_id":"0.0-13.0-2.59","match_key":"a","participant_id":"11","correct":true},{"rt":null,"stimulus":"Sounds/correct.wav","key_press":null,"block":1,"trial_type":"audio-keyboard-response","trial_index":291,"time_elapsed":3485441,"internal_node_id":"0.0-13.0-3.59","match_key":"a","participant_id":"11"},{"rt":null,"stimulus":"Sounds/dog_sound.wav","key_press":null,"block":1,"trial_type":"audio-keyboard-response","trial_index":292,"time_elapsed":3486126,"internal_node_id":"0.0-13.0-0.60","match_key":"a","participant_id":"11"},{"rt":null,"stimulus":"<p style=\"font-size: 48px;\">+</p>","key_press":null,"block":1,"trial_type":"html-keyboard-response","trial_index":293,"time_elapsed":3487116,"internal_node_id":"0.0-13.0-1.60","match_key":"a","participant_id":"11"},{"rt":571.4850000077859,"stimulus":"Images/dog_cartoon.png","key_press":65,"stim_onset":1581633509323,"block":1,"match_type":"match","image_category":"dog","sound_category":"dog","audio_type":"sound","phase":"test","trial_type":"image-keyboard-response","trial_index":294,"time_elapsed":3487689,"internal_node_id":"0.0-13.0-2.60","match_key":"a","participant_id":"11","correct":true},{"rt":null,"stimulus":"Sounds/correct.wav","key_press":null,"block":1,"trial_type":"audio-keyboard-response","trial_index":295,"time_elapsed":3489705,"internal_node_id":"0.0-13.0-3.60","match_key":"a","participant_id":"11"},{"rt":null,"stimulus":"Sounds/motorcycle_label.wav","key_press":null,"block":1,"trial_type":"audio-keyboard-response","trial_index":296,"time_elapsed":3490826,"internal_node_id":"0.0-13.0-0.61","match_key":"a","participant_id":"11"},{"rt":null,"stimulus":"<p style=\"font-size: 48px;\">+</p>","key_press":null,"block":1,"trial_type":"html-keyboard-response","trial_index":297,"time_elapsed":3491816,"internal_node_id":"0.0-13.0-1.61","match_key":"a","participant_id":"11"},{"rt":375.56999998912215,"stimulus":"Images/cat_2.png","key_press":76,"stim_onset":1581633514023,"block":1,"match_type":"non-match","image_category":"cat","sound_category":"motorcycle","audio_type":"label","phase":"test","trial_type":"image-keyboard-response","trial_index":298,"time_elapsed":3492193,"internal_node_id":"0.0-13.0-2.61","match_key":"a","participant_id":"11","correct":true},{"rt":null,"stimulus":"Sounds/correct.wav","key_press":null,"block":1,"trial_type":"audio-keyboard-response","trial_index":299,"time_elapsed":3494203,"internal_node_id":"0.0-13.0-3.61","match_key":"a","participant_id":"11"},{"rt":null,"stimulus":"Sounds/frog_label.wav","key_press":null,"block":1,"trial_type":"audio-keyboard-response","trial_index":300,"time_elapsed":3495106,"internal_node_id":"0.0-13.0-0.62","match_key":"a","participant_id":"11"},{"rt":null,"stimulus":"<p style=\"font-size: 48px;\">+</p>","key_press":null,"block":1,"trial_type":"html-keyboard-response","trial_index":301,"time_elapsed":3496100,"internal_node_id":"0.0-13.0-1.62","match_key":"a","participant_id":"11"},{"rt":388.3899999926798,"stimulus":"Images/frog_cartoon.png","key_press":65,"stim_onset":1581633518307,"block":1,"match_type":"match","image_category":"frog","sound_category":"frog","audio_type":"label","phase":"test","trial_type":"image-keyboard-response","trial_index":302,"time_elapsed":3496489,"internal_node_id":"0.0-13.0-2.62","match_key":"a","participant_id":"11","correct":true},{"rt":null,"stimulus":"Sounds/correct.wav","key_press":null,"block":1,"trial_type":"audio-keyboard-response","trial_index":303,"time_elapsed":3498502,"internal_node_id":"0.0-13.0-3.62","match_key":"a","participant_id":"11"},{"rt":null,"stimulus":"Sounds/rooster_label.wav","key_press":null,"block":1,"trial_type":"audio-keyboard-response","trial_index":304,"time_elapsed":3499206,"internal_node_id":"0.0-13.0-0.63","match_key":"a","participant_id":"11"},{"rt":null,"stimulus":"<p style=\"font-size: 48px;\">+</p>","key_press":null,"block":1,"trial_type":"html-keyboard-response","trial_index":305,"time_elapsed":3500200,"internal_node_id":"0.0-13.0-1.63","match_key":"a","participant_id":"11"},{"rt":376.0550000006333,"stimulus":"Images/car_cartoon.png","key_press":76,"stim_onset":1581633522407,"block":1,"match_type":"non-match","image_category":"car","sound_category":"rooster","audio_type":"label","phase":"test","trial_type":"image-keyboard-response","trial_index":306,"time_elapsed":3500577,"internal_node_id":"0.0-13.0-2.63","match_key":"a","participant_id":"11","correct":true},{"rt":null,"stimulus":"Sounds/correct.wav","key_press":null,"block":1,"trial_type":"audio-keyboard-response","trial_index":307,"time_elapsed":3502587,"internal_node_id":"0.0-13.0-3.63","match_key":"a","participant_id":"11"},{"rt":null,"stimulus":"Sounds/motorcycle_sound.wav","key_press":null,"block":1,"trial_type":"audio-keyboard-response","trial_index":308,"time_elapsed":3503706,"internal_node_id":"0.0-13.0-0.64","match_key":"a","participant_id":"11"},{"rt":null,"stimulus":"<p style=\"font-size: 48px;\">+</p>","key_press":null,"block":1,"trial_type":"html-keyboard-response","trial_index":309,"time_elapsed":3504700,"internal_node_id":"0.0-13.0-1.64","match_key":"a","participant_id":"11"},{"rt":483.96000001206994,"stimulus":"Images/motorcycle_1.png","key_press":65,"stim_onset":1581633526907,"block":1,"match_type":"match","image_category":"motorcycle","sound_category":"motorcycle","audio_type":"sound","phase":"test","trial_type":"image-keyboard-response","trial_index":310,"time_elapsed":3505185,"internal_node_id":"0.0-13.0-2.64","match_key":"a","participant_id":"11","correct":true},{"rt":null,"stimulus":"Sounds/correct.wav","key_press":null,"block":1,"trial_type":"audio-keyboard-response","trial_index":311,"time_elapsed":3507196,"internal_node_id":"0.0-13.0-3.64","match_key":"a","participant_id":"11"},{"rt":null,"stimulus":"Sounds/motorcycle_label.wav","key_press":null,"block":1,"trial_type":"audio-keyboard-response","trial_index":312,"time_elapsed":3508306,"internal_node_id":"0.0-13.0-0.65","match_key":"a","participant_id":"11"},{"rt":null,"stimulus":"<p style=\"font-size: 48px;\">+</p>","key_press":null,"block":1,"trial_type":"html-keyboard-response","trial_index":313,"time_elapsed":3509300,"internal_node_id":"0.0-13.0-1.65","match_key":"a","participant_id":"11"},{"rt":364.0500000040047,"stimulus":"Images/motorcycle_cartoon.png","key_press":65,"stim_onset":1581633531507,"block":1,"match_type":"match","image_category":"motorcycle","sound_category":"motorcycle","audio_type":"label","phase":"test","trial_type":"image-keyboard-response","trial_index":314,"time_elapsed":3509665,"internal_node_id":"0.0-13.0-2.65","match_key":"a","participant_id":"11","correct":true},{"rt":null,"stimulus":"Sounds/correct.wav","key_press":null,"block":1,"trial_type":"audio-keyboard-response","trial_index":315,"time_elapsed":3511672,"internal_node_id":"0.0-13.0-3.65","match_key":"a","participant_id":"11"},{"rt":null,"stimulus":"Sounds/rooster_label.wav","key_press":null,"block":1,"trial_type":"audio-keyboard-response","trial_index":316,"time_elapsed":3512346,"internal_node_id":"0.0-13.0-0.66","match_key":"a","participant_id":"11"},{"rt":null,"stimulus":"<p style=\"font-size: 48px;\">+</p>","key_press":null,"block":1,"trial_type":"html-keyboard-response","trial_index":317,"time_elapsed":3513350,"internal_node_id":"0.0-13.0-1.66","match_key":"a","participant_id":"11"},{"rt":473.7849999945611,"stimulus":"Images/dog_2.png","key_press":76,"stim_onset":1581633535557,"block":1,"match_type":"non-match","image_category":"dog","sound_category":"rooster","audio_type":"label","phase":"test","trial_type":"image-keyboard-response","trial_index":318,"time_elapsed":3513825,"internal_node_id":"0.0-13.0-2.66","match_key":"a","participant_id":"11","correct":true},{"rt":null,"stimulus":"Sounds/correct.wav","key_press":null,"block":1,"trial_type":"audio-keyboard-response","trial_index":319,"time_elapsed":3515829,"internal_node_id":"0.0-13.0-3.66","match_key":"a","participant_id":"11"},{"rt":null,"stimulus":"Sounds/gun_sound.wav","key_press":null,"block":1,"trial_type":"audio-keyboard-response","trial_index":320,"time_elapsed":3516406,"internal_node_id":"0.0-13.0-0.67","match_key":"a","participant_id":"11"},{"rt":null,"stimulus":"<p style=\"font-size: 48px;\">+</p>","key_press":null,"block":1,"trial_type":"html-keyboard-response","trial_index":321,"time_elapsed":3517400,"internal_node_id":"0.0-13.0-1.67","match_key":"a","participant_id":"11"},{"rt":463.99000000348315,"stimulus":"Images/cat_cartoon.png","key_press":76,"stim_onset":1581633539607,"block":1,"match_type":"non-match","image_category":"cat","sound_category":"gun","audio_type":"sound","phase":"test","trial_type":"image-keyboard-response","trial_index":322,"time_elapsed":3517865,"internal_node_id":"0.0-13.0-2.67","match_key":"a","participant_id":"11","correct":true},{"rt":null,"stimulus":"Sounds/correct.wav","key_press":null,"block":1,"trial_type":"audio-keyboard-response","trial_index":323,"time_elapsed":3519879,"internal_node_id":"0.0-13.0-3.67","match_key":"a","participant_id":"11"},{"rt":null,"stimulus":"Sounds/cat_label.wav","key_press":null,"block":1,"trial_type":"audio-keyboard-response","trial_index":324,"time_elapsed":3520726,"internal_node_id":"0.0-13.0-0.68","match_key":"a","participant_id":"11"},{"rt":null,"stimulus":"<p style=\"font-size: 48px;\">+</p>","key_press":null,"block":1,"trial_type":"html-keyboard-response","trial_index":325,"time_elapsed":3521717,"internal_node_id":"0.0-13.0-1.68","match_key":"a","participant_id":"11"},{"rt":491.3000000086613,"stimulus":"Images/cat_3.png","key_press":65,"stim_onset":1581633543924,"block":1,"match_type":"match","image_category":"cat","sound_category":"cat","audio_type":"label","phase":"test","trial_type":"image-keyboard-response","trial_index":326,"time_elapsed":3522209,"internal_node_id":"0.0-13.0-2.68","match_key":"a","participant_id":"11","correct":true},{"rt":null,"stimulus":"Sounds/correct.wav","key_press":null,"block":1,"trial_type":"audio-keyboard-response","trial_index":327,"time_elapsed":3524213,"internal_node_id":"0.0-13.0-3.68","match_key":"a","participant_id":"11"},{"rt":null,"stimulus":"Sounds/train_label.wav","key_press":null,"block":1,"trial_type":"audio-keyboard-response","trial_index":328,"time_elapsed":3525486,"internal_node_id":"0.0-13.0-0.69","match_key":"a","participant_id":"11"},{"rt":null,"stimulus":"<p style=\"font-size: 48px;\">+</p>","key_press":null,"block":1,"trial_type":"html-keyboard-response","trial_index":329,"time_elapsed":3526483,"internal_node_id":"0.0-13.0-1.69","match_key":"a","participant_id":"11"},{"rt":380.3400000031106,"stimulus":"Images/train_2.png","key_press":65,"stim_onset":1581633548691,"block":1,"match_type":"match","image_category":"train","sound_category":"train","audio_type":"label","phase":"test","trial_type":"image-keyboard-response","trial_index":330,"time_elapsed":3526865,"internal_node_id":"0.0-13.0-2.69","match_key":"a","participant_id":"11","correct":true},{"rt":null,"stimulus":"Sounds/correct.wav","key_press":null,"block":1,"trial_type":"audio-keyboard-response","trial_index":331,"time_elapsed":3528870,"internal_node_id":"0.0-13.0-3.69","match_key":"a","participant_id":"11"},{"rt":null,"stimulus":"Sounds/frog_label.wav","key_press":null,"block":1,"trial_type":"audio-keyboard-response","trial_index":332,"time_elapsed":3529766,"internal_node_id":"0.0-13.0-0.70","match_key":"a","participant_id":"11"},{"rt":null,"stimulus":"<p style=\"font-size: 48px;\">+</p>","key_press":null,"block":1,"trial_type":"html-keyboard-response","trial_index":333,"time_elapsed":3530784,"internal_node_id":"0.0-13.0-1.70","match_key":"a","participant_id":"11"},{"rt":336.2199999978766,"stimulus":"Images/frog_2.png","key_press":65,"stim_onset":1581633552990,"block":1,"match_type":"match","image_category":"frog","sound_category":"frog","audio_type":"label","phase":"test","trial_type":"image-keyboard-response","trial_index":334,"time_elapsed":3531121,"internal_node_id":"0.0-13.0-2.70","match_key":"a","participant_id":"11","correct":true},{"rt":null,"stimulus":"Sounds/correct.wav","key_press":null,"block":1,"trial_type":"audio-keyboard-response","trial_index":335,"time_elapsed":3533137,"internal_node_id":"0.0-13.0-3.70","match_key":"a","participant_id":"11"},{"rt":null,"stimulus":"Sounds/train_sound.wav","key_press":null,"block":1,"trial_type":"audio-keyboard-response","trial_index":336,"time_elapsed":3534426,"internal_node_id":"0.0-13.0-0.71","match_key":"a","participant_id":"11"},{"rt":null,"stimulus":"<p style=\"font-size: 48px;\">+</p>","key_press":null,"block":1,"trial_type":"html-keyboard-response","trial_index":337,"time_elapsed":3535417,"internal_node_id":"0.0-13.0-1.71","match_key":"a","participant_id":"11"},{"rt":351.149999987334,"stimulus":"Images/train_cartoon.png","key_press":65,"stim_onset":1581633557624,"block":1,"match_type":"match","image_category":"train","sound_category":"train","audio_type":"sound","phase":"test","trial_type":"image-keyboard-response","trial_index":338,"time_elapsed":3535769,"internal_node_id":"0.0-13.0-2.71","match_key":"a","participant_id":"11","correct":true},{"rt":null,"stimulus":"Sounds/correct.wav","key_press":null,"block":1,"trial_type":"audio-keyboard-response","trial_index":339,"time_elapsed":3537773,"internal_node_id":"0.0-13.0-3.71","match_key":"a","participant_id":"11"},{"rt":null,"stimulus":"Sounds/cow_sound.wav","key_press":null,"block":1,"trial_type":"audio-keyboard-response","trial_index":340,"time_elapsed":3538786,"internal_node_id":"0.0-13.0-0.72","match_key":"a","participant_id":"11"},{"rt":null,"stimulus":"<p style=\"font-size: 48px;\">+</p>","key_press":null,"block":1,"trial_type":"html-keyboard-response","trial_index":341,"time_elapsed":3539783,"internal_node_id":"0.0-13.0-1.72","match_key":"a","participant_id":"11"},{"rt":360.24500000383705,"stimulus":"Images/cow_2.png","key_press":65,"stim_onset":1581633561991,"block":1,"match_type":"match","image_category":"cow","sound_category":"cow","audio_type":"sound","phase":"test","trial_type":"image-keyboard-response","trial_index":342,"time_elapsed":3540145,"internal_node_id":"0.0-13.0-2.72","match_key":"a","participant_id":"11","correct":true},{"rt":null,"stimulus":"Sounds/correct.wav","key_press":null,"block":1,"trial_type":"audio-keyboard-response","trial_index":343,"time_elapsed":3542156,"internal_node_id":"0.0-13.0-3.72","match_key":"a","participant_id":"11"},{"rt":null,"stimulus":"Sounds/cow_sound.wav","key_press":null,"block":1,"trial_type":"audio-keyboard-response","trial_index":344,"time_elapsed":3543146,"internal_node_id":"0.0-13.0-0.73","match_key":"a","participant_id":"11"},{"rt":null,"stimulus":"<p style=\"font-size: 48px;\">+</p>","key_press":null,"block":1,"trial_type":"html-keyboard-response","trial_index":345,"time_elapsed":3544150,"internal_node_id":"0.0-13.0-1.73","match_key":"a","participant_id":"11"},{"rt":377.3050000020303,"stimulus":"Images/cat_1.png","key_press":76,"stim_onset":1581633566358,"block":1,"match_type":"non-match","image_category":"cat","sound_category":"cow","audio_type":"sound","phase":"test","trial_type":"image-keyboard-response","trial_index":346,"time_elapsed":3544529,"internal_node_id":"0.0-13.0-2.73","match_key":"a","participant_id":"11","correct":true},{"rt":null,"stimulus":"Sounds/correct.wav","key_press":null,"block":1,"trial_type":"audio-keyboard-response","trial_index":347,"time_elapsed":3546536,"internal_node_id":"0.0-13.0-3.73","match_key":"a","participant_id":"11"},{"rt":null,"stimulus":"Sounds/gun_sound.wav","key_press":null,"block":1,"trial_type":"audio-keyboard-response","trial_index":348,"time_elapsed":3547106,"internal_node_id":"0.0-13.0-0.74","match_key":"a","participant_id":"11"},{"rt":null,"stimulus":"<p style=\"font-size: 48px;\">+</p>","key_press":null,"block":1,"trial_type":"html-keyboard-response","trial_index":349,"time_elapsed":3548100,"internal_node_id":"0.0-13.0-1.74","match_key":"a","participant_id":"11"},{"rt":411.86999999638647,"stimulus":"Images/gun_orig.png","key_press":65,"stim_onset":1581633570307,"block":1,"match_type":"match","image_category":"gun","sound_category":"gun","audio_type":"sound","phase":"test","trial_type":"image-keyboard-response","trial_index":350,"time_elapsed":3548513,"internal_node_id":"0.0-13.0-2.74","match_key":"a","participant_id":"11","correct":true},{"rt":null,"stimulus":"Sounds/correct.wav","key_press":null,"block":1,"trial_type":"audio-keyboard-response","trial_index":351,"time_elapsed":3550519,"internal_node_id":"0.0-13.0-3.74","match_key":"a","participant_id":"11"},{"rt":null,"stimulus":"Sounds/rooster_sound.wav","key_press":null,"block":1,"trial_type":"audio-keyboard-response","trial_index":352,"time_elapsed":3551206,"internal_node_id":"0.0-13.0-0.75","match_key":"a","participant_id":"11"},{"rt":null,"stimulus":"<p style=\"font-size: 48px;\">+</p>","key_press":null,"block":1,"trial_type":"html-keyboard-response","trial_index":353,"time_elapsed":3552200,"internal_node_id":"0.0-13.0-1.75","match_key":"a","participant_id":"11"},{"rt":375.29999999981374,"stimulus":"Images/motorcycle_orig.png","key_press":76,"stim_onset":1581633574407,"block":1,"match_type":"non-match","image_category":"motorcycle","sound_category":"rooster","audio_type":"sound","phase":"test","trial_type":"image-keyboard-response","trial_index":354,"time_elapsed":3552577,"internal_node_id":"0.0-13.0-2.75","match_key":"a","participant_id":"11","correct":true},{"rt":null,"stimulus":"Sounds/correct.wav","key_press":null,"block":1,"trial_type":"audio-keyboard-response","trial_index":355,"time_elapsed":3554588,"internal_node_id":"0.0-13.0-3.75","match_key":"a","participant_id":"11"},{"rt":null,"stimulus":"Sounds/motorcycle_sound.wav","key_press":null,"block":1,"trial_type":"audio-keyboard-response","trial_index":356,"time_elapsed":3555706,"internal_node_id":"0.0-13.0-0.76","match_key":"a","participant_id":"11"},{"rt":null,"stimulus":"<p style=\"font-size: 48px;\">+</p>","key_press":null,"block":1,"trial_type":"html-keyboard-response","trial_index":357,"time_elapsed":3556700,"internal_node_id":"0.0-13.0-1.76","match_key":"a","participant_id":"11"},{"rt":442.09500000532717,"stimulus":"Images/frog_2.png","key_press":65,"stim_onset":1581633578908,"block":1,"match_type":"non-match","image_category":"frog","sound_category":"motorcycle","audio_type":"sound","phase":"test","trial_type":"image-keyboard-response","trial_index":358,"time_elapsed":3557145,"internal_node_id":"0.0-13.0-2.76","match_key":"a","participant_id":"11","correct":false},{"rt":null,"stimulus":"Sounds/incorrect.wav","key_press":null,"block":1,"trial_type":"audio-keyboard-response","trial_index":359,"time_elapsed":3559148,"internal_node_id":"0.0-13.0-3.76","match_key":"a","participant_id":"11"},{"rt":null,"stimulus":"Sounds/whistle_label.wav","key_press":null,"block":1,"trial_type":"audio-keyboard-response","trial_index":360,"time_elapsed":3559846,"internal_node_id":"0.0-13.0-0.77","match_key":"a","participant_id":"11"},{"rt":null,"stimulus":"<p style=\"font-size: 48px;\">+</p>","key_press":null,"block":1,"trial_type":"html-keyboard-response","trial_index":361,"time_elapsed":3560851,"internal_node_id":"0.0-13.0-1.77","match_key":"a","participant_id":"11"},{"rt":397.38500000396743,"stimulus":"Images/whistle_2.png","key_press":65,"stim_onset":1581633583058,"block":1,"match_type":"match","image_category":"whistle","sound_category":"whistle","audio_type":"label","phase":"test","trial_type":"image-keyboard-response","trial_index":362,"time_elapsed":3561249,"internal_node_id":"0.0-13.0-2.77","match_key":"a","participant_id":"11","correct":true},{"rt":null,"stimulus":"Sounds/correct.wav","key_press":null,"block":1,"trial_type":"audio-keyboard-response","trial_index":363,"time_elapsed":3563252,"internal_node_id":"0.0-13.0-3.77","match_key":"a","participant_id":"11"},{"rt":null,"stimulus":"Sounds/train_label.wav","key_press":null,"block":1,"trial_type":"audio-keyboard-response","trial_index":364,"time_elapsed":3564526,"internal_node_id":"0.0-13.0-0.78","match_key":"a","participant_id":"11"},{"rt":null,"stimulus":"<p style=\"font-size: 48px;\">+</p>","key_press":null,"block":1,"trial_type":"html-keyboard-response","trial_index":365,"time_elapsed":3565517,"internal_node_id":"0.0-13.0-1.78","match_key":"a","participant_id":"11"},{"rt":402.6799999992363,"stimulus":"Images/rooster_