"rt","responses","trial_type","trial_index","time_elapsed","internal_node_id","match_key","participant_id","stimulus","key_press","block","stim_onset","match_type","image_category","sound_category","audio_type","phase","correct"
"18112.89000000005","{""Q0"":""COGS_2020_17""}","survey-text","0","18144","0.0-0.0","l","COGS_2020_17","","","","","","","","","",""
"99942.23499999999","","html-keyboard-response","1","118187","0.0-1.0","l","COGS_2020_17","<p>Use KEYBOARD 1 (match RIGHT)</p><p>Press MATCH to continue.</p>","76","","","","","","","",""
"1746093.5500000003","","html-keyboard-response","2","1864541","0.0-2.0","l","COGS_2020_17","<p>Welcome to the experiment.</p>","32","","","","","","","",""
"9881.000000000233","","html-keyboard-response","3","1874427","0.0-3.0","l","COGS_2020_17","<p>Thank you for agreeing to participate in this study.</p><p>If during any part of the procedure you must stop for any reason, please inform the researcher that you do not wish to continue.</p>","32","","","","","","","",""
"15966.625","","html-keyboard-response","4","1890396","0.0-4.0","l","COGS_2020_17","<p>In this experiment, you will hear various words or sounds and see pictures of various animals and objects.</p><p>Most of the images will be of common everyday objects, such as cars, cats, cows, firearms, frogs, chickens, whistles, trains, motorcycles, and dogs.</p><p>Some of the images will be real-life stills, while others will be cartoons.</p>","32","","","","","","","",""
"13390.634999999544","","html-keyboard-response","5","1903787","0.0-5.0","l","COGS_2020_17","<p>Sometimes, the word/sound will match the picture, for example you'll hear a meowing sound and see a cat.</p><p>Other times, the picture will not match the sound or word.</p><p>Your task is to decide as quickly as possible if the word/sound matches the picture or not. </p>","32","","","","","","","",""
"15838.485000000102","","html-keyboard-response","6","1919627","0.0-6.0","l","COGS_2020_17","<p>For example, if you hear the word ""cat"" or hear a meowing sound, and then see a picture of a cat, you should press the MATCH key.</p><p> If the sound and image do not match, press the NOT-MATCH key to indicate that there is not a match.</p>","32","","","","","","","",""
"12447.054999999935","","html-keyboard-response","7","1932066","0.0-7.0","l","COGS_2020_17","<p>If you make a mistake, you will hear a buzzing sound instead of a more pleasant sound.</p><p> Try to respond as quickly as possible, while making as few errors as possible. If you are making mistakes, you are probably rushing.</p>","32","","","","","","","",""
"12574.390000000363","","html-keyboard-response","8","1944642","0.0-8.0","l","COGS_2020_17","<p>Please try to not move or blink your eyes during the presentation of the images. You can move and blink between images.</p><p>During the experiment there will be some breaks during which you can rest your eyes.</p>","32","","","","","","","",""
"91471.69999999949","","html-keyboard-response","9","2036131","0.0-9.0","l","COGS_2020_17","<p>We will begin with 10 practice trials. Please let the experimenter know if you have any questions.</p>","76","","","","","","","",""
"null","","audio-keyboard-response","10","2036918","0.0-10.0-0.0","l","COGS_2020_17","Sounds/rooster_sound.wav","null","0","","","","","","",""
"null","","html-keyboard-response","11","2037923","0.0-10.0-1.0","l","COGS_2020_17","<p style=""font-size: 48px;"">+</p>","null","0","","","","","","",""
"1277.065000000177","","image-keyboard-response","12","2039202","0.0-10.0-2.0","l","COGS_2020_17","Images/rooster_orig.png","76","0","1581968526724","match","rooster","rooster","sound","practice","true"
"null","","audio-keyboard-response","13","2041216","0.0-10.0-3.0","l","COGS_2020_17","Sounds/correct.wav","null","0","","","","","","",""
"null","","audio-keyboard-response","14","2041918","0.0-10.0-0.1","l","COGS_2020_17","Sounds/rooster_label.wav","null","0","","","","","","",""
"null","","html-keyboard-response","15","2042906","0.0-10.0-1.1","l","COGS_2020_17","<p style=""font-size: 48px;"">+</p>","null","0","","","","","","",""
"2342.4150000000373","","image-keyboard-response","16","2045250","0.0-10.0-2.1","l","COGS_2020_17","Images/gun_cartoon.png","65","0","1581968531708","non-match","gun","rooster","label","practice","true"
"null","","audio-keyboard-response","17","2047263","0.0-10.0-3.1","l","COGS_2020_17","Sounds/correct.wav","null","0","","","","","","",""
"null","","audio-keyboard-response","18","2048378","0.0-10.0-0.2","l","COGS_2020_17","Sounds/motorcycle_sound.wav","null","0","","","","","","",""
"null","","html-keyboard-response","19","2049373","0.0-10.0-1.2","l","COGS_2020_17","<p style=""font-size: 48px;"">+</p>","null","0","","","","","","",""
"756.0900000003166","","image-keyboard-response","20","2050130","0.0-10.0-2.2","l","COGS_2020_17","Images/motorcycle_3.png","76","0","1581968538174","match","motorcycle","motorcycle","sound","practice","true"
"null","","audio-keyboard-response","21","2052143","0.0-10.0-3.2","l","COGS_2020_17","Sounds/correct.wav","null","0","","","","","","",""
"null","","audio-keyboard-response","22","2053158","0.0-10.0-0.3","l","COGS_2020_17","Sounds/cow_sound.wav","null","0","","","","","","",""
"null","","html-keyboard-response","23","2054159","0.0-10.0-1.3","l","COGS_2020_17","<p style=""font-size: 48px;"">+</p>","null","0","","","","","","",""
"628.4899999999907","","image-keyboard-response","24","2054789","0.0-10.0-2.3","l","COGS_2020_17","Images/cat_2.png","65","0","1581968542960","non-match","cat","cow","sound","practice","true"
"null","","audio-keyboard-response","25","2056799","0.0-10.0-3.3","l","COGS_2020_17","Sounds/correct.wav","null","0","","","","","","",""
"null","","audio-keyboard-response","26","2057701","0.0-10.0-0.4","l","COGS_2020_17","Sounds/frog_sound.wav","null","0","","","","","","",""
"null","","html-keyboard-response","27","2058692","0.0-10.0-1.4","l","COGS_2020_17","<p style=""font-size: 48px;"">+</p>","null","0","","","","","","",""
"623.1050000002142","","image-keyboard-response","28","2059317","0.0-10.0-2.4","l","COGS_2020_17","Images/train_3.png","65","0","1581968547494","non-match","train","frog","sound","practice","true"
"null","","audio-keyboard-response","29","2061330","0.0-10.0-3.4","l","COGS_2020_17","Sounds/correct.wav","null","0","","","","","","",""
"null","","audio-keyboard-response","30","2062420","0.0-10.0-0.5","l","COGS_2020_17","Sounds/motorcycle_sound.wav","null","0","","","","","","",""
"null","","html-keyboard-response","31","2063426","0.0-10.0-1.5","l","COGS_2020_17","<p style=""font-size: 48px;"">+</p>","null","0","","","","","","",""
"625.5299999997951","","image-keyboard-response","32","2064053","0.0-10.0-2.5","l","COGS_2020_17","Images/frog_cartoon.png","65","0","1581968552227","non-match","frog","motorcycle","sound","practice","true"
"null","","audio-keyboard-response","33","2066063","0.0-10.0-3.5","l","COGS_2020_17","Sounds/correct.wav","null","0","","","","","","",""
"null","","audio-keyboard-response","34","2066900","0.0-10.0-0.6","l","COGS_2020_17","Sounds/cat_sound.wav","null","0","","","","","","",""
"null","","html-keyboard-response","35","2067893","0.0-10.0-1.6","l","COGS_2020_17","<p style=""font-size: 48px;"">+</p>","null","0","","","","","","",""
"751.070000000298","","image-keyboard-response","36","2068645","0.0-10.0-2.6","l","COGS_2020_17","Images/cat_cartoon.png","76","0","1581968556694","match","cat","cat","sound","practice","true"
"null","","audio-keyboard-response","37","2070649","0.0-10.0-3.6","l","COGS_2020_17","Sounds/correct.wav","null","0","","","","","","",""
"null","","audio-keyboard-response","38","2071340","0.0-10.0-0.7","l","COGS_2020_17","Sounds/rooster_sound.wav","null","0","","","","","","",""
"null","","html-keyboard-response","39","2072343","0.0-10.0-1.7","l","COGS_2020_17","<p style=""font-size: 48px;"">+</p>","null","0","","","","","","",""
"620.8699999998789","","image-keyboard-response","40","2072965","0.0-10.0-2.7","l","COGS_2020_17","Images/motorcycle_orig.png","65","0","1581968561144","non-match","motorcycle","rooster","sound","practice","true"
"null","","audio-keyboard-response","41","2074981","0.0-10.0-3.7","l","COGS_2020_17","Sounds/correct.wav","null","0","","","","","","",""
"null","","audio-keyboard-response","42","2076060","0.0-10.0-0.8","l","COGS_2020_17","Sounds/car_sound.wav","null","0","","","","","","",""
"null","","html-keyboard-response","43","2077059","0.0-10.0-1.8","l","COGS_2020_17","<p style=""font-size: 48px;"">+</p>","null","0","","","","","","",""
"720.4949999998789","","image-keyboard-response","44","2077781","0.0-10.0-2.8","l","COGS_2020_17","Images/cow_orig.png","65","0","1581968565860","non-match","cow","car","sound","practice","true"
"null","","audio-keyboard-response","45","2079797","0.0-10.0-3.8","l","COGS_2020_17","Sounds/correct.wav","null","0","","","","","","",""
"null","","audio-keyboard-response","46","2080700","0.0-10.0-0.9","l","COGS_2020_17","Sounds/frog_label.wav","null","0","","","","","","",""
"null","","html-keyboard-response","47","2081693","0.0-10.0-1.9","l","COGS_2020_17","<p style=""font-size: 48px;"">+</p>","null","0","","","","","","",""
"534.7699999997858","","image-keyboard-response","48","2082228","0.0-10.0-2.9","l","COGS_2020_17","Images/frog_cartoon.png","76","0","1581968570494","match","frog","frog","label","practice","true"
"null","","audio-keyboard-response","49","2084246","0.0-10.0-3.9","l","COGS_2020_17","Sounds/correct.wav","null","0","","","","","","",""
"27197.519999999786","","html-keyboard-response","50","2111445","0.0-11.0","l","COGS_2020_17","<p>The rest of the experiment is divided into five blocks with 100 trials in each block. It will take about 45 minutes to complete.</p><p>The experimenter will be in the outer room and you can communicate with them through the monitor if you have any questions or wish to stop the experiment.</p>","13","","","","","","","",""
"34255.46500000032","","html-keyboard-response","51","2145701","0.0-12.0","l","COGS_2020_17","<p>Remember, please try not to move or blink your eyes during the presentation of the images. </p><p>At the end of the experiment, we will show you your scores on the task so you can see how you did.</p><p>The experiment will start on the next screen.</p>","76","","","","","","","",""
"null","","audio-keyboard-response","52","2148420","0.0-13.0-0.0","l","COGS_2020_17","Sounds/rooster_label.wav","null","1","","","","","","",""
"null","","html-keyboard-response","53","2149411","0.0-13.0-1.0","l","COGS_2020_17","<p style=""font-size: 48px;"">+</p>","null","1","","","","","","",""
"1281.5200000000186","","image-keyboard-response","54","2150693","0.0-13.0-2.0","l","COGS_2020_17","Images/rooster_cartoon.png","76","1","1581968638212","match","rooster","rooster","label","test","true"
"null","","audio-keyboard-response","55","2152701","0.0-13.0-3.0","l","COGS_2020_17","Sounds/correct.wav","null","1","","","","","","",""
"null","","audio-keyboard-response","56","2153781","0.0-13.0-0.1","l","COGS_2020_17","Sounds/car_sound.wav","null","1","","","","","","",""
"null","","html-keyboard-response","57","2154777","0.0-13.0-1.1","l","COGS_2020_17","<p style=""font-size: 48px;"">+</p>","null","1","","","","","","",""
"3818.975000000093","","image-keyboard-response","58","2158597","0.0-13.0-2.1","l","COGS_2020_17","Images/car_cartoon.png","76","1","1581968643578","match","car","car","sound","test","true"
"null","","audio-keyboard-response","59","2160603","0.0-13.0-3.1","l","COGS_2020_17","Sounds/correct.wav","null","1","","","","","","",""
"null","","audio-keyboard-response","60","2161180","0.0-13.0-0.2","l","COGS_2020_17","Sounds/gun_label.wav","null","1","","","","","","",""
"null","","html-keyboard-response","61","2162177","0.0-13.0-1.2","l","COGS_2020_17","<p style=""font-size: 48px;"">+</p>","null","1","","","","","","",""
"578.6850000000559","","image-keyboard-response","62","2162757","0.0-13.0-2.2","l","COGS_2020_17","Images/gun_cartoon.png","76","1","1581968650979","match","gun","gun","label","test","true"
"null","","audio-keyboard-response","63","2164769","0.0-13.0-3.2","l","COGS_2020_17","Sounds/correct.wav","null","1","","","","","","",""
"null","","audio-keyboard-response","64","2165780","0.0-13.0-0.3","l","COGS_2020_17","Sounds/cow_label.wav","null","1","","","","","","",""
"null","","html-keyboard-response","65","2166777","0.0-13.0-1.3","l","COGS_2020_17","<p style=""font-size: 48px;"">+</p>","null","1","","","","","","",""
"1370.554999999702","","image-keyboard-response","66","2168149","0.0-13.0-2.3","l","COGS_2020_17","Images/cat_cartoon.png","65","1","1581968655578","non-match","cat","cow","label","test","true"
"null","","audio-keyboard-response","67","2170152","0.0-13.0-3.3","l","COGS_2020_17","Sounds/correct.wav","null","1","","","","","","",""
"null","","audio-keyboard-response","68","2170820","0.0-13.0-0.4","l","COGS_2020_17","Sounds/dog_label.wav","null","1","","","","","","",""
"null","","html-keyboard-response","69","2171828","0.0-13.0-1.4","l","COGS_2020_17","<p style=""font-size: 48px;"">+</p>","null","1","","","","","","",""
"640.2450000001118","","image-keyboard-response","70","2172469","0.0-13.0-2.4","l","COGS_2020_17","Images/gun_2.png","65","1","1581968660629","non-match","gun","dog","label","test","true"
"null","","audio-keyboard-response","71","2174482","0.0-13.0-3.4","l","COGS_2020_17","Sounds/correct.wav","null","1","","","","","","",""
"null","","audio-keyboard-response","72","2175620","0.0-13.0-0.5","l","COGS_2020_17","Sounds/motorcycle_label.wav","null","1","","","","","","",""
"null","","html-keyboard-response","73","2176611","0.0-13.0-1.5","l","COGS_2020_17","<p style=""font-size: 48px;"">+</p>","null","1","","","","","","",""
"609.089999999851","","image-keyboard-response","74","2177221","0.0-13.0-2.5","l","COGS_2020_17","Images/whistle_cartoon.png","65","1","1581968665412","non-match","whistle","motorcycle","label","test","true"
"null","","audio-keyboard-response","75","2179232","0.0-13.0-3.5","l","COGS_2020_17","Sounds/correct.wav","null","1","","","","","","",""
"null","","audio-keyboard-response","76","2180301","0.0-13.0-0.6","l","COGS_2020_17","Sounds/car_sound.wav","null","1","","","","","","",""
"null","","html-keyboard-response","77","2181295","0.0-13.0-1.6","l","COGS_2020_17","<p style=""font-size: 48px;"">+</p>","null","1","","","","","","",""
"1157.8100000000559","","image-keyboard-response","78","2182454","0.0-13.0-2.6","l","COGS_2020_17","Images/car_orig.png","76","1","1581968670096","match","car","car","sound","test","true"
"null","","audio-keyboard-response","79","2184465","0.0-13.0-3.6","l","COGS_2020_17","Sounds/correct.wav","null","1","","","","","","",""
"null","","audio-keyboard-response","80","2185161","0.0-13.0-0.7","l","COGS_2020_17","Sounds/whistle_sound.wav","null","1","","","","","","",""
"null","","html-keyboard-response","81","2186178","0.0-13.0-1.7","l","COGS_2020_17","<p style=""font-size: 48px;"">+</p>","null","1","","","","","","",""
"530.6850000000559","","image-keyboard-response","82","2186710","0.0-13.0-2.7","l","COGS_2020_17","Images/whistle_orig.png","76","1","1581968674980","match","whistle","whistle","sound","test","true"
"null","","audio-keyboard-response","83","2188717","0.0-13.0-3.7","l","COGS_2020_17","Sounds/correct.wav","null","1","","","","","","",""
"null","","audio-keyboard-response","84","2189421","0.0-13.0-0.8","l","COGS_2020_17","Sounds/dog_sound.wav","null","1","","","","","","",""
"null","","html-keyboard-response","85","2190412","0.0-13.0-1.8","l","COGS_2020_17","<p style=""font-size: 48px;"">+</p>","null","1","","","","","","",""
"1369.0750000001863","","image-keyboard-response","86","2191782","0.0-13.0-2.8","l","COGS_2020_17","Images/rooster_orig.png","65","1","1581968679213","non-match","rooster","dog","sound","test","true"
"null","","audio-keyboard-response","87","2193788","0.0-13.0-3.8","l","COGS_2020_17","Sounds/correct.wav","null","1","","","","","","",""
"null","","audio-keyboard-response","88","2194901","0.0-13.0-0.9","l","COGS_2020_17","Sounds/motorcycle_sound.wav","null","1","","","","","","",""
"null","","html-keyboard-response","89","2195895","0.0-13.0-1.9","l","COGS_2020_17","<p style=""font-size: 48px;"">+</p>","null","1","","","","","","",""
"2621.880000000354","","image-keyboard-response","90","2198518","0.0-13.0-2.9","l","COGS_2020_17","Images/car_2.png","76","1","1581968684696","non-match","car","motorcycle","sound","test","false"
"null","","audio-keyboard-response","91","2200535","0.0-13.0-3.9","l","COGS_2020_17","Sounds/incorrect.wav","null","1","","","","","","",""
"null","","audio-keyboard-response","92","2201241","0.0-13.0-0.10","l","COGS_2020_17","Sounds/rooster_label.wav","null","1","","","","","","",""
"null","","html-keyboard-response","93","2202245","0.0-13.0-1.10","l","COGS_2020_17","<p style=""font-size: 48px;"">+</p>","null","1","","","","","","",""
"559.4799999999814","","image-keyboard-response","94","2202806","0.0-13.0-2.10","l","COGS_2020_17","Images/whistle_1.png","65","1","1581968691046","non-match","whistle","rooster","label","test","true"
"null","","audio-keyboard-response","95","2204817","0.0-13.0-3.10","l","COGS_2020_17","Sounds/correct.wav","null","1","","","","","","",""
"null","","audio-keyboard-response","96","2205401","0.0-13.0-0.11","l","COGS_2020_17","Sounds/gun_label.wav","null","1","","","","","","",""
"null","","html-keyboard-response","97","2206395","0.0-13.0-1.11","l","COGS_2020_17","<p style=""font-size: 48px;"">+</p>","null","1","","","","","","",""
"521.5249999999069","","image-keyboard-response","98","2206918","0.0-13.0-2.11","l","COGS_2020_17","Images/car_1.png","65","1","1581968695197","non-match","car","gun","label","test","true"
"null","","audio-keyboard-response","99","2208933","0.0-13.0-3.11","l","COGS_2020_17","Sounds/correct.wav","null","1","","","","","","",""
"null","","audio-keyboard-response","100","2209961","0.0-13.0-0.12","l","COGS_2020_17","Sounds/cow_label.wav","null","1","","","","","","",""
"null","","html-keyboard-response","101","2210979","0.0-13.0-1.12","l","COGS_2020_17","<p style=""font-size: 48px;"">+</p>","null","1","","","","","","",""
"610.445000000298","","image-keyboard-response","102","2211590","0.0-13.0-2.12","l","COGS_2020_17","Images/cow_1.png","76","1","1581968699780","match","cow","cow","label","test","true"
"null","","audio-keyboard-response","103","2213599","0.0-13.0-3.12","l","COGS_2020_17","Sounds/correct.wav","null","1","","","","","","",""
"null","","audio-keyboard-response","104","2214301","0.0-13.0-0.13","l","COGS_2020_17","Sounds/rooster_sound.wav","null","1","","","","","","",""
"null","","html-keyboard-response","105","2215295","0.0-13.0-1.13","l","COGS_2020_17","<p style=""font-size: 48px;"">+</p>","null","1","","","","","","",""
"565.6200000001118","","image-keyboard-response","106","2215862","0.0-13.0-2.13","l","COGS_2020_17","Images/cat_2.png","65","1","1581968704097","non-match","cat","rooster","sound","test","true"
"null","","audio-keyboard-response","107","2217868","0.0-13.0-3.13","l","COGS_2020_17","Sounds/correct.wav","null","1","","","","","","",""
"null","","audio-keyboard-response","108","2218701","0.0-13.0-0.14","l","COGS_2020_17","Sounds/cat_sound.wav","null","1","","","","","","",""
"null","","html-keyboard-response","109","2219695","0.0-13.0-1.14","l","COGS_2020_17","<p style=""font-size: 48px;"">+</p>","null","1","","","","","","",""
"645.4950000001118","","image-keyboard-response","110","2220342","0.0-13.0-2.14","l","COGS_2020_17","Images/cow_3.png","65","1","1581968708497","non-match","cow","cat","sound","test","true"
"null","","audio-keyboard-response","111","2222352","0.0-13.0-3.14","l","COGS_2020_17","Sounds/correct.wav","null","1","","","","","","",""
"null","","audio-keyboard-response","112","2223341","0.0-13.0-0.15","l","COGS_2020_17","Sounds/cow_label.wav","null","1","","","","","","",""
"null","","html-keyboard-response","113","2224346","0.0-13.0-1.15","l","COGS_2020_17","<p style=""font-size: 48px;"">+</p>","null","1","","","","","","",""
"635.5","","image-keyboard-response","114","2224982","0.0-13.0-2.15","l","COGS_2020_17","Images/cow_cartoon.png","76","1","1581968713147","match","cow","cow","label","test","true"
"null","","audio-keyboard-response","115","2227000","0.0-13.0-3.15","l","COGS_2020_17","Sounds/correct.wav","null","1","","","","","","",""
"null","","audio-keyboard-response","116","2228081","0.0-13.0-0.16","l","COGS_2020_17","Sounds/car_label.wav","null","1","","","","","","",""
"null","","html-keyboard-response","117","2229079","0.0-13.0-1.16","l","COGS_2020_17","<p style=""font-size: 48px;"">+</p>","null","1","","","","","","",""
"590.1200000005774","","image-keyboard-response","118","2229670","0.0-13.0-2.16","l","COGS_2020_17","Images/cow_orig.png","65","1","1581968717880","non-match","cow","car","label","test","true"
"null","","audio-keyboard-response","119","2231684","0.0-13.0-3.16","l","COGS_2020_17","Sounds/correct.wav","null","1","","","","","","",""
"null","","audio-keyboard-response","120","2232261","0.0-13.0-0.17","l","COGS_2020_17","Sounds/gun_label.wav","null","1","","","","","","",""
"null","","html-keyboard-response","121","2233279","0.0-13.0-1.17","l","COGS_2020_17","<p style=""font-size: 48px;"">+</p>","null","1","","","","","","",""
"645.9049999997951","","image-keyboard-response","122","2233926","0.0-13.0-2.17","l","COGS_2020_17","Images/train_2.png","65","1","1581968722080","non-match","train","gun","label","test","true"
"null","","audio-keyboard-response","123","2235934","0.0-13.0-3.17","l","COGS_2020_17","Sounds/correct.wav","null","1","","","","","","",""
"null","","audio-keyboard-response","124","2237061","0.0-13.0-0.18","l","COGS_2020_17","Sounds/motorcycle_sound.wav","null","1","","","","","","",""
"null","","html-keyboard-response","125","2238079","0.0-13.0-1.18","l","COGS_2020_17","<p style=""font-size: 48px;"">+</p>","null","1","","","","","","",""
"1221.6800000001676","","image-keyboard-response","126","2239303","0.0-13.0-2.18","l","COGS_2020_17","Images/motorcycle_cartoon.png","76","1","1581968726880","match","motorcycle","motorcycle","sound","test","true"
"null","","audio-keyboard-response","127","2241305","0.0-13.0-3.18","l","COGS_2020_17","Sounds/correct.wav","null","1","","","","","","",""
"null","","audio-keyboard-response","128","2242322","0.0-13.0-0.19","l","COGS_2020_17","Sounds/cow_sound.wav","null","1","","","","","","",""
"null","","html-keyboard-response","129","2243313","0.0-13.0-1.19","l","COGS_2020_17","<p style=""font-size: 48px;"">+</p>","null","1","","","","","","",""
"1492.714999999851","","image-keyboard-response","130","2244807","0.0-13.0-2.19","l","COGS_2020_17","Images/cow_3.png","65","1","1581968732114","match","cow","cow","sound","test","false"
"null","","audio-keyboard-response","131","2246821","0.0-13.0-3.19","l","COGS_2020_17","Sounds/incorrect.wav","null","1","","","","","","",""
"null","","audio-keyboard-response","132","2247722","0.0-13.0-0.20","l","COGS_2020_17","Sounds/frog_sound.wav","null","1","","","","","","",""
"null","","html-keyboard-response","133","2248713","0.0-13.0-1.20","l","COGS_2020_17","<p style=""font-size: 48px;"">+</p>","null","1","","","","","","",""
"636.6699999994598","","image-keyboard-response","134","2249351","0.0-13.0-2.20","l","COGS_2020_17","Images/motorcycle_cartoon.png","65","1","1581968737514","non-match","motorcycle","frog","sound","test","true"
"null","","audio-keyboard-response","135","2251353","0.0-13.0-3.20","l","COGS_2020_17","Sounds/correct.wav","null","1","","","","","","",""
"null","","audio-keyboard-response","136","2252202","0.0-13.0-0.21","l","COGS_2020_17","Sounds/cat_sound.wav","null","1","","","","","","",""
"null","","html-keyboard-response","137","2253197","0.0-13.0-1.21","l","COGS_2020_17","<p style=""font-size: 48px;"">+</p>","null","1","","","","","","",""
"585.2799999997951","","image-keyboard-response","138","2253783","0.0-13.0-2.21","l","COGS_2020_17","Images/motorcycle_1.png","65","1","1581968741998","non-match","motorcycle","cat","sound","test","true"
"null","","audio-keyboard-response","139","2255787","0.0-13.0-3.21","l","COGS_2020_17","Sounds/correct.wav","null","1","","","","","","",""
"null","","audio-keyboard-response","140","2256482","0.0-13.0-0.22","l","COGS_2020_17","Sounds/whistle_label.wav","null","1","","","","","","",""
"null","","html-keyboard-response","141","2257480","0.0-13.0-1.22","l","COGS_2020_17","<p style=""font-size: 48px;"">+</p>","null","1","","","","","","",""
"509.6699999999255","","image-keyboard-response","142","2257991","0.0-13.0-2.22","l","COGS_2020_17","Images/dog_2.png","65","1","1581968746281","non-match","dog","whistle","label","test","true"
"null","","audio-keyboard-response","143","2260000","0.0-13.0-3.22","l","COGS_2020_17","Sounds/correct.wav","null","1","","","","","","",""
"null","","audio-keyboard-response","144","2260582","0.0-13.0-0.23","l","COGS_2020_17","Sounds/gun_label.wav","null","1","","","","","","",""
"null","","html-keyboard-response","145","2261580","0.0-13.0-1.23","l","COGS_2020_17","<p style=""font-size: 48px;"">+</p>","null","1","","","","","","",""
"841.9449999998324","","image-keyboard-response","146","2262423","0.0-13.0-2.23","l","COGS_2020_17","Images/whistle_3.png","65","1","1581968750381","non-match","whistle","gun","label","test","true"
"null","","audio-keyboard-response","147","2264433","0.0-13.0-3.23","l","COGS_2020_17","Sounds/correct.wav","null","1","","","","","","",""
"null","","audio-keyboard-response","148","2265122","0.0-13.0-0.24","l","COGS_2020_17","Sounds/whistle_sound.wav","null","1","","","","","","",""
"null","","html-keyboard-response","149","2266113","0.0-13.0-1.24","l","COGS_2020_17","<p style=""font-size: 48px;"">+</p>","null","1","","","","","","",""
"516.3999999999069","","image-keyboard-response","150","2266631","0.0-13.0-2.24","l","COGS_2020_17","Images/whistle_cartoon.png","76","1","1581968754915","match","whistle","whistle","sound","test","true"
"null","","audio-keyboard-response","151","2268635","0.0-13.0-3.24","l","COGS_2020_17","Sounds/correct.wav","null","1","","","","","","",""
"null","","audio-keyboard-response","152","2269342","0.0-13.0-0.25","l","COGS_2020_17","Sounds/rooster_label.wav","null","1","","","","","","",""
"null","","html-keyboard-response","153","2270330","0.0-13.0-1.25","l","COGS_2020_17","<p style=""font-size: 48px;"">+</p>","null","1","","","","","","",""
"587.5750000001863","","image-keyboard-response","154","2270919","0.0-13.0-2.25","l","COGS_2020_17","Images/rooster_orig.png","76","1","1581968759131","match","rooster","rooster","label","test","true"
"null","","audio-keyboard-response","155","2272935","0.0-13.0-3.25","l","COGS_2020_17","Sounds/correct.wav","null","1","","","","","","",""
"null","","audio-keyboard-response","156","2273962","0.0-13.0-0.26","l","COGS_2020_17","Sounds/cow_label.wav","null","1","","","","","","",""
"null","","html-keyboard-response","157","2274964","0.0-13.0-1.26","l","COGS_2020_17","<p style=""font-size: 48px;"">+</p>","null","1","","","","","","",""
"578.2799999997951","","image-keyboard-response","158","2275543","0.0-13.0-2.26","l","COGS_2020_17","Images/gun_1.png","65","1","1581968763765","non-match","gun","cow","label","test","true"
"null","","audio-keyboard-response","159","2277552","0.0-13.0-3.26","l","COGS_2020_17","Sounds/correct.wav","null","1","","","","","","",""
"null","","audio-keyboard-response","160","2278122","0.0-13.0-0.27","l","COGS_2020_17","Sounds/gun_sound.wav","null","1","","","","","","",""
"null","","html-keyboard-response","161","2279114","0.0-13.0-1.27","l","COGS_2020_17","<p style=""font-size: 48px;"">+</p>","null","1","","","","","","",""
"1372.0900000003166","","image-keyboard-response","162","2280487","0.0-13.0-2.27","l","COGS_2020_17","Images/motorcycle_3.png","65","1","1581968767915","non-match","motorcycle","gun","sound","test","true"
"null","","audio-keyboard-response","163","2282492","0.0-13.0-3.27","l","COGS_2020_17","Sounds/correct.wav","null","1","","","","","","",""
"null","","audio-keyboard-response","164","2283562","0.0-13.0-0.28","l","COGS_2020_17","Sounds/car_label.wav","null","1","","","","","","",""
"null","","html-keyboard-response","165","2284564","0.0-13.0-1.28","l","COGS_2020_17","<p style=""font-size: 48px;"">+</p>","null","1","","","","","","",""
"626.1299999998882","","image-keyboard-response","166","2285191","0.0-13.0-2.28","l","COGS_2020_17","Images/cat_orig.png","65","1","1581968773365","non-match","cat","car","label","test","true"
"null","","audio-keyboard-response","167","2287200","0.0-13.0-3.28","l","COGS_2020_17","Sounds/correct.wav","null","1","","","","","","",""
"null","","audio-keyboard-response","168","2288342","0.0-13.0-0.29","l","COGS_2020_17","Sounds/motorcycle_label.wav","null","1","","","","","","",""
"null","","html-keyboard-response","169","2289347","0.0-13.0-1.29","l","COGS_2020_17","<p style=""font-size: 48px;"">+</p>","null","1","","","","","","",""
"626.8500000000931","","image-keyboard-response","170","2289975","0.0-13.0-2.29","l","COGS_2020_17","Images/dog_3.png","65","1","1581968778148","non-match","dog","motorcycle","label","test","true"
"null","","audio-keyboard-response","171","2291987","0.0-13.0-3.29","l","COGS_2020_17","Sounds/correct.wav","null","1","","","","","","",""
"null","","audio-keyboard-response","172","2292882","0.0-13.0-0.30","l","COGS_2020_17","Sounds/frog_label.wav","null","1","","","","","","",""
"null","","html-keyboard-response","173","2293880","0.0-13.0-1.30","l","COGS_2020_17","<p style=""font-size: 48px;"">+</p>","null","1","","","","","","",""
"493.37000000011176","","image-keyboard-response","174","2294375","0.0-13.0-2.30","l","COGS_2020_17","Images/cat_3.png","65","1","1581968782681","non-match","cat","frog","label","test","true"
"null","","audio-keyboard-response","175","2296383","0.0-13.0-3.30","l","COGS_2020_17","Sounds/correct.wav","null","1","","","","","","",""
"null","","audio-keyboard-response","176","2297082","0.0-13.0-0.31","l","COGS_2020_17","Sounds/whistle_label.wav","null","1","","","","","","",""
"null","","html-keyboard-response","177","2298080","0.0-13.0-1.31","l","COGS_2020_17","<p style=""font-size: 48px;"">+</p>","null","1","","","","","","",""
"549.4900000006892","","image-keyboard-response","178","2298631","0.0-13.0-2.31","l","COGS_2020_17","Images/whistle_2.png","76","1","1581968786882","match","whistle","whistle","label","test","true"
"null","","audio-keyboard-response","179","2300637","0.0-13.0-3.31","l","COGS_2020_17","Sounds/correct.wav","null","1","","","","","","",""
"null","","audio-keyboard-response","180","2301542","0.0-13.0-0.32","l","COGS_2020_17","Sounds/frog_sound.wav","null","1","","","","","","",""
"null","","html-keyboard-response","181","2302531","0.0-13.0-1.32","l","COGS_2020_17","<p style=""font-size: 48px;"">+</p>","null","1","","","","","","",""
"483.42499999981374","","image-keyboard-response","182","2303016","0.0-13.0-2.32","l","COGS_2020_17","Images/frog_2.png","76","1","1581968791332","match","frog","frog","sound","test","true"
"null","","audio-keyboard-response","183","2305020","0.0-13.0-3.32","l","COGS_2020_17","Sounds/correct.wav","null","1","","","","","","",""
"null","","audio-keyboard-response","184","2306322","0.0-13.0-0.33","l","COGS_2020_17","Sounds/train_sound.wav","null","1","","","","","","",""
"null","","html-keyboard-response","185","2307315","0.0-13.0-1.33","l","COGS_2020_17","<p style=""font-size: 48px;"">+</p>","null","1","","","","","","",""
"659.8600000003353","","image-keyboard-response","186","2307975","0.0-13.0-2.33","l","COGS_2020_17","Images/train_cartoon.png","76","1","1581968796116","match","train","train","sound","test","true"
"null","","audio-keyboard-response","187","2309986","0.0-13.0-3.33","l","COGS_2020_17","Sounds/correct.wav","null","1","","","","","","",""
"null","","audio-keyboard-response","188","2311063","0.0-13.0-0.34","l","COGS_2020_17","Sounds/car_sound.wav","null","1","","","","","","",""
"null","","html-keyboard-response","189","2312065","0.0-13.0-1.34","l","COGS_2020_17","<p style=""font-size: 48px;"">+</p>","null","1","","","","","","",""
"1029.7800000002608","","image-keyboard-response","190","2313095","0.0-13.0-2.34","l","COGS_2020_17","Images/car_3.png","76","1","1581968800866","match","car","car","sound","test","true"
"null","","audio-keyboard-response","191","2315104","0.0-13.0-3.34","l","COGS_2020_17","Sounds/correct.wav","null","1","","","","","","",""
"null","","audio-keyboard-response","192","2316243","0.0-13.0-0.35","l","COGS_2020_17","Sounds/motorcycle_label.wav","null","1","","","","","","",""
"null","","html-keyboard-response","193","2317248","0.0-13.0-1.35","l","COGS_2020_17","<p style=""font-size: 48px;"">+</p>","null","1","","","","","","",""
"726.3849999997765","","image-keyboard-response","194","2317976","0.0-13.0-2.35","l","COGS_2020_17","Images/motorcycle_orig.png","76","1","1581968806049","match","motorcycle","motorcycle","label","test","true"
"null","","audio-keyboard-response","195","2319986","0.0-13.0-3.35","l","COGS_2020_17","Sounds/correct.wav","null","1","","","","","","",""
"null","","audio-keyboard-response","196","2320643","0.0-13.0-0.36","l","COGS_2020_17","Sounds/dog_label.wav","null","1","","","","","","",""
"null","","html-keyboard-response","197","2321632","0.0-13.0-1.36","l","COGS_2020_17","<p style=""font-size: 48px;"">+</p>","null","1","","","","","","",""
"582.8250000001863","","image-keyboard-response","198","2322215","0.0-13.0-2.36","l","COGS_2020_17","Images/dog_orig.png","76","1","1581968810432","match","dog","dog","label","test","true"
"null","","audio-keyboard-response","199","2324221","0.0-13.0-3.36","l","COGS_2020_17","Sounds/correct.wav","null","1","","","","","","",""
"null","","audio-keyboard-response","200","2324922","0.0-13.0-0.37","l","COGS_2020_17","Sounds/rooster_sound.wav","null","1","","","","","","",""
"null","","html-keyboard-response","201","2325915","0.0-13.0-1.37","l","COGS_2020_17","<p style=""font-size: 48px;"">+</p>","null","1","","","","","","",""
"491.76000000024214","","image-keyboard-response","202","2326408","0.0-13.0-2.37","l","COGS_2020_17","Images/rooster_2.png","76","1","1581968814716","match","rooster","rooster","sound","test","true"
"null","","audio-keyboard-response","203","2328420","0.0-13.0-3.37","l","COGS_2020_17","Sounds/correct.wav","null","1","","","","","","",""
"null","","audio-keyboard-response","204","2329323","0.0-13.0-0.38","l","COGS_2020_17","Sounds/frog_sound.wav","null","1","","","","","","",""
"null","","html-keyboard-response","205","2330315","0.0-13.0-1.38","l","COGS_2020_17","<p style=""font-size: 48px;"">+</p>","null","1","","","","","","",""
"603.5600000000559","","image-keyboard-response","206","2330919","0.0-13.0-2.38","l","COGS_2020_17","Images/frog_1.png","76","1","1581968819116","match","frog","frog","sound","test","true"
"null","","audio-keyboard-response","207","2332935","0.0-13.0-3.38","l","COGS_2020_17","Sounds/correct.wav","null","1","","","","","","",""
"null","","audio-keyboard-response","208","2333643","0.0-13.0-0.39","l","COGS_2020_17","Sounds/dog_sound.wav","null","1","","","","","","",""
"null","","html-keyboard-response","209","2334632","0.0-13.0-1.39","l","COGS_2020_17","<p style=""font-size: 48px;"">+</p>","null","1","","","","","","",""
"878.7649999996647","","image-keyboard-response","210","2335511","0.0-13.0-2.39","l","COGS_2020_17","Images/cat_1.png","65","1","1581968823433","non-match","cat","dog","sound","test","true"
"null","","audio-keyboard-response","211","2337520","0.0-13.0-3.39","l","COGS_2020_17","Sounds/correct.wav","null","1","","","","","","",""
"null","","audio-keyboard-response","212","2338423","0.0-13.0-0.40","l","COGS_2020_17","Sounds/frog_label.wav","null","1","","","","","","",""
"null","","html-keyboard-response","213","2339415","0.0-13.0-1.40","l","COGS_2020_17","<p style=""font-size: 48px;"">+</p>","null","1","","","","","","",""
"479.8450000002049","","image-keyboard-response","214","2339896","0.0-13.0-2.40","l","COGS_2020_17","Images/gun_3.png","65","1","1581968828216","non-match","gun","frog","label","test","true"
"null","","audio-keyboard-response","215","2341903","0.0-13.0-3.40","l","COGS_2020_17","Sounds/correct.wav","null","1","","","","","","",""
"null","","audio-keyboard-response","216","2342743","0.0-13.0-0.41","l","COGS_2020_17","Sounds/cat_sound.wav","null","1","","","","","","",""
"null","","html-keyboard-response","217","2343732","0.0-13.0-1.41","l","COGS_2020_17","<p style=""font-size: 48px;"">+</p>","null","1","","","","","","",""
"530.8199999998324","","image-keyboard-response","218","2344263","0.0-13.0-2.41","l","COGS_2020_17","Images/cat_orig.png","76","1","1581968832533","match","cat","cat","sound","test","true"
"null","","audio-keyboard-response","219","2346271","0.0-13.0-3.41","l","COGS_2020_17","Sounds/correct.wav","null","1","","","","","","",""
"null","","audio-keyboard-response","220","2347143","0.0-13.0-0.42","l","COGS_2020_17","Sounds/frog_label.wav","null","1","","","","","","",""
"null","","html-keyboard-response","221","2348132","0.0-13.0-1.42","l","COGS_2020_17","<p style=""font-size: 48px;"">+</p>","null","1","","","","","","",""
"434.75000000046566","","image-keyboard-response","222","2348567","0.0-13.0-2.42","l","COGS_2020_17","Images/frog_cartoon.png","76","1","1581968836933","match","frog","frog","label","test","true"
"null","","audio-keyboard-response","223","2350570","0.0-13.0-3.42","l","COGS_2020_17","Sounds/correct.wav","null","1","","","","","","",""
"null","","audio-keyboard-response","224","2351583","0.0-13.0-0.43","l","COGS_2020_17","Sounds/cow_sound.wav","null","1","","","","","","",""
"null","","html-keyboard-response","225","2352582","0.0-13.0-1.43","l","COGS_2020_17","<p style=""font-size: 48px;"">+</p>","null","1","","","","","","",""
"496.9049999997951","","image-keyboard-response","226","2353080","0.0-13.0-2.43","l","COGS_2020_17","Images/car_cartoon.png","65","1","1581968841383","non-match","car","cow","sound","test","true"
"null","","audio-keyboard-response","227","2355087","0.0-13.0-3.43","l","COGS_2020_17","Sounds/correct.wav","null","1","","","","","","",""
"null","","audio-keyboard-response","228","2356382","0.0-13.0-0.44","l","COGS_2020_17","Sounds/train_sound.wav","null","1","","","","","","",""
"null","","html-keyboard-response","229","2357382","0.0-13.0-1.44","l","COGS_2020_17","<p style=""font-size: 48px;"">+</p>","null","1","","","","","","",""
"720.089999999851","","image-keyboard-response","230","2358104","0.0-13.0-2.44","l","COGS_2020_17","Images/frog_3.png","65","1","1581968846183","non-match","frog","train","sound","test","true"
"null","","audio-keyboard-response","231","2360106","0.0-13.0-3.44","l","COGS_2020_17","Sounds/correct.wav","null","1","","","","","","",""
"null","","audio-keyboard-response","232","2360803","0.0-13.0-0.45","l","COGS_2020_17","Sounds/rooster_sound.wav","null","1","","","","","","",""
"null","","html-keyboard-response","233","2361799","0.0-13.0-1.45","l","COGS_2020_17","<p style=""font-size: 48px;"">+</p>","null","1","","","","","","",""
"495.910000000149","","image-keyboard-response","234","2362295","0.0-13.0-2.45","l","COGS_2020_17","Images/rooster_1.png","76","1","1581968850600","match","rooster","rooster","sound","test","true"
"null","","audio-keyboard-response","235","2364304","0.0-13.0-3.45","l","COGS_2020_17","Sounds/correct.wav","null","1","","","","","","",""
"null","","audio-keyboard-response","236","2365143","0.0-13.0-0.46","l","COGS_2020_17","Sounds/cat_label.wav","null","1","","","","","","",""
"null","","html-keyboard-response","237","2366132","0.0-13.0-1.46","l","COGS_2020_17","<p style=""font-size: 48px;"">+</p>","null","1","","","","","","",""
"514.820000000298","","image-keyboard-response","238","2366648","0.0-13.0-2.46","l","COGS_2020_17","Images/frog_1.png","65","1","1581968854933","non-match","frog","cat","label","test","true"
"null","","audio-keyboard-response","239","2368656","0.0-13.0-3.46","l","COGS_2020_17","Sounds/correct.wav","null","1","","","","","","",""
"null","","audio-keyboard-response","240","2369463","0.0-13.0-0.47","l","COGS_2020_17","Sounds/cat_label.wav","null","1","","","","","","",""
"null","","html-keyboard-response","241","2370465","0.0-13.0-1.47","l","COGS_2020_17","<p style=""font-size: 48px;"">+</p>","null","1","","","","","","",""
"677.6450000000186","","image-keyboard-response","242","2371144","0.0-13.0-2.47","l","COGS_2020_17","Images/cat_2.png","76","1","1581968859266","match","cat","cat","label","test","true"
"null","","audio-keyboard-response","243","2373152","0.0-13.0-3.47","l","COGS_2020_17","Sounds/correct.wav","null","1","","","","","","",""
"null","","audio-keyboard-response","244","2374423","0.0-13.0-0.48","l","COGS_2020_17","Sounds/train_label.wav","null","1","","","","","","",""
"null","","html-keyboard-response","245","2375415","0.0-13.0-1.48","l","COGS_2020_17","<p style=""font-size: 48px;"">+</p>","null","1","","","","","","",""
"1742.644999999553","","image-keyboard-response","246","2377160","0.0-13.0-2.48","l","COGS_2020_17","Images/train_1.png","65","1","1581968864216","match","train","train","label","test","false"
"null","","audio-keyboard-response","247","2379175","0.0-13.0-3.48","l","COGS_2020_17","Sounds/incorrect.wav","null","1","","","","","","",""
"null","","audio-keyboard-response","248","2379763","0.0-13.0-0.49","l","COGS_2020_17","Sounds/gun_label.wav","null","1","","","","","","",""
"null","","html-keyboard-response","249","2380765","0.0-13.0-1.49","l","COGS_2020_17","<p style=""font-size: 48px;"">+</p>","null","1","","","","","","",""
"825.0250000003725","","image-keyboard-response","250","2381591","0.0-13.0-2.49","l","COGS_2020_17","Images/gun_3.png","76","1","1581968869566","match","gun","gun","label","test","true"
"null","","audio-keyboard-response","251","2383603","0.0-13.0-3.49","l","COGS_2020_17","Sounds/correct.wav","null","1","","","","","","",""
"null","","audio-keyboard-response","252","2384323","0.0-13.0-0.50","l","COGS_2020_17","Sounds/dog_sound.wav","null","1","","","","","","",""
"null","","html-keyboard-response","253","2385315","0.0-13.0-1.50","l","COGS_2020_17","<p style=""font-size: 48px;"">+</p>","null","1","","","","","","",""
"611.1649999995716","","image-keyboard-response","254","2385928","0.0-13.0-2.50","l","COGS_2020_17","Images/motorcycle_orig.png","65","1","1581968874117","non-match","motorcycle","dog","sound","test","true"
"null","","audio-keyboard-response","255","2387938","0.0-13.0-3.50","l","COGS_2020_17","Sounds/correct.wav","null","1","","","","","","",""
"null","","audio-keyboard-response","256","2389023","0.0-13.0-0.51","l","COGS_2020_17","Sounds/car_label.wav","null","1","","","","","","",""
"null","","html-keyboard-response","257","2390016","0.0-13.0-1.51","l","COGS_2020_17","<p style=""font-size: 48px;"">+</p>","null","1","","","","","","",""
"631.4350000000559","","image-keyboard-response","258","2390648","0.0-13.0-2.51","l","COGS_2020_17","Images/frog_orig.png","65","1","1581968878817","non-match","frog","car","label","test","true"
"null","","audio-keyboard-response","259","2392657","0.0-13.0-3.51","l","COGS_2020_17","Sounds/correct.wav","null","1","","","","","","",""
"null","","audio-keyboard-response","260","2393803","0.0-13.0-0.52","l","COGS_2020_17","Sounds/motorcycle_label.wav","null","1","","","","","","",""
"null","","html-keyboard-response","261","2394799","0.0-13.0-1.52","l","COGS_2020_17","<p style=""font-size: 48px;"">+</p>","null","1","","","","","","",""
"615.4950000001118","","image-keyboard-response","262","2395415","0.0-13.0-2.52","l","COGS_2020_17","Images/gun_cartoon.png","65","1","1581968883600","non-match","gun","motorcycle","label","test","true"
"null","","audio-keyboard-response","263","2397422","0.0-13.0-3.52","l","COGS_2020_17","Sounds/correct.wav","null","1","","","","","","",""
"null","","audio-keyboard-response","264","2398263","0.0-13.0-0.53","l","COGS_2020_17","Sounds/cat_sound.wav","null","1","","","","","","",""
"null","","html-keyboard-response","265","2399266","0.0-13.0-1.53","l","COGS_2020_17","<p style=""font-size: 48px;"">+</p>","null","1","","","","","","",""
"708.6749999998137","","image-keyboard-response","266","2399975","0.0-13.0-2.53","l","COGS_2020_17","Images/cat_3.png","76","1","1581968888067","match","cat","cat","sound","test","true"
"null","","audio-keyboard-response","267","2401988","0.0-13.0-3.53","l","COGS_2020_17","Sounds/correct.wav","null","1","","","","","","",""
"null","","audio-keyboard-response","268","2403043","0.0-13.0-0.54","l","COGS_2020_17","Sounds/car_label.wav","null","1","","","","","","",""
"null","","html-keyboard-response","269","2404032","0.0-13.0-1.54","l","COGS_2020_17","<p style=""font-size: 48px;"">+</p>","null","1","","","","","","",""
"662.5200000000186","","image-keyboard-response","270","2404696","0.0-13.0-2.54","l","COGS_2020_17","Images/car_1.png","76","1","1581968892833","match","car","car","label","test","true"
"null","","audio-keyboard-response","271","2406704","0.0-13.0-3.54","l","COGS_2020_17","Sounds/correct.wav","null","1","","","","","","",""
"null","","audio-keyboard-response","272","2407543","0.0-13.0-0.55","l","COGS_2020_17","Sounds/cat_label.wav","null","1","","","","","","",""
"null","","html-keyboard-response","273","2408532","0.0-13.0-1.55","l","COGS_2020_17","<p style=""font-size: 48px;"">+</p>","null","1","","","","","","",""
"801.9550000000745","","image-keyboard-response","274","2409335","0.0-13.0-2.55","l","COGS_2020_17","Images/dog_1.png","65","1","1581968897333","non-match","dog","cat","label","test","true"
"null","","audio-keyboard-response","275","2411338","0.0-13.0-3.55","l","COGS_2020_17","Sounds/correct.wav","null","1","","","","","","",""
"null","","audio-keyboard-response","276","2411923","0.0-13.0-0.56","l","COGS_2020_17","Sounds/gun_label.wav","null","1","","","","","","",""
"null","","html-keyboard-response","277","2412916","0.0-13.0-1.56","l","COGS_2020_17","<p style=""font-size: 48px;"">+</p>","null","1","","","","","","",""
"562.7000000001863","","image-keyboard-response","278","2413479","0.0-13.0-2.56","l","COGS_2020_17","Images/gun_2.png","76","1","1581968901717","match","gun","gun","label","test","true"
"null","","audio-keyboard-response","279","2415488","0.0-13.0-3.56","l","COGS_2020_17","Sounds/correct.wav","null","1","","","","","","",""
"null","","audio-keyboard-response","280","2416403","0.0-13.0-0.57","l","COGS_2020_17","Sounds/frog_sound.wav","null","1","","","","","","",""
"null","","html-keyboard-response","281","2417399","0.0-13.0-1.57","l","COGS_2020_17","<p style=""font-size: 48px;"">+</p>","null","1","","","","","","",""
"895.5800000000745","","image-keyboard-response","282","2418296","0.0-13.0-2.57","l","COGS_2020_17","Images/rooster_2.png","65","1","1581968906200","non-match","rooster","frog","sound","test","true"
"null","","audio-keyboard-response","283","2420306","0.0-13.0-3.57","l","COGS_2020_17","Sounds/correct.wav","null","1","","","","","","",""
"null","","audio-keyboard-response","284","2421423","0.0-13.0-0.58","l","COGS_2020_17","Sounds/motorcycle_sound.wav","null","1","","","","","","",""
"null","","html-keyboard-response","285","2422416","0.0-13.0-1.58","l","COGS_2020_17","<p style=""font-size: 48px;"">+</p>","null","1","","","","","","",""
"758.7050000000745","","image-keyboard-response","286","2423176","0.0-13.0-2.58","l","COGS_2020_17","Images/train_3.png","65","1","1581968911217","non-match","train","motorcycle","sound","test","true"
"null","","audio-keyboard-response","287","2425186","0.0-13.0-3.58","l","COGS_2020_17","Sounds/correct.wav","null","1","","","","","","",""
"null","","audio-keyboard-response","288","2425743","0.0-13.0-0.59","l","COGS_2020_17","Sounds/gun_label.wav","null","1","","","","","","",""
"null","","html-keyboard-response","289","2426733","0.0-13.0-1.59","l","COGS_2020_17","<p style=""font-size: 48px;"">+</p>","null","1","","","","","","",""
"617.8299999996088","","image-keyboard-response","290","2427352","0.0-13.0-2.59","l","COGS_2020_17","Images/gun_orig.png","76","1","1581968915534","match","gun","gun","label","test","true"
"null","","audio-keyboard-response","291","2429355","0.0-13.0-3.59","l","COGS_2020_17","Sounds/correct.wav","null","1","","","","","","",""
"null","","audio-keyboard-response","292","2430203","0.0-13.0-0.60","l","COGS_2020_17","Sounds/cat_sound.wav","null","1","","","","","","",""
"null","","html-keyboard-response","293","2431199","0.0-13.0-1.60","l","COGS_2020_17","<p style=""font-size: 48px;"">+</p>","null","1","","","","","","",""
"823.5600000000559","","image-keyboard-response","294","2432024","0.0-13.0-2.60","l","COGS_2020_17","Images/rooster_3.png","65","1","1581968920000","non-match","rooster","cat","sound","test","true"
"null","","audio-keyboard-response","295","2434037","0.0-13.0-3.60","l","COGS_2020_17","Sounds/correct.wav","null","1","","","","","","",""
"null","","audio-keyboard-response","296","2434623","0.0-13.0-0.61","l","COGS_2020_17","Sounds/gun_sound.wav","null","1","","","","","","",""
"null","","html-keyboard-response","297","2435616","0.0-13.0-1.61","l","COGS_2020_17","<p style=""font-size: 48px;"">+</p>","null","1","","","","","","",""
"758.5250000003725","","image-keyboard-response","298","2436376","0.0-13.0-2.61","l","COGS_2020_17","Images/gun_1.png","76","1","1581968924417","match","gun","gun","sound","test","true"
"null","","audio-keyboard-response","299","2438386","0.0-13.0-3.61","l","COGS_2020_17","Sounds/correct.wav","null","1","","","","","","",""
"null","","audio-keyboard-response","300","2439083","0.0-13.0-0.62","l","COGS_2020_17","Sounds/whistle_label.wav","null","1","","","","","","",""
"null","","html-keyboard-response","301","2440083","0.0-13.0-1.62","l","COGS_2020_17","<p style=""font-size: 48px;"">+</p>","null","1","","","","","","",""
"435.73000000044703","","image-keyboard-response","302","2440520","0.0-13.0-2.62","l","COGS_2020_17","Images/whistle_1.png","76","1","1581968928884","match","whistle","whistle","label","test","true"
"null","","audio-keyboard-response","303","2442537","0.0-13.0-3.62","l","COGS_2020_17","Sounds/correct.wav","null","1","","","","","","",""
"null","","audio-keyboard-response","304","2443823","0.0-13.0-0.63","l","COGS_2020_17","Sounds/train_label.wav","null","1","","","","","","",""
"null","","html-keyboard-response","305","2444816","0.0-13.0-1.63","l","COGS_2020_17","<p style=""font-size: 48px;"">+</p>","null","1","","","","","","",""
"1190.6750000002794","","image-keyboard-response","306","2446008","0.0-13.0-2.63","l","COGS_2020_17","Images/rooster_cartoon.png","65","1","1581968933618","non-match","rooster","train","label","test","true"
"null","","audio-keyboard-response","307","2448022","0.0-13.0-3.63","l","COGS_2020_17","Sounds/correct.wav","null","1","","","","","","",""
"null","","audio-keyboard-response","308","2448863","0.0-13.0-0.64","l","COGS_2020_17","Sounds/cat_label.wav","null","1","","","","","","",""
"null","","html-keyboard-response","309","2449866","0.0-13.0-1.64","l","COGS_2020_17","<p style=""font-size: 48px;"">+</p>","null","1","","","","","","",""
"476.07500000018626","","image-keyboard-response","310","2450344","0.0-13.0-2.64","l","COGS_2020_17","Images/cat_1.png","76","1","1581968938668","match","cat","cat","label","test","true"
"null","","audio-keyboard-response","311","2452353","0.0-13.0-3.64","l","COGS_2020_17","Sounds/correct.wav","null","1","","","","","","",""
"null","","audio-keyboard-response","312","2453003","0.0-13.0-0.65","l","COGS_2020_17","Sounds/dog_label.wav","null","1","","","","","","",""
"null","","html-keyboard-response","313","2454000","0.0-13.0-1.65","l","COGS_2020_17","<p style=""font-size: 48px;"">+</p>","null","1","","","","","","",""
"775.0450000003912","","image-keyboard-response","314","2454776","0.0-13.0-2.65","l","COGS_2020_17","Images/dog_3.png","76","1","1581968942801","match","dog","dog","label","test","true"
"null","","audio-keyboard-response","315","2456787","0.0-13.0-3.65","l","COGS_2020_17","Sounds/correct.wav","null","1","","","","","","",""
"null","","audio-keyboard-response","316","2457503","0.0-13.0-0.66","l","COGS_2020_17","Sounds/dog_sound.wav","null","1","","","","","","",""
"null","","html-keyboard-response","317","2458500","0.0-13.0-1.66","l","COGS_2020_17","<p style=""font-size: 48px;"">+</p>","null","1","","","","","","",""
"739.0950000002049","","image-keyboard-response","318","2459240","0.0-13.0-2.66","l","COGS_2020_17","Images/dog_2.png","76","1","1581968947301","match","dog","dog","sound","test","true"
"null","","audio-keyboard-response","319","2461254","0.0-13.0-3.66","l","COGS_2020_17","Sounds/correct.wav","null","1","","","","","","",""
"null","","audio-keyboard-response","320","2461963","0.0-13.0-0.67","l","COGS_2020_17","Sounds/whistle_sound.wav","null","1","","","","","","",""
"null","","html-keyboard-response","321","2462967","0.0-13.0-1.67","l","COGS_2020_17","<p style=""font-size: 48px;"">+</p>","null","1","","","","","","",""
"527.8600000003353","","image-keyboard-response","322","2463496","0.0-13.0-2.67","l","COGS_2020_17","Images/car_3.png","65","1","1581968951768","non-match","car","whistle","sound","test","true"
"null","","audio-keyboard-response","323","2465505","0.0-13.0-3.67","l","COGS_2020_17","Sounds/correct.wav","null","1","","","","","","",""
"null","","audio-keyboard-response","324","2466183","0.0-13.0-0.68","l","COGS_2020_17","Sounds/whistle_sound.wav","null","1","","","","","","",""
"null","","html-keyboard-response","325","2467183","0.0-13.0-1.68","l","COGS_2020_17","<p style=""font-size: 48px;"">+</p>","null","1","","","","","","",""
"647.5849999999627","","image-keyboard-response","326","2467832","0.0-13.0-2.68","l","COGS_2020_17","Images/whistle_3.png","76","1","1581968955984","match","whistle","whistle","sound","test","true"
"null","","audio-keyboard-response","327","2469842","0.0-13.0-3.68","l","COGS_2020_17","Sounds/correct.wav","null","1","","","","","","",""
"null","","audio-keyboard-response","328","2470923","0.0-13.0-0.69","l","COGS_2020_17","Sounds/car_sound.wav","null","1","","","","","","",""
"null","","html-keyboard-response","329","2471916","0.0-13.0-1.69","l","COGS_2020_17","<p style=""font-size: 48px;"">+</p>","null","1","","","","","","",""
"602.3849999997765","","image-keyboard-response","330","2472520","0.0-13.0-2.69","l","COGS_2020_17","Images/train_1.png","65","1","1581968960718","non-match","train","car","sound","test","true"
"null","","audio-keyboard-response","331","2474522","0.0-13.0-3.69","l","COGS_2020_17","Sounds/correct.wav","null","1","","","","","","",""
"null","","audio-keyboard-response","332","2475543","0.0-13.0-0.70","l","COGS_2020_17","Sounds/cow_label.wav","null","1","","","","","","",""
"null","","html-keyboard-response","333","2476533","0.0-13.0-1.70","l","COGS_2020_17","<p style=""font-size: 48px;"">+</p>","null","1","","","","","","",""
"721.4550000000745","","image-keyboard-response","334","2477256","0.0-13.0-2.70","l","COGS_2020_17","Images/rooster_1.png","65","1","1581968965334","non-match","rooster","cow","label","test","true"
"null","","audio-keyboard-response","335","2479271","0.0-13.0-3.70","l","COGS_2020_17","Sounds/correct.wav","null","1","","","","","","",""
"null","","audio-keyboard-response","336","2479923","0.0-13.0-0.71","l","COGS_2020_17","Sounds/dog_label.wav","null","1","","","","","","",""
"null","","html-keyboard-response","337","2480917","0.0-13.0-1.71","l","COGS_2020_17","<p style=""font-size: 48px;"">+</p>","null","1","","","","","","",""
"545.8800000003539","","image-keyboard-response","338","2481463","0.0-13.0-2.71","l","COGS_2020_17","Images/dog_1.png","76","1","1581968969718","match","dog","dog","label","test","true"
"null","","audio-keyboard-response","339","2483472","0.0-13.0-3.71","l","COGS_2020_17","Sounds/correct.wav","null","1","","","","","","",""
"null","","audio-keyboard-response","340","2484183","0.0-13.0-0.72","l","COGS_2020_17","Sounds/dog_sound.wav","null","1","","","","","","",""
"null","","html-keyboard-response","341","2485183","0.0-13.0-1.72","l","COGS_2020_17","<p style=""font-size: 48px;"">+</p>","null","1","","","","","","",""
"647.589999999851","","image-keyboard-response","342","2485832","0.0-13.0-2.72","l","COGS_2020_17","Images/dog_cartoon.png","76","1","1581968973984","match","dog","dog","sound","test","true"
"null","","audio-keyboard-response","343","2487840","0.0-13.0-3.72","l","COGS_2020_17","Sounds/correct.wav","null","1","","","","","","",""
"null","","audio-keyboard-response","344","2488823","0.0-13.0-0.73","l","COGS_2020_17","Sounds/cow_label.wav","null","1","","","","","","",""
"null","","html-keyboard-response","345","2489817","0.0-13.0-1.73","l","COGS_2020_17","<p style=""font-size: 48px;"">+</p>","null","1","","","","","","",""
"541.8450000002049","","image-keyboard-response","346","2490360","0.0-13.0-2.73","l","COGS_2020_17","Images/cow_2.png","76","1","1581968978618","match","cow","cow","label","test","true"
"null","","audio-keyboard-response","347","2492371","0.0-13.0-3.73","l","COGS_2020_17","Sounds/correct.wav","null","1","","","","","","",""
"null","","audio-keyboard-response","348","2493063","0.0-13.0-0.74","l","COGS_2020_17","Sounds/rooster_sound.wav","null","1","","","","","","",""
"null","","html-keyboard-response","349","2494067","0.0-13.0-1.74","l","COGS_2020_17","<p style=""font-size: 48px;"">+</p>","null","1","","","","","","",""
"563.7050000000745","","image-keyboard-response","350","2494632","0.0-13.0-2.74","l","COGS_2020_17","Images/train_orig.png","65","1","1581968982868","non-match","train","rooster","sound","test","true"
"null","","audio-keyboard-response","351","2496640","0.0-13.0-3.74","l","COGS_2020_17","Sounds/correct.wav","null","1","","","","","","",""
"null","","audio-keyboard-response","352","2497923","0.0-13.0-0.75","l","COGS_2020_17","Sounds/train_label.wav","null","1","","","","","","",""
"null","","html-keyboard-response","353","2498917","0.0-13.0-1.75","l","COGS_2020_17","<p style=""font-size: 48px;"">+</p>","null","1","","","","","","",""
"977.9049999997951","","image-keyboard-response","354","2499896","0.0-13.0-2.75","l","COGS_2020_17","Images/whistle_orig.png","65","1","1581968987718","non-match","whistle","train","label","test","true"
"null","","audio-keyboard-response","355","2501903","0.0-13.0-3.75","l","COGS_2020_17","Sounds/correct.wav","null","1","","","","","","",""
"null","","audio-keyboard-response","356","2503043","0.0-13.0-0.76","l","COGS_2020_17","Sounds/motorcycle_label.wav","null","1","","","","","","",""
"null","","html-keyboard-response","357","2504034","0.0-13.0-1.76","l","COGS_2020_17","<p style=""font-size: 48px;"">+</p>","null","1","","","","","","",""
"565.0249999999069","","image-keyboard-response","358","2504600","0.0-13.0-2.76","l","COGS_2020_17","Images/motorcycle_1.png","76","1","1581968992834","match","motorcycle","motorcycle","label","test","true"
"null","","audio-keyboard-response","359","2506607","0.0-13.0-3.76","l","COGS_2020_17","Sounds/correct.wav","null","1","","","","","","",""
"null","","audio-keyboard-response","360","2507623","0.0-13.0-0.77","l","COGS_2020_17","Sounds/cow_label.wav","null","1","","","","","","",""
"null","","html-keyboard-response","361","2508617","0.0-13.0-1.77","l","COGS_2020_17","<p style=""font-size: 48px;"">+</p>","null","1","","","","","","",""
"605.7849999996834","","image-keyboard-response","362","2509224","0.0-13.0-2.77","l","COGS_2020_17","Images/motorcycle_2.png","65","1","1581968997419","non-match","motorcycle","cow","label","test","true"
"null","","audio-keyboard-response","363","2511239","0.0-13.0-3.77","l","COGS_2020_17","Sounds/correct.wav","null","1","","","","","","",""
"null","","audio-keyboard-response","364","2511923","0.0-13.0-0.78","l","COGS_2020_17","Sounds/rooster_sound.wav","null","1","","","","","","",""
"null","","html-keyboard-response","365","2512917","0.0-13.0-1.78","l","COGS_2020_17","<p style=""font-size: 48px;"">+</p>","null","1","","","","","","",""
"1169.869999999646","","image-keyboard-response","366","2514088","0.0-13.0-2.78","l","COGS_2020_17","Images/rooster_3.png","76","1","1581969001718","match","rooster","rooster","sound","test","true"
"null","","audio-keyboard-response","367","2516106","0.0-13.0-3.78","l","COGS_2020_17","Sounds/correct.wav","null","1","","","","","","",""
"null","","audio-keyboard-response","368","2517183","0.0-13.0-0.79","l","COGS_2020_17","Sounds/car_label.wav","null","1","","","","","","",""
"null","","html-keyboard-response","369","2518200","0.0-13.0-1.79","l","COGS_2020_17","<p style=""font-size: 48px;"">+</p>","null","1","","","","","","",""
"574.2600000002421","","image-keyboard-response","370","2518776","0.0-13.0-2.79","l","COGS_2020_17","Images/gun_orig.png","65","1","1581969007002","non-match","gun","car","label","test","true"
"null","","audio-keyboard-response","371","2520792","0.0-13.0-3.79","l","COGS_2020_17","Sounds/correct.wav","null","1","","","","","","",""
"null","","audio-keyboard-response","372","2521363","0.0-13.0-0.80","l","COGS_2020_17","Sounds/gun_sound.wav","null","1","","","","","","",""
"null","","html-keyboard-response","373","2522367","0.0-13.0-1.80","l","COGS_2020_17","<p style=""font-size: 48px;"">+</p>","null","1","","","","","","",""
"471.2599999997765","","image-keyboard-response","374","2522840","0.0-13.0-2.80","l","COGS_2020_17","Images/cow_2.png","65","1","1581969011168","non-match","cow","gun","sound","test","true"
"null","","audio-keyboard-response","375","2524854","0.0-13.0-3.80","l","COGS_2020_17","Sounds/correct.wav","null","1","","","","","","",""
"null","","audio-keyboard-response","376","2525943","0.0-13.0-0.81","l","COGS_2020_17","Sounds/car_sound.wav","null","1","","","","","","",""
"null","","html-keyboard-response","377","2526934","0.0-13.0-1.81","l","COGS_2020_17","<p style=""font-size: 48px;"">+</p>","null","1","","","","","","",""
"913.1250000004657","","image-keyboard-response","378","2527848","0.0-13.0-2.81","l","COGS_2020_17","Images/whistle_2.png","65","1","1581969015735","non-match","whistle","car","sound","test","true"
"null","","audio-keyboard-response","379","2529857","0.0-13.0-3.81","l","COGS_2020_17","Sounds/correct.wav","null","1","","","","","","",""
"null","","audio-keyboard-response","380","2530983","0.0-13.0-0.82","l","COGS_2020_17","Sounds/motorcycle_sound.wav","null","1","","","","","","",""
"null","","html-keyboard-response","381","2532000","0.0-13.0-1.82","l","COGS_2020_17","<p style=""font-size: 48px;"">+</p>","null","1","","","","","","",""
"678.2800000002608","","image-keyboard-response","382","2532680","0.0-13.0-2.82","l","COGS_2020_17","Images/motorcycle_3.png","76","1","1581969020802","match","motorcycle","motorcycle","sound","test","true"
"null","","audio-keyboard-response","383","2534689","0.0-13.0-3.82","l","COGS_2020_17","Sounds/correct.wav","null","1","","","","","","",""
"null","","audio-keyboard-response","384","2535743","0.0-13.0-0.83","l","COGS_2020_17","Sounds/car_sound.wav","null","1","","","","","","",""
"null","","html-keyboard-response","385","2536734","0.0-13.0-1.83","l","COGS_2020_17","<p style=""font-size: 48px;"">+</p>","null","1","","","","","","",""
"504.65500000026077","","image-keyboard-response","386","2537240","0.0-13.0-2.83","l","COGS_2020_17","Images/car_2.png","76","1","1581969025535","match","car","car","sound","test","true"
"null","","audio-keyboard-response","387","2539255","0.0-13.0-3.83","l","COGS_2020_17","Sounds/correct.wav","null","1","","","","","","",""
"null","","audio-keyboard-response","388","2540163","0.0-13.0-0.84","l","COGS_2020_17","Sounds/frog_label.wav","null","1","","","","","","",""
"null","","html-keyboard-response","389","2541167","0.0-13.0-1.84","l","COGS_2020_17","<p style=""font-size: 48px;"">+</p>","null","1","","","","","","",""
"519.125","","image-keyboard-response","390","2541688","0.0-13.0-2.84","l","COGS_2020_17","Images/frog_orig.png","76","1","1581969029968","match","frog","frog","label","test","true"
"null","","audio-keyboard-response","391","2543705","0.0-13.0-3.84","l","COGS_2020_17","Sounds/correct.wav","null","1","","","","","","",""
"null","","audio-keyboard-response","392","2544983","0.0-13.0-0.85","l","COGS_2020_17","Sounds/train_label.wav","null","1","","","","","","",""
"null","","html-keyboard-response","393","2546001","0.0-13.0-1.85","l","COGS_2020_17","<p style=""font-size: 48px;"">+</p>","null","1","","","","","","",""
"851.9700000002049","","image-keyboard-response","394","2546856","0.0-13.0-2.85","l","COGS_2020_17","Images/train_2.png","76","1","1581969034802","match","train","train","label","test","true"
"null","","audio-keyboard-response","395","2548873","0.0-13.0-3.85","l","COGS_2020_17","Sounds/correct.wav","null","1","","","","","","",""
"null","","audio-keyboard-response","396","2549903","0.0-13.0-0.86","l","COGS_2020_17","Sounds/cow_sound.wav","null","1","","","","","","",""
"null","","html-keyboard-response","397","2550901","0.0-13.0-1.86","l","COGS_2020_17","<p style=""font-size: 48px;"">+</p>","null","1","","","","","","",""
"785.855000000447","","image-keyboard-response","398","2551688","0.0-13.0-2.86","l","COGS_2020_17","Images/cow_orig.png","76","1","1581969039702","match","cow","cow","sound","test","true"
"null","","audio-keyboard-response","399","2553705","0.0-13.0-3.86","l","COGS_2020_17","Sounds/correct.wav","null","1","","","","","","",""
"null","","audio-keyboard-response","400","2554583","0.0-13.0-0.87","l","COGS_2020_17","Sounds/frog_label.wav","null","1","","","","","","",""
"null","","html-keyboard-response","401","2555601","0.0-13.0-1.87","l","COGS_2020_17","<p style=""font-size: 48px;"">+</p>","null","1","","","","","","",""
"710.1200000001118","","image-keyboard-response","402","2556312","0.0-13.0-2.87","l","COGS_2020_17","Images/cow_cartoon.png","65","1","1581969044402","non-match","cow","frog","label","test","true"
"null","","audio-keyboard-response","403","2558320","0.0-13.0-3.87","l","COGS_2020_17","Sounds/correct.wav","null","1","","","","","","",""
"null","","audio-keyboard-response","404","2559223","0.0-13.0-0.88","l","COGS_2020_17","Sounds/frog_sound.wav","null","1","","","","","","",""
"null","","html-keyboard-response","405","2560218","0.0-13.0-1.88","l","COGS_2020_17","<p style=""font-size: 48px;"">+</p>","null","1","","","","","","",""
"701.2399999997579","","image-keyboard-response","406","2560920","0.0-13.0-2.88","l","COGS_2020_17","Images/frog_3.png","76","1","1581969049019","match","frog","frog","sound","test","true"
"null","","audio-keyboard-response","407","2562923","0.0-13.0-3.88","l","COGS_2020_17","Sounds/correct.wav","null","1","","","","","","",""
"null","","audio-keyboard-response","408","2563623","0.0-13.0-0.89","l","COGS_2020_17","Sounds/dog_sound.wav","null","1","","","","","","",""
"null","","html-keyboard-response","409","2564618","0.0-13.0-1.89","l","COGS_2020_17","<p style=""font-size: 48px;"">+</p>","null","1","","","","","","",""
"589.1349999997765","","image-keyboard-response","410","2565208","0.0-13.0-2.89","l","COGS_2020_17","Images/cow_1.png","65","1","1581969053419","non-match","cow","dog","sound","test","true"
"null","","audio-keyboard-response","411","2567223","0.0-13.0-3.89","l","COGS_2020_17","Sounds/correct.wav","null","1","","","","","","",""
"null","","audio-keyboard-response","412","2568343","0.0-13.0-0.90","l","COGS_2020_17","Sounds/motorcycle_sound.wav","null","1","","","","","","",""
"null","","html-keyboard-response","413","2569334","0.0-13.0-1.90","l","COGS_2020_17","<p style=""font-size: 48px;"">+</p>","null","1","","","","","","",""
"864.5999999996275","","image-keyboard-response","414","2570200","0.0-13.0-2.90","l","COGS_2020_17","Images/motorcycle_2.png","76","1","1581969058136","match","motorcycle","motorcycle","sound","test","true"
"null","","audio-keyboard-response","415","2572206","0.0-13.0-3.90","l","COGS_2020_17","Sounds/correct.wav","null","1","","","","","","",""
"null","","audio-keyboard-response","416","2573503","0.0-13.0-0.91","l","COGS_2020_17","Sounds/train_sound.wav","null","1","","","","","","",""
"null","","html-keyboard-response","417","2574501","0.0-13.0-1.91","l","COGS_2020_17","<p style=""font-size: 48px;"">+</p>","null","1","","","","","","",""
"497.87999999988824","","image-keyboard-response","418","2575000","0.0-13.0-2.91","l","COGS_2020_17","Images/dog_orig.png","65","1","1581969063302","non-match","dog","train","sound","test","true"
"null","","audio-keyboard-response","419","2577007","0.0-13.0-3.91","l","COGS_2020_17","Sounds/correct.wav","null","1","","","","","","",""
"null","","audio-keyboard-response","420","2578283","0.0-13.0-0.92","l","COGS_2020_17","Sounds/train_sound.wav","null","1","","","","","","",""
"null","","html-keyboard-response","421","2579301","0.0-13.0-1.92","l","COGS_2020_17","<p style=""font-size: 48px;"">+</p>","null","1","","","","","","",""
"465.80500000016764","","image-keyboard-response","422","2579768","0.0-13.0-2.92","l","COGS_2020_17","Images/train_3.png","76","1","1581969068102","match","train","train","sound","test","true"
"null","","audio-keyboard-response","423","2581773","0.0-13.0-3.92","l","COGS_2020_17","Sounds/correct.wav","null","1","","","","","","",""
"null","","audio-keyboard-response","424","2582463","0.0-13.0-0.93","l","COGS_2020_17","Sounds/whistle_label.wav","null","1","","","","","","",""
"null","","html-keyboard-response","425","2583451","0.0-13.0-1.93","l","COGS_2020_17","<p style=""font-size: 48px;"">+</p>","null","1","","","","","","",""
"507.50499999988824","","image-keyboard-response","426","2583960","0.0-13.0-2.93","l","COGS_2020_17","Images/frog_cartoon.png","65","1","1581969072253","non-match","frog","whistle","label","test","true"
"null","","audio-keyboard-response","427","2585970","0.0-13.0-3.93","l","COGS_2020_17","Sounds/correct.wav","null","1","","","","","","",""
"null","","audio-keyboard-response","428","2586663","0.0-13.0-0.94","l","COGS_2020_17","Sounds/rooster_sound.wav","null","1","","","","","","",""
"null","","html-keyboard-response","429","2587668","0.0-13.0-1.94","l","COGS_2020_17","<p style=""font-size: 48px;"">+</p>","null","1","","","","","","",""
"562.7050000000745","","image-keyboard-response","430","2588232","0.0-13.0-2.94","l","COGS_2020_17","Images/frog_2.png","65","1","1581969076469","non-match","frog","rooster","sound","test","true"
"null","","audio-keyboard-response","431","2590239","0.0-13.0-3.94","l","COGS_2020_17","Sounds/correct.wav","null","1","","","","","","",""
"null","","audio-keyboard-response","432","2590943","0.0-13.0-0.95","l","COGS_2020_17","Sounds/whistle_sound.wav","null","1","","","","","","",""
"null","","html-keyboard-response","433","2591934","0.0-13.0-1.95","l","COGS_2020_17","<p style=""font-size: 48px;"">+</p>","null","1","","","","","","",""
"999.214999999851","","image-keyboard-response","434","2592936","0.0-13.0-2.95","l","COGS_2020_17","Images/train_cartoon.png","65","1","1581969080736","non-match","train","whistle","sound","test","true"
"null","","audio-keyboard-response","435","2594942","0.0-13.0-3.95","l","COGS_2020_17","Sounds/correct.wav","null","1","","","","","","",""
"null","","audio-keyboard-response","436","2595783","0.0-13.0-0.96","l","COGS_2020_17","Sounds/cat_label.wav","null","1","","","","","","",""
"null","","html-keyboard-response","437","2596801","0.0-13.0-1.96","l","COGS_2020_17","<p style=""font-size: 48px;"">+</p>","null","1","","","","","","",""
"661.7749999999069","","image-keyboard-response","438","2597464","0.0-13.0-2.96","l","COGS_2020_17","Images/cat_cartoon.png","76","1","1581969085602","match","cat","cat","label","test","true"
"null","","audio-keyboard-response","439","2599473","0.0-13.0-3.96","l","COGS_2020_17","Sounds/correct.wav","null","1","","","","","","",""
"null","","audio-keyboard-response","440","2600143","0.0-13.0-0.97","l","COGS_2020_17","Sounds/rooster_sound.wav","null","1","","","","","","",""
"null","","html-keyboard-response","441","2601135","0.0-13.0-1.97","l","COGS_2020_17","<p style=""font-size: 48px;"">+</p>","null","1","","","","","","",""
"823.964999999851","","image-keyboard-response","442","2601960","0.0-13.0-2.97","l","COGS_2020_17","Images/dog_cartoon.png","65","1","1581969089936","non-match","dog","rooster","sound","test","true"
"null","","audio-keyboard-response","443","2603974","0.0-13.0-3.97","l","COGS_2020_17","Sounds/correct.wav","null","1","","","","","","",""
"null","","audio-keyboard-response","444","2605263","0.0-13.0-0.98","l","COGS_2020_17","Sounds/train_label.wav","null","1","","","","","","",""
"null","","html-keyboard-response","445","2606268","0.0-13.0-1.98","l","COGS_2020_17","<p style=""font-size: 48px;"">+</p>","null","1","","","","","","",""
"474.70499999960884","","image-keyboard-response","446","2606744","0.0-13.0-2.98","l","COGS_2020_17","Images/train_orig.png","76","1","1581969095069","match","train","train","label","test","true"
"null","","audio-keyboard-response","447","2608757","0.0-13.0-3.98","l","COGS_2020_17","Sounds/correct.wav","null","1","","","","","","",""
"null","","audio-keyboard-response","448","2610063","0.0-13.0-0.99","l","COGS_2020_17","Sounds/train_sound.wav","null","1","","","","","","",""
"null","","html-keyboard-response","449","2611068","0.0-13.0-1.99","l","COGS_2020_17","<p style=""font-size: 48px;"">+</p>","null","1","","","","","","",""
"1018.640000000596","","image-keyboard-response","450","2612088","0.0-13.0-2.99","l","COGS_2020_17","Images/car_orig.png","65","1","1581969099869","non-match","car","train","sound","test","true"
"null","","audio-keyboard-response","451","2614105","0.0-13.0-3.99","l","COGS_2020_17","Sounds/correct.wav","null","1","","","","","","",""
"26830","","html-keyboard-response","452","2640936","0.0-14.0","l","COGS_2020_17","<p>Please take this opportunity to rest your eyes before proceeding.</p><p>When ready, press the enter key to continue to the next set of trials.</p>","13","","","","","","","",""
"null","","audio-keyboard-response","453","2643794","0.0-15.0-0.0","l","COGS_2020_17","Sounds/cat_label.wav","null","2","","","","","","",""
"null","","html-keyboard-response","454","2644785","0.0-15.0-1.0","l","COGS_2020_17","<p style=""font-size: 48px;"">+</p>","null","2","","","","","","",""
"469.64999999990687","","image-keyboard-response","455","2645256","0.0-15.0-2.0","l","COGS_2020_17","Images/cat_cartoon.png","76","2","1581969133586","match","cat","cat","label","test","true"
"null","","audio-keyboard-response","456","2647273","0.0-15.0-3.0","l","COGS_2020_17","Sounds/correct.wav","null","2","","","","","","",""
"null","","audio-keyboard-response","457","2648294","0.0-15.0-0.1","l","COGS_2020_17","Sounds/cow_label.wav","null","2","","","","","","",""
"null","","html-keyboard-response","458","2649285","0.0-15.0-1.1","l","COGS_2020_17","<p style=""font-size: 48px;"">+</p>","null","2","","","","","","",""
"577.6000000000931","","image-keyboard-response","459","2649864","0.0-15.0-2.1","l","COGS_2020_17","Images/cow_3.png","76","2","1581969138086","match","cow","cow","label","test","true"
"null","","audio-keyboard-response","460","2651875","0.0-15.0-3.1","l","COGS_2020_17","Sounds/correct.wav","null","2","","","","","","",""
"null","","audio-keyboard-response","461","2652694","0.0-15.0-0.2","l","COGS_2020_17","Sounds/cat_label.wav","null","2","","","","","","",""
"null","","html-keyboard-response","462","2653685","0.0-15.0-1.2","l","COGS_2020_17","<p style=""font-size: 48px;"">+</p>","null","2","","","","","","",""
"513.8500000005588","","image-keyboard-response","463","2654200","0.0-15.0-2.2","l","COGS_2020_17","Images/cat_1.png","76","2","1581969142486","match","cat","cat","label","test","true"
"null","","audio-keyboard-response","464","2656207","0.0-15.0-3.2","l","COGS_2020_17","Sounds/correct.wav","null","2","","","","","","",""
"null","","audio-keyboard-response","465","2657114","0.0-15.0-0.3","l","COGS_2020_17","Sounds/frog_label.wav","null","2","","","","","","",""
"null","","html-keyboard-response","466","2658102","0.0-15.0-1.3","l","COGS_2020_17","<p style=""font-size: 48px;"">+</p>","null","2","","","","","","",""
"720.8799999998882","","image-keyboard-response","467","2658824","0.0-15.0-2.3","l","COGS_2020_17","Images/gun_1.png","65","2","1581969146903","non-match","gun","frog","label","test","true"
"null","","audio-keyboard-response","468","2660839","0.0-15.0-3.3","l","COGS_2020_17","Sounds/correct.wav","null","2","","","","","","",""
"null","","audio-keyboard-response","469","2661494","0.0-15.0-0.4","l","COGS_2020_17","Sounds/dog_label.wav","null","2","","","","","","",""
"null","","html-keyboard-response","470","2662486","0.0-15.0-1.4","l","COGS_2020_17","<p style=""font-size: 48px;"">+</p>","null","2","","","","","","",""
"513.4199999994598","","image-keyboard-response","471","2663000","0.0-15.0-2.4","l","COGS_2020_17","Images/frog_3.png","65","2","1581969151287","non-match","frog","dog","label","test","true"
"null","","audio-keyboard-response","472","2665007","0.0-15.0-3.4","l","COGS_2020_17","Sounds/correct.wav","null","2","","","","","","",""
"null","","audio-keyboard-response","473","2665714","0.0-15.0-0.5","l","COGS_2020_17","Sounds/whistle_label.wav","null","2","","","","","","",""
"null","","html-keyboard-response","474","2666702","0.0-15.0-1.5","l","COGS_2020_17","<p style=""font-size: 48px;"">+</p>","null","2","","","","","","",""
"760.9449999998324","","image-keyboard-response","475","2667464","0.0-15.0-2.5","l","COGS_2020_17","Images/cow_3.png","65","2","1581969155503","non-match","cow","whistle","label","test","true"
"null","","audio-keyboard-response","476","2669474","0.0-15.0-3.5","l","COGS_2020_17","Sounds/correct.wav","null","2","","","","","","",""
"null","","audio-keyboard-response","477","2670494","0.0-15.0-0.6","l","COGS_2020_17","Sounds/cow_label.wav","null","2","","","","","","",""
"null","","html-keyboard-response","478","2671486","0.0-15.0-1.6","l","COGS_2020_17","<p style=""font-size: 48px;"">+</p>","null","2","","","","","","",""
"937.5849999999627","","image-keyboard-response","479","2672424","0.0-15.0-2.6","l","COGS_2020_17","Images/cat_cartoon.png","65","2","1581969160287","non-match","cat","cow","label","test","true"
"null","","audio-keyboard-response","480","2674440","0.0-15.0-3.6","l","COGS_2020_17","Sounds/correct.wav","null","2","","","","","","",""
"null","","audio-keyboard-response","481","2675074","0.0-15.0-0.7","l","COGS_2020_17","Sounds/dog_label.wav","null","2","","","","","","",""
"null","","html-keyboard-response","482","2676069","0.0-15.0-1.7","l","COGS_2020_17","<p style=""font-size: 48px;"">+</p>","null","2","","","","","","",""
"673.0300000002608","","image-keyboard-response","483","2676744","0.0-15.0-2.7","l","COGS_2020_17","Images/dog_3.png","76","2","1581969164870","match","dog","dog","label","test","true"
"null","","audio-keyboard-response","484","2678756","0.0-15.0-3.7","l","COGS_2020_17","Sounds/correct.wav","null","2","","","","","","",""
"null","","audio-keyboard-response","485","2679874","0.0-15.0-0.8","l","COGS_2020_17","Sounds/motorcycle_sound.wav","null","2","","","","","","",""
"null","","html-keyboard-response","486","2680869","0.0-15.0-1.8","l","COGS_2020_17","<p style=""font-size: 48px;"">+</p>","null","2","","","","","","",""
"514.1250000004657","","image-keyboard-response","487","2681384","0.0-15.0-2.8","l","COGS_2020_17","Images/gun_2.png","65","2","1581969169670","non-match","gun","motorcycle","sound","test","true"
"null","","audio-keyboard-response","488","2683392","0.0-15.0-3.8","l","COGS_2020_17","Sounds/correct.wav","null","2","","","","","","",""
"null","","audio-keyboard-response","489","2684414","0.0-15.0-0.9","l","COGS_2020_17","Sounds/cow_sound.wav","null","2","","","","","","",""
"null","","html-keyboard-response","490","2685419","0.0-15.0-1.9","l","COGS_2020_17","<p style=""font-size: 48px;"">+</p>","null","2","","","","","","",""
"587.7250000005588","","image-keyboard-response","491","2686008","0.0-15.0-2.9","l","COGS_2020_17","Images/cow_cartoon.png","76","2","1581969174220","match","cow","cow","sound","test","true"
"null","","audio-keyboard-response","492","2688024","0.0-15.0-3.9","l","COGS_2020_17","Sounds/correct.wav","null","2","","","","","","",""
"null","","audio-keyboard-response","493","2688734","0.0-15.0-0.10","l","COGS_2020_17","Sounds/dog_sound.wav","null","2","","","","","","",""
"null","","html-keyboard-response","494","2689736","0.0-15.0-1.10","l","COGS_2020_17","<p style=""font-size: 48px;"">+</p>","null","2","","","","","","",""
"1279.2299999999814","","image-keyboard-response","495","2691016","0.0-15.0-2.10","l","COGS_2020_17","Images/dog_1.png","76","2","1581969178537","match","dog","dog","sound","test","true"
"null","","audio-keyboard-response","496","2693028","0.0-15.0-3.10","l","COGS_2020_17","Sounds/correct.wav","null","2","","","","","","",""
"null","","audio-keyboard-response","497","2693934","0.0-15.0-0.11","l","COGS_2020_17","Sounds/frog_label.wav","null","2","","","","","","",""
"null","","html-keyboard-response","498","2694936","0.0-15.0-1.11","l","COGS_2020_17","<p style=""font-size: 48px;"">+</p>","null","2","","","","","","",""
"511.37999999988824","","image-keyboard-response","499","2695448","0.0-15.0-2.11","l","COGS_2020_17","Images/car_1.png","65","2","1581969183737","non-match","car","frog","label","test","true"
"null","","audio-keyboard-response","500","2697458","0.0-15.0-3.11","l","COGS_2020_17","Sounds/correct.wav","null","2","","","","","","",""
"null","","audio-keyboard-response","501","2698474","0.0-15.0-0.12","l","COGS_2020_17","Sounds/cow_label.wav","null","2","","","","","","",""
"null","","html-keyboard-response","502","2699469","0.0-15.0-1.12","l","COGS_2020_17","<p style=""font-size: 48px;"">+</p>","null","2","","","","","","",""
"665.6899999999441","","image-keyboard-response","503","2700136","0.0-15.0-2.12","l","COGS_2020_17","Images/frog_2.png","65","2","1581969188270","non-match","frog","cow","label","test","true"
"null","","audio-keyboard-response","504","2702141","0.0-15.0-3.12","l","COGS_2020_17","Sounds/correct.wav","null","2","","","","","","",""
"null","","audio-keyboard-response","505","2703274","0.0-15.0-0.13","l","COGS_2020_17","Sounds/motorcycle_label.wav","null","2","","","","","","",""
"null","","html-keyboard-response","506","2704269","0.0-15.0-1.13","l","COGS_2020_17","<p style=""font-size: 48px;"">+</p>","null","2","","","","","","",""
"473.7650000001304","","image-keyboard-response","507","2704744","0.0-15.0-2.13","l","COGS_2020_17","Images/motorcycle_orig.png","76","2","1581969193071","match","motorcycle","motorcycle","label","test","true"
"null","","audio-keyboard-response","508","2706757","0.0-15.0-3.13","l","COGS_2020_17","Sounds/correct.wav","null","2","","","","","","",""
"null","","audio-keyboard-response","509","2707334","0.0-15.0-0.14","l","COGS_2020_17","Sounds/gun_sound.wav","null","2","","","","","","",""
"null","","html-keyboard-response","510","2708336","0.0-15.0-1.14","l","COGS_2020_17","<p style=""font-size: 48px;"">+</p>","null","2","","","","","","",""
"471.34000000031665","","image-keyboard-response","511","2708809","0.0-15.0-2.14","l","COGS_2020_17","Images/cat_1.png","65","2","1581969197137","non-match","cat","gun","sound","test","true"
"null","","audio-keyboard-response","512","2710824","0.0-15.0-3.14","l","COGS_2020_17","Sounds/correct.wav","null","2","","","","","","",""
"null","","audio-keyboard-response","513","2711654","0.0-15.0-0.15","l","COGS_2020_17","Sounds/cat_sound.wav","null","2","","","","","","",""
"null","","html-keyboard-response","514","2712653","0.0-15.0-1.15","l","COGS_2020_17","<p style=""font-size: 48px;"">+</p>","null","2","","","","","","",""
"666.304999999702","","image-keyboard-response","515","2713320","0.0-15.0-2.15","l","COGS_2020_17","Images/cat_2.png","76","2","1581969201454","match","cat","cat","sound","test","true"
"null","","audio-keyboard-response","516","2715325","0.0-15.0-3.15","l","COGS_2020_17","Sounds/correct.wav","null","2","","","","","","",""
"null","","audio-keyboard-response","517","2716154","0.0-15.0-0.16","l","COGS_2020_17","Sounds/cat_label.wav","null","2","","","","","","",""
"null","","html-keyboard-response","518","2717153","0.0-15.0-1.16","l","COGS_2020_17","<p style=""font-size: 48px;"">+</p>","null","2","","","","","","",""
"422.1850000000559","","image-keyboard-response","519","2717576","0.0-15.0-2.16","l","COGS_2020_17","Images/train_2.png","65","2","1581969205954","non-match","train","cat","label","test","true"
"null","","audio-keyboard-response","520","2719592","0.0-15.0-3.16","l","COGS_2020_17","Sounds/correct.wav","null","2","","","","","","",""
"null","","audio-keyboard-response","521","2720614","0.0-15.0-0.17","l","COGS_2020_17","Sounds/cow_sound.wav","null","2","","","","","","",""
"null","","html-keyboard-response","522","2721620","0.0-15.0-1.17","l","COGS_2020_17","<p style=""font-size: 48px;"">+</p>","null","2","","","","","","",""
"595.5900000003166","","image-keyboard-response","523","2722216","0.0-15.0-2.17","l","COGS_2020_17","Images/cow_1.png","76","2","1581969210421","match","cow","cow","sound","test","true"
"null","","audio-keyboard-response","524","2724225","0.0-15.0-3.17","l","COGS_2020_17","Sounds/correct.wav","null","2","","","","","","",""
"null","","audio-keyboard-response","525","2724934","0.0-15.0-0.18","l","COGS_2020_17","Sounds/dog_sound.wav","null","2","","","","","","",""
"null","","html-keyboard-response","526","2725937","0.0-15.0-1.18","l","COGS_2020_17","<p style=""font-size: 48px;"">+</p>","null","2","","","","","","",""
"662.7350000003353","","image-keyboard-response","527","2726600","0.0-15.0-2.18","l","COGS_2020_17","Images/dog_cartoon.png","76","2","1581969214738","match","dog","dog","sound","test","true"
"null","","audio-keyboard-response","528","2728610","0.0-15.0-3.18","l","COGS_2020_17","Sounds/correct.wav","null","2","","","","","","",""
"null","","audio-keyboard-response","529","2729734","0.0-15.0-0.19","l","COGS_2020_17","Sounds/motorcycle_sound.wav","null","2","","","","","","",""
"null","","html-keyboard-response","530","2730737","0.0-15.0-1.19","l","COGS_2020_17","<p style=""font-size: 48px;"">+</p>","null","2","","","","","","",""
"486.7349999998696","","image-keyboard-response","531","2731224","0.0-15.0-2.19","l","COGS_2020_17","Images/motorcycle_1.png","76","2","1581969219538","match","motorcycle","motorcycle","sound","test","true"
"null","","audio-keyboard-response","532","2733241","0.0-15.0-3.19","l","COGS_2020_17","Sounds/correct.wav","null","2","","","","","","",""
"null","","audio-keyboard-response","533","2734234","0.0-15.0-0.20","l","COGS_2020_17","Sounds/cow_sound.wav","null","2","","","","","","",""
"null","","html-keyboard-response","534","2735237","0.0-15.0-1.20","l","COGS_2020_17","<p style=""font-size: 48px;"">+</p>","null","2","","","","","","",""
"545.7500000004657","","image-keyboard-response","535","2735785","0.0-15.0-2.20","l","COGS_2020_17","Images/rooster_2.png","65","2","1581969224038","non-match","rooster","cow","sound","test","true"
"null","","audio-keyboard-response","536","2737792","0.0-15.0-3.20","l","COGS_2020_17","Sounds/correct.wav","null","2","","","","","","",""
"null","","audio-keyboard-response","537","2738814","0.0-15.0-0.21","l","COGS_2020_17","Sounds/cow_label.wav","null","2","","","","","","",""
"null","","html-keyboard-response","538","2739820","0.0-15.0-1.21","l","COGS_2020_17","<p style=""font-size: 48px;"">+</p>","null","2","","","","","","",""
"539.1750000002794","","image-keyboard-response","539","2740360","0.0-15.0-2.21","l","COGS_2020_17","Images/dog_2.png","65","2","1581969228621","non-match","dog","cow","label","test","true"
"null","","audio-keyboard-response","540","2742374","0.0-15.0-3.21","l","COGS_2020_17","Sounds/correct.wav","null","2","","","","","","",""
"null","","audio-keyboard-response","541","2743074","0.0-15.0-0.22","l","COGS_2020_17","Sounds/whistle_sound.wav","null","2","","","","","","",""
"null","","html-keyboard-response","542","2744070","0.0-15.0-1.22","l","COGS_2020_17","<p style=""font-size: 48px;"">+</p>","null","2","","","","","","",""
"753.3500000000931","","image-keyboard-response","543","2744825","0.0-15.0-2.22","l","COGS_2020_17","Images/train_orig.png","65","2","1581969232871","non-match","train","whistle","sound","test","true"
"null","","audio-keyboard-response","544","2746827","0.0-15.0-3.22","l","COGS_2020_17","Sounds/correct.wav","null","2","","","","","","",""
"null","","audio-keyboard-response","545","2747734","0.0-15.0-0.23","l","COGS_2020_17","Sounds/frog_sound.wav","null","2","","","","","","",""
"null","","html-keyboard-response","546","2748737","0.0-15.0-1.23","l","COGS_2020_17","<p style=""font-size: 48px;"">+</p>","null","2","","","","","","",""
"838.769999999553","","image-keyboard-response","547","2749577","0.0-15.0-2.23","l","COGS_2020_17","Images/frog_3.png","76","2","1581969237538","match","frog","frog","sound","test","true"
"null","","audio-keyboard-response","548","2751591","0.0-15.0-3.23","l","COGS_2020_17","Sounds/correct.wav","null","2","","","","","","",""
"null","","audio-keyboard-response","549","2752674","0.0-15.0-0.24","l","COGS_2020_17","Sounds/car_sound.wav","null","2","","","","","","",""
"null","","html-keyboard-response","550","2753670","0.0-15.0-1.24","l","COGS_2020_17","<p style=""font-size: 48px;"">+</p>","null","2","","","","","","",""
"545.1450000000186","","image-keyboard-response","551","2754216","0.0-15.0-2.24","l","COGS_2020_17","Images/car_orig.png","76","2","1581969242471","match","car","car","sound","test","true"
"null","","audio-keyboard-response","552","2756226","0.0-15.0-3.24","l","COGS_2020_17","Sounds/correct.wav","null","2","","","","","","",""
"null","","audio-keyboard-response","553","2757374","0.0-15.0-0.25","l","COGS_2020_17","Sounds/motorcycle_label.wav","null","2","","","","","","",""
"null","","html-keyboard-response","554","2758370","0.0-15.0-1.25","l","COGS_2020_17","<p style=""font-size: 48px;"">+</p>","null","2","","","","","","",""
"485.1300000003539","","image-keyboard-response","555","2758856","0.0-15.0-2.25","l","COGS_2020_17","Images/cow_1.png","65","2","1581969247171","non-match","cow","motorcycle","label","test","true"
"null","","audio-keyboard-response","556","2760874","0.0-15.0-3.25","l","COGS_2020_17","Sounds/correct.wav","null","2","","","","","","",""
"null","","audio-keyboard-response","557","2761574","0.0-15.0-0.26","l","COGS_2020_17","Sounds/whistle_label.wav","null","2","","","","","","",""
"null","","html-keyboard-response","558","2762570","0.0-15.0-1.26","l","COGS_2020_17","<p style=""font-size: 48px;"">+</p>","null","2","","","","","","",""
"492.2599999997765","","image-keyboard-response","559","2763065","0.0-15.0-2.26","l","COGS_2020_17","Images/whistle_orig.png","76","2","1581969251371","match","whistle","whistle","label","test","true"
"null","","audio-keyboard-response","560","2765075","0.0-15.0-3.26","l","COGS_2020_17","Sounds/correct.wav","null","2","","","","","","",""
"null","","audio-keyboard-response","561","2765734","0.0-15.0-0.27","l","COGS_2020_17","Sounds/dog_label.wav","null","2","","","","","","",""
"null","","html-keyboard-response","562","2766737","0.0-15.0-1.27","l","COGS_2020_17","<p style=""font-size: 48px;"">+</p>","null","2","","","","","","",""
"598.3799999998882","","image-keyboard-response","563","2767336","0.0-15.0-2.27","l","COGS_2020_17","Images/rooster_cartoon.png","65","2","1581969255538","non-match","rooster","dog","label","test","true"
"null","","audio-keyboard-response","564","2769342","0.0-15.0-3.27","l","COGS_2020_17","Sounds/correct.wav","null","2","","","","","","",""
"null","","audio-keyboard-response","565","2770034","0.0-15.0-0.28","l","COGS_2020_17","Sounds/rooster_label.wav","null","2","","","","","","",""
"null","","html-keyboard-response","566","2771037","0.0-15.0-1.28","l","COGS_2020_17","<p style=""font-size: 48px;"">+</p>","null","2","","","","","","",""
"490.25000000046566","","image-keyboard-response","567","2771528","0.0-15.0-2.28","l","COGS_2020_17","Images/rooster_orig.png","76","2","1581969259838","match","rooster","rooster","label","test","true"
"null","","audio-keyboard-response","568","2773541","0.0-15.0-3.28","l","COGS_2020_17","Sounds/correct.wav","null","2","","","","","","",""
"null","","audio-keyboard-response","569","2774234","0.0-15.0-0.29","l","COGS_2020_17","Sounds/rooster_sound.wav","null","2","","","","","","",""
"null","","html-keyboard-response","570","2775237","0.0-15.0-1.29","l","COGS_2020_17","<p style=""font-size: 48px;"">+</p>","null","2","","","","","","",""
"418.5049999994226","","image-keyboard-response","571","2775657","0.0-15.0-2.29","l","COGS_2020_17","Images/car_3.png","65","2","1581969264038","non-match","car","rooster","sound","test","true"
"null","","audio-keyboard-response","572","2777659","0.0-15.0-3.29","l","COGS_2020_17","Sounds/correct.wav","null","2","","","","","","",""
"null","","audio-keyboard-response","573","2778234","0.0-15.0-0.30","l","COGS_2020_17","Sounds/gun_sound.wav","null","2","","","","","","",""
"null","","html-keyboard-response","574","2779237","0.0-15.0-1.30","l","COGS_2020_17","<p style=""font-size: 48px;"">+</p>","null","2","","","","","","",""
"1362.1299999998882","","image-keyboard-response","575","2780600","0.0-15.0-2.30","l","COGS_2020_17","Images/gun_1.png","76","2","1581969268038","match","gun","gun","sound","test","true"
"null","","audio-keyboard-response","576","2782611","0.0-15.0-3.30","l","COGS_2020_17","Sounds/correct.wav","null","2","","","","","","",""
"null","","audio-keyboard-response","577","2783694","0.0-15.0-0.31","l","COGS_2020_17","Sounds/car_sound.wav","null","2","","","","","","",""
"null","","html-keyboard-response","578","2784683","0.0-15.0-1.31","l","COGS_2020_17","<p style=""font-size: 48px;"">+</p>","null","2","","","","","","",""
"1128.1200000001118","","image-keyboard-response","579","2785812","0.0-15.0-2.31","l","COGS_2020_17","Images/car_cartoon.png","76","2","1581969273484","match","car","car","sound","test","true"
"null","","audio-keyboard-response","580","2787820","0.0-15.0-3.31","l","COGS_2020_17","Sounds/correct.wav","null","2","","","","","","",""
"null","","audio-keyboard-response","581","2788390","0.0-15.0-0.32","l","COGS_2020_17","Sounds/gun_label.wav","null","2","","","","","","",""
"null","","html-keyboard-response","582","2789383","0.0-15.0-1.32","l","COGS_2020_17","<p style=""font-size: 48px;"">+</p>","null","2","","","","","","",""
"603.0200000000186","","image-keyboard-response","583","2789988","0.0-15.0-2.32","l","COGS_2020_17","Images/whistle_cartoon.png","65","2","1581969278184","non-match","whistle","gun","label","test","true"
"null","","audio-keyboard-response","584","2792003","0.0-15.0-3.32","l","COGS_2020_17","Sounds/correct.wav","null","2","","","","","","",""
"null","","audio-keyboard-response","585","2792849","0.0-15.0-0.33","l","COGS_2020_17","Sounds/cat_label.wav","null","2","","","","","","",""
"null","","html-keyboard-response","586","2793849","0.0-15.0-1.33","l","COGS_2020_17","<p style=""font-size: 48px;"">+</p>","null","2","","","","","","",""
"697.6099999998696","","image-keyboard-response","587","2794548","0.0-15.0-2.33","l","COGS_2020_17","Images/gun_cartoon.png","65","2","1581969282650","non-match","gun","cat","label","test","true"
"null","","audio-keyboard-response","588","2796563","0.0-15.0-3.33","l","COGS_2020_17","Sounds/correct.wav","null","2","","","","","","",""
"null","","audio-keyboard-response","589","2797269","0.0-15.0-0.34","l","COGS_2020_17","Sounds/whistle_sound.wav","null","2","","","","","","",""
"null","","html-keyboard-response","590","2798266","0.0-15.0-1.34","l","COGS_2020_17","<p style=""font-size: 48px;"">+</p>","null","2","","","","","","",""
"521.1899999999441","","image-keyboard-response","591","2798788","0.0-15.0-2.34","l","COGS_2020_17","Images/whistle_2.png","76","2","1581969287067","match","whistle","whistle","sound","test","true"
"null","","audio-keyboard-response","592","2800803","0.0-15.0-3.34","l","COGS_2020_17","Sounds/correct.wav","null","2","","","","","","",""
"null","","audio-keyboard-response","593","2801510","0.0-15.0-0.35","l","COGS_2020_17","Sounds/rooster_label.wav","null","2","","","","","","",""
"null","","html-keyboard-response","594","2802500","0.0-15.0-1.35","l","COGS_2020_17","<p style=""font-size: 48px;"">+</p>","null","2","","","","","","",""
"911.1400000001304","","image-keyboard-response","595","2803412","0.0-15.0-2.35","l","COGS_2020_17","Images/cow_cartoon.png","65","2","1581969291301","non-match","cow","rooster","label","test","true"
"null","","audio-keyboard-response","596","2805421","0.0-15.0-3.35","l","COGS_2020_17","Sounds/correct.wav","null","2","","","","","","",""
"null","","audio-keyboard-response","597","2806250","0.0-15.0-0.36","l","COGS_2020_17","Sounds/cat_sound.wav","null","2","","","","","","",""
"null","","html-keyboard-response","598","2807249","0.0-15.0-1.36","l","COGS_2020_17","<p style=""font-size: 48px;"">+</p>","null","2","","","","","","",""
"401.43000000016764","","image-keyboard-response","599","2807652","0.0-15.0-2.36","l","COGS_2020_17","Images/car_orig.png","65","2","1581969296051","non-match","car","cat","sound","test","true"
"null","","audio-keyboard-response","600","2809655","0.0-15.0-3.36","l","COGS_2020_17","Sounds/correct.wav","null","2","","","","","","",""
"null","","audio-keyboard-response","601","2810730","0.0-15.0-0.37","l","COGS_2020_17","Sounds/car_label.wav","null","2","","","","","","",""
"null","","html-keyboard-response","602","2811733","0.0-15.0-1.37","l","COGS_2020_17","<p style=""font-size: 48px;"">+</p>","null","2","","","","","","",""
"446.1150000002235","","image-keyboard-response","603","2812180","0.0-15.0-2.37","l","COGS_2020_17","Images/car_1.png","76","2","1581969300534","match","car","car","label","test","true"
"null","","audio-keyboard-response","604","2814188","0.0-15.0-3.37","l","COGS_2020_17","Sounds/correct.wav","null","2","","","","","","",""
"null","","audio-keyboard-response","605","2814870","0.0-15.0-0.38","l","COGS_2020_17","Sounds/rooster_label.wav","null","2","","","","","","",""
"null","","html-keyboard-response","606","2815866","0.0-15.0-1.38","l","COGS_2020_17","<p style=""font-size: 48px;"">+</p>","null","2","","","","","","",""
"488.45999999996275","","image-keyboard-response","607","2816356","0.0-15.0-2.38","l","COGS_2020_17","Images/rooster_1.png","76","2","1581969304667","match","rooster","rooster","label","test","true"
"null","","audio-keyboard-response","608","2818372","0.0-15.0-3.38","l","COGS_2020_17","Sounds/correct.wav","null","2","","","","","","",""
"null","","audio-keyboard-response","609","2818950","0.0-15.0-0.39","l","COGS_2020_17","Sounds/gun_sound.wav","null","2","","","","","","",""
"null","","html-keyboard-response","610","2819950","0.0-15.0-1.39","l","COGS_2020_17","<p style=""font-size: 48px;"">+</p>","null","2","","","","","","",""
"1269.0550000001676","","image-keyboard-response","611","2821220","0.0-15.0-2.39","l","COGS_2020_17","Images/gun_cartoon.png","76","2","1581969308751","match","gun","gun","sound","test","true"
"null","","audio-keyboard-response","612","2823223","0.0-15.0-3.39","l","COGS_2020_17","Sounds/correct.wav","null","2","","","","","","",""
"null","","audio-keyboard-response","613","2824129","0.0-15.0-0.40","l","COGS_2020_17","Sounds/frog_sound.wav","null","2","","","","","","",""
"null","","html-keyboard-response","614","2825133","0.0-15.0-1.40","l","COGS_2020_17","<p style=""font-size: 48px;"">+</p>","null","2","","","","","","",""
"758.1250000004657","","image-keyboard-response","615","2825892","0.0-15.0-2.40","l","COGS_2020_17","Images/frog_1.png","76","2","1581969313934","match","frog","frog","sound","test","true"
"null","","audio-keyboard-response","616","2827904","0.0-15.0-3.40","l","COGS_2020_17","Sounds/correct.wav","null","2","","","","","","",""
