[{"rt":11615.570000023581,"responses":"{\"Q0\":\"COGS219_2020_27\"}","trial_type":"survey-text","trial_index":0,"time_elapsed":11647,"internal_node_id":"0.0-0.0","match_key":"a","participant_id":"COGS219_2020_27"},{"rt":137138.62500002142,"stimulus":"<p>Use KEYBOARD 2 (match LEFT)</p><p>Press MATCH to continue.</p>","key_press":65,"trial_type":"html-keyboard-response","trial_index":1,"time_elapsed":148800,"internal_node_id":"0.0-1.0","match_key":"a","participant_id":"COGS219_2020_27"},{"rt":2151949.5500000194,"stimulus":"<p>Welcome to the experiment.</p>","key_press":39,"trial_type":"html-keyboard-response","trial_index":2,"time_elapsed":2301041,"internal_node_id":"0.0-2.0","match_key":"a","participant_id":"COGS219_2020_27"},{"rt":6792.320000007749,"stimulus":"<p>Thank you for agreeing to participate in this study.</p><p>If during any part of the procedure you must stop for any reason, please inform the researcher that you do not wish to continue.</p>","key_press":39,"trial_type":"html-keyboard-response","trial_index":3,"time_elapsed":2307839,"internal_node_id":"0.0-3.0","match_key":"a","participant_id":"COGS219_2020_27"},{"rt":16959.335000021383,"stimulus":"<p>In this experiment, you will hear various words or sounds and see pictures of various animals and objects.</p><p>Most of the images will be of common everyday objects, such as cars, cats, cows, firearms, frogs, chickens, whistles, trains, motorcycles, and dogs.</p><p>Some of the images will be real-life stills, while others will be cartoons.</p>","key_press":39,"trial_type":"html-keyboard-response","trial_index":4,"time_elapsed":2324800,"internal_node_id":"0.0-4.0","match_key":"a","participant_id":"COGS219_2020_27"},{"rt":19174.570000031963,"stimulus":"<p>Sometimes, the word/sound will match the picture, for example you'll hear a meowing sound and see a cat.</p><p>Other times, the picture will not match the sound or word.</p><p>Your task is to decide as quickly as possible if the word/sound matches the picture or not. </p>","key_press":39,"trial_type":"html-keyboard-response","trial_index":5,"time_elapsed":2343976,"internal_node_id":"0.0-5.0","match_key":"a","participant_id":"COGS219_2020_27"},{"rt":14007.055000052787,"stimulus":"<p>For example, if you hear the word \"cat\" or hear a meowing sound, and then see a picture of a cat, you should press the MATCH key.</p><p> If the sound and image do not match, press the NOT-MATCH key to indicate that there is not a match.</p>","key_press":39,"trial_type":"html-keyboard-response","trial_index":6,"time_elapsed":2357984,"internal_node_id":"0.0-6.0","match_key":"a","participant_id":"COGS219_2020_27"},{"rt":13030.525000067428,"stimulus":"<p>If you make a mistake, you will hear a buzzing sound instead of a more pleasant sound.</p><p> Try to respond as quickly as possible, while making as few errors as possible. If you are making mistakes, you are probably rushing.</p>","key_press":39,"trial_type":"html-keyboard-response","trial_index":7,"time_elapsed":2371015,"internal_node_id":"0.0-7.0","match_key":"a","participant_id":"COGS219_2020_27"},{"rt":61527.46000001207,"stimulus":"<p>Please try to not move or blink your eyes during the presentation of the images. You can move and blink between images.</p><p>During the experiment there will be some breaks during which you can rest your eyes.</p>","key_press":39,"trial_type":"html-keyboard-response","trial_index":8,"time_elapsed":2432534,"internal_node_id":"0.0-8.0","match_key":"a","participant_id":"COGS219_2020_27"},{"rt":6109.884999925271,"stimulus":"<p>We will begin with 10 practice trials. Please let the experimenter know if you have any questions.</p>","key_press":32,"trial_type":"html-keyboard-response","trial_index":9,"time_elapsed":2438645,"internal_node_id":"0.0-9.0","match_key":"a","participant_id":"COGS219_2020_27"},{"rt":null,"stimulus":"Sounds/motorcycle_sound.wav","key_press":null,"block":0,"trial_type":"audio-keyboard-response","trial_index":10,"time_elapsed":2439841,"internal_node_id":"0.0-10.0-0.0","match_key":"a","participant_id":"COGS219_2020_27"},{"rt":null,"stimulus":"<p style=\"font-size: 48px;\">+</p>","key_press":null,"block":0,"trial_type":"html-keyboard-response","trial_index":11,"time_elapsed":2440841,"internal_node_id":"0.0-10.0-1.0","match_key":"a","participant_id":"COGS219_2020_27"},{"rt":889.6699999459088,"stimulus":"Images/motorcycle_2.png","key_press":65,"stim_onset":1582589633722,"block":0,"match_type":"match","image_category":"motorcycle","sound_category":"motorcycle","audio_type":"sound","phase":"practice","trial_type":"image-keyboard-response","trial_index":12,"time_elapsed":2441733,"internal_node_id":"0.0-10.0-2.0","match_key":"a","participant_id":"COGS219_2020_27","correct":true},{"rt":null,"stimulus":"Sounds/correct.wav","key_press":null,"block":0,"trial_type":"audio-keyboard-response","trial_index":13,"time_elapsed":2443740,"internal_node_id":"0.0-10.0-3.0","match_key":"a","participant_id":"COGS219_2020_27"},{"rt":null,"stimulus":"Sounds/gun_sound.wav","key_press":null,"block":0,"trial_type":"audio-keyboard-response","trial_index":14,"time_elapsed":2444321,"internal_node_id":"0.0-10.0-0.1","match_key":"a","participant_id":"COGS219_2020_27"},{"rt":null,"stimulus":"<p style=\"font-size: 48px;\">+</p>","key_press":null,"block":0,"trial_type":"html-keyboard-response","trial_index":15,"time_elapsed":2445325,"internal_node_id":"0.0-10.0-1.1","match_key":"a","participant_id":"COGS219_2020_27"},{"rt":438.7149999383837,"stimulus":"Images/gun_3.png","key_press":65,"stim_onset":1582589638205,"block":0,"match_type":"match","image_category":"gun","sound_category":"gun","audio_type":"sound","phase":"practice","trial_type":"image-keyboard-response","trial_index":16,"time_elapsed":2445765,"internal_node_id":"0.0-10.0-2.1","match_key":"a","participant_id":"COGS219_2020_27","correct":true},{"rt":null,"stimulus":"Sounds/correct.wav","key_press":null,"block":0,"trial_type":"audio-keyboard-response","trial_index":17,"time_elapsed":2447773,"internal_node_id":"0.0-10.0-3.1","match_key":"a","participant_id":"COGS219_2020_27"},{"rt":null,"stimulus":"Sounds/dog_label.wav","key_press":null,"block":0,"trial_type":"audio-keyboard-response","trial_index":18,"time_elapsed":2448441,"internal_node_id":"0.0-10.0-0.2","match_key":"a","participant_id":"COGS219_2020_27"},{"rt":null,"stimulus":"<p style=\"font-size: 48px;\">+</p>","key_press":null,"block":0,"trial_type":"html-keyboard-response","trial_index":19,"time_elapsed":2449458,"internal_node_id":"0.0-10.0-1.2","match_key":"a","participant_id":"COGS219_2020_27"},{"rt":649.5300000533462,"stimulus":"Images/dog_1.png","key_press":65,"stim_onset":1582589642338,"block":0,"match_type":"match","image_category":"dog","sound_category":"dog","audio_type":"label","phase":"practice","trial_type":"image-keyboard-response","trial_index":20,"time_elapsed":2450109,"internal_node_id":"0.0-10.0-2.2","match_key":"a","participant_id":"COGS219_2020_27","correct":true},{"rt":null,"stimulus":"Sounds/correct.wav","key_press":null,"block":0,"trial_type":"audio-keyboard-response","trial_index":21,"time_elapsed":2452122,"internal_node_id":"0.0-10.0-3.2","match_key":"a","participant_id":"COGS219_2020_27"},{"rt":null,"stimulus":"Sounds/motorcycle_label.wav","key_press":null,"block":0,"trial_type":"audio-keyboard-response","trial_index":22,"time_elapsed":2453261,"internal_node_id":"0.0-10.0-0.3","match_key":"a","participant_id":"COGS219_2020_27"},{"rt":null,"stimulus":"<p style=\"font-size: 48px;\">+</p>","key_press":null,"block":0,"trial_type":"html-keyboard-response","trial_index":23,"time_elapsed":2454258,"internal_node_id":"0.0-10.0-1.3","match_key":"a","participant_id":"COGS219_2020_27"},{"rt":665.404999977909,"stimulus":"Images/motorcycle_cartoon.png","key_press":65,"stim_onset":1582589647138,"block":0,"match_type":"match","image_category":"motorcycle","sound_category":"motorcycle","audio_type":"label","phase":"practice","trial_type":"image-keyboard-response","trial_index":24,"time_elapsed":2454925,"internal_node_id":"0.0-10.0-2.3","match_key":"a","participant_id":"COGS219_2020_27","correct":true},{"rt":null,"stimulus":"Sounds/correct.wav","key_press":null,"block":0,"trial_type":"audio-keyboard-response","trial_index":25,"time_elapsed":2456941,"internal_node_id":"0.0-10.0-3.3","match_key":"a","participant_id":"COGS219_2020_27"},{"rt":null,"stimulus":"Sounds/cow_label.wav","key_press":null,"block":0,"trial_type":"audio-keyboard-response","trial_index":26,"time_elapsed":2457961,"internal_node_id":"0.0-10.0-0.4","match_key":"a","participant_id":"COGS219_2020_27"},{"rt":null,"stimulus":"<p style=\"font-size: 48px;\">+</p>","key_press":null,"block":0,"trial_type":"html-keyboard-response","trial_index":27,"time_elapsed":2458958,"internal_node_id":"0.0-10.0-1.4","match_key":"a","participant_id":"COGS219_2020_27"},{"rt":629.6399999409914,"stimulus":"Images/train_1.png","key_press":76,"stim_onset":1582589651838,"block":0,"match_type":"non-match","image_category":"train","sound_category":"cow","audio_type":"label","phase":"practice","trial_type":"image-keyboard-response","trial_index":28,"time_elapsed":2459589,"internal_node_id":"0.0-10.0-2.4","match_key":"a","participant_id":"COGS219_2020_27","correct":true},{"rt":null,"stimulus":"Sounds/correct.wav","key_press":null,"block":0,"trial_type":"audio-keyboard-response","trial_index":29,"time_elapsed":2461592,"internal_node_id":"0.0-10.0-3.4","match_key":"a","participant_id":"COGS219_2020_27"},{"rt":null,"stimulus":"Sounds/rooster_label.wav","key_press":null,"block":0,"trial_type":"audio-keyboard-response","trial_index":30,"time_elapsed":2462281,"internal_node_id":"0.0-10.0-0.5","match_key":"a","participant_id":"COGS219_2020_27"},{"rt":null,"stimulus":"<p style=\"font-size: 48px;\">+</p>","key_press":null,"block":0,"trial_type":"html-keyboard-response","trial_index":31,"time_elapsed":2463275,"internal_node_id":"0.0-10.0-1.5","match_key":"a","participant_id":"COGS219_2020_27"},{"rt":512.5749999424443,"stimulus":"Images/rooster_orig.png","key_press":65,"stim_onset":1582589656155,"block":0,"match_type":"match","image_category":"rooster","sound_category":"rooster","audio_type":"label","phase":"practice","trial_type":"image-keyboard-response","trial_index":32,"time_elapsed":2463789,"internal_node_id":"0.0-10.0-2.5","match_key":"a","participant_id":"COGS219_2020_27","correct":true},{"rt":null,"stimulus":"Sounds/correct.wav","key_press":null,"block":0,"trial_type":"audio-keyboard-response","trial_index":33,"time_elapsed":2465801,"internal_node_id":"0.0-10.0-3.5","match_key":"a","participant_id":"COGS219_2020_27"},{"rt":null,"stimulus":"Sounds/frog_label.wav","key_press":null,"block":0,"trial_type":"audio-keyboard-response","trial_index":34,"time_elapsed":2466701,"internal_node_id":"0.0-10.0-0.6","match_key":"a","participant_id":"COGS219_2020_27"},{"rt":null,"stimulus":"<p style=\"font-size: 48px;\">+</p>","key_press":null,"block":0,"trial_type":"html-keyboard-response","trial_index":35,"time_elapsed":2467692,"internal_node_id":"0.0-10.0-1.6","match_key":"a","participant_id":"COGS219_2020_27"},{"rt":504.11500001791865,"stimulus":"Images/frog_2.png","key_press":65,"stim_onset":1582589660572,"block":0,"match_type":"match","image_category":"frog","sound_category":"frog","audio_type":"label","phase":"practice","trial_type":"image-keyboard-response","trial_index":36,"time_elapsed":2468197,"internal_node_id":"0.0-10.0-2.6","match_key":"a","participant_id":"COGS219_2020_27","correct":true},{"rt":null,"stimulus":"Sounds/correct.wav","key_press":null,"block":0,"trial_type":"audio-keyboard-response","trial_index":37,"time_elapsed":2470202,"internal_node_id":"0.0-10.0-3.6","match_key":"a","participant_id":"COGS219_2020_27"},{"rt":null,"stimulus":"Sounds/rooster_sound.wav","key_press":null,"block":0,"trial_type":"audio-keyboard-response","trial_index":38,"time_elapsed":2470901,"internal_node_id":"0.0-10.0-0.7","match_key":"a","participant_id":"COGS219_2020_27"},{"rt":null,"stimulus":"<p style=\"font-size: 48px;\">+</p>","key_press":null,"block":0,"trial_type":"html-keyboard-response","trial_index":39,"time_elapsed":2471892,"internal_node_id":"0.0-10.0-1.7","match_key":"a","participant_id":"COGS219_2020_27"},{"rt":648.1950000161305,"stimulus":"Images/car_orig.png","key_press":76,"stim_onset":1582589664772,"block":0,"match_type":"non-match","image_category":"car","sound_category":"rooster","audio_type":"sound","phase":"practice","trial_type":"image-keyboard-response","trial_index":40,"time_elapsed":2472541,"internal_node_id":"0.0-10.0-2.7","match_key":"a","participant_id":"COGS219_2020_27","correct":true},{"rt":null,"stimulus":"Sounds/correct.wav","key_press":null,"block":0,"trial_type":"audio-keyboard-response","trial_index":41,"time_elapsed":2474558,"internal_node_id":"0.0-10.0-3.7","match_key":"a","participant_id":"COGS219_2020_27"},{"rt":null,"stimulus":"Sounds/car_sound.wav","key_press":null,"block":0,"trial_type":"audio-keyboard-response","trial_index":42,"time_elapsed":2475641,"internal_node_id":"0.0-10.0-0.8","match_key":"a","participant_id":"COGS219_2020_27"},{"rt":null,"stimulus":"<p style=\"font-size: 48px;\">+</p>","key_press":null,"block":0,"trial_type":"html-keyboard-response","trial_index":43,"time_elapsed":2476658,"internal_node_id":"0.0-10.0-1.8","match_key":"a","participant_id":"COGS219_2020_27"},{"rt":1145.0999999651685,"stimulus":"Images/car_cartoon.png","key_press":76,"stim_onset":1582589669538,"block":0,"match_type":"match","image_category":"car","sound_category":"car","audio_type":"sound","phase":"practice","trial_type":"image-keyboard-response","trial_index":44,"time_elapsed":2477805,"internal_node_id":"0.0-10.0-2.8","match_key":"a","participant_id":"COGS219_2020_27","correct":false},{"rt":null,"stimulus":"Sounds/incorrect.wav","key_press":null,"block":0,"trial_type":"audio-keyboard-response","trial_index":45,"time_elapsed":2479820,"internal_node_id":"0.0-10.0-3.8","match_key":"a","participant_id":"COGS219_2020_27"},{"rt":null,"stimulus":"Sounds/cat_label.wav","key_press":null,"block":0,"trial_type":"audio-keyboard-response","trial_index":46,"time_elapsed":2480661,"internal_node_id":"0.0-10.0-0.9","match_key":"a","participant_id":"COGS219_2020_27"},{"rt":null,"stimulus":"<p style=\"font-size: 48px;\">+</p>","key_press":null,"block":0,"trial_type":"html-keyboard-response","trial_index":47,"time_elapsed":2481658,"internal_node_id":"0.0-10.0-1.9","match_key":"a","participant_id":"COGS219_2020_27"},{"rt":753.3299999777228,"stimulus":"Images/car_1.png","key_press":76,"stim_onset":1582589674538,"block":0,"match_type":"non-match","image_category":"car","sound_category":"cat","audio_type":"label","phase":"practice","trial_type":"image-keyboard-response","trial_index":48,"time_elapsed":2482413,"internal_node_id":"0.0-10.0-2.9","match_key":"a","participant_id":"COGS219_2020_27","correct":true},{"rt":null,"stimulus":"Sounds/correct.wav","key_press":null,"block":0,"trial_type":"audio-keyboard-response","trial_index":49,"time_elapsed":2484417,"internal_node_id":"0.0-10.0-3.9","match_key":"a","participant_id":"COGS219_2020_27"},{"rt":88172.14500007685,"stimulus":"<p>The rest of the experiment is divided into five blocks with 100 trials in each block. It will take about 45 minutes to complete.</p><p>The experimenter will be in the outer room and you can communicate with them through the monitor if you have any questions or wish to stop the experiment.</p>","key_press":32,"trial_type":"html-keyboard-response","trial_index":50,"time_elapsed":2572598,"internal_node_id":"0.0-11.0","match_key":"a","participant_id":"COGS219_2020_27"},{"rt":2429.8849999904633,"stimulus":"<p>Remember, please try not to move or blink your eyes during the presentation of the images. </p><p>At the end of the experiment, we will show you your scores on the task so you can see how you did.</p><p>The experiment will start on the next screen.</p>","key_press":32,"trial_type":"html-keyboard-response","trial_index":51,"time_elapsed":2575016,"internal_node_id":"0.0-12.0","match_key":"a","participant_id":"COGS219_2020_27"},{"rt":null,"stimulus":"Sounds/dog_sound.wav","key_press":null,"block":1,"trial_type":"audio-keyboard-response","trial_index":52,"time_elapsed":2577759,"internal_node_id":"0.0-13.0-0.0","match_key":"a","participant_id":"COGS219_2020_27"},{"rt":null,"stimulus":"<p style=\"font-size: 48px;\">+</p>","key_press":null,"block":1,"trial_type":"html-keyboard-response","trial_index":53,"time_elapsed":2578755,"internal_node_id":"0.0-13.0-1.0","match_key":"a","participant_id":"COGS219_2020_27"},{"rt":612.1350000612438,"stimulus":"Images/dog_1.png","key_press":65,"stim_onset":1582589771635,"block":1,"match_type":"match","image_category":"dog","sound_category":"dog","audio_type":"sound","phase":"test","trial_type":"image-keyboard-response","trial_index":54,"time_elapsed":2579368,"internal_node_id":"0.0-13.0-2.0","match_key":"a","participant_id":"COGS219_2020_27","correct":true},{"rt":null,"stimulus":"Sounds/correct.wav","key_press":null,"block":1,"trial_type":"audio-keyboard-response","trial_index":55,"time_elapsed":2581375,"internal_node_id":"0.0-13.0-3.0","match_key":"a","participant_id":"COGS219_2020_27"},{"rt":null,"stimulus":"Sounds/frog_label.wav","key_press":null,"block":1,"trial_type":"audio-keyboard-response","trial_index":56,"time_elapsed":2582280,"internal_node_id":"0.0-13.0-0.1","match_key":"a","participant_id":"COGS219_2020_27"},{"rt":null,"stimulus":"<p style=\"font-size: 48px;\">+</p>","key_press":null,"block":1,"trial_type":"html-keyboard-response","trial_index":57,"time_elapsed":2583271,"internal_node_id":"0.0-13.0-1.1","match_key":"a","participant_id":"COGS219_2020_27"},{"rt":831.815000041388,"stimulus":"Images/gun_orig.png","key_press":76,"stim_onset":1582589776151,"block":1,"match_type":"non-match","image_category":"gun","sound_category":"frog","audio_type":"label","phase":"test","trial_type":"image-keyboard-response","trial_index":58,"time_elapsed":2584104,"internal_node_id":"0.0-13.0-2.1","match_key":"a","participant_id":"COGS219_2020_27","correct":true},{"rt":null,"stimulus":"Sounds/correct.wav","key_press":null,"block":1,"trial_type":"audio-keyboard-response","trial_index":59,"time_elapsed":2586108,"internal_node_id":"0.0-13.0-3.1","match_key":"a","participant_id":"COGS219_2020_27"},{"rt":null,"stimulus":"Sounds/cow_sound.wav","key_press":null,"block":1,"trial_type":"audio-keyboard-response","trial_index":60,"time_elapsed":2587119,"internal_node_id":"0.0-13.0-0.2","match_key":"a","participant_id":"COGS219_2020_27"},{"rt":null,"stimulus":"<p style=\"font-size: 48px;\">+</p>","key_press":null,"block":1,"trial_type":"html-keyboard-response","trial_index":61,"time_elapsed":2588121,"internal_node_id":"0.0-13.0-1.2","match_key":"a","participant_id":"COGS219_2020_27"},{"rt":717.4600000726059,"stimulus":"Images/cow_3.png","key_press":65,"stim_onset":1582589781001,"block":1,"match_type":"match","image_category":"cow","sound_category":"cow","audio_type":"sound","phase":"test","trial_type":"image-keyboard-response","trial_index":62,"time_elapsed":2588840,"internal_node_id":"0.0-13.0-2.2","match_key":"a","participant_id":"COGS219_2020_27","correct":true},{"rt":null,"stimulus":"Sounds/correct.wav","key_press":null,"block":1,"trial_type":"audio-keyboard-response","trial_index":63,"time_elapsed":2590849,"internal_node_id":"0.0-13.0-3.2","match_key":"a","participant_id":"COGS219_2020_27"},{"rt":null,"stimulus":"Sounds/train_sound.wav","key_press":null,"block":1,"trial_type":"audio-keyboard-response","trial_index":64,"time_elapsed":2592138,"internal_node_id":"0.0-13.0-0.3","match_key":"a","participant_id":"COGS219_2020_27"},{"rt":null,"stimulus":"<p style=\"font-size: 48px;\">+</p>","key_press":null,"block":1,"trial_type":"html-keyboard-response","trial_index":65,"time_elapsed":2593138,"internal_node_id":"0.0-13.0-1.3","match_key":"a","participant_id":"COGS219_2020_27"},{"rt":612.0599999558181,"stimulus":"Images/train_orig.png","key_press":65,"stim_onset":1582589786018,"block":1,"match_type":"match","image_category":"train","sound_category":"train","audio_type":"sound","phase":"test","trial_type":"image-keyboard-response","trial_index":66,"time_elapsed":2593752,"internal_node_id":"0.0-13.0-2.3","match_key":"a","participant_id":"COGS219_2020_27","correct":true},{"rt":null,"stimulus":"Sounds/correct.wav","key_press":null,"block":1,"trial_type":"audio-keyboard-response","trial_index":67,"time_elapsed":2595760,"internal_node_id":"0.0-13.0-3.3","match_key":"a","participant_id":"COGS219_2020_27"},{"rt":null,"stimulus":"Sounds/dog_label.wav","key_press":null,"block":1,"trial_type":"audio-keyboard-response","trial_index":68,"time_elapsed":2596419,"internal_node_id":"0.0-13.0-0.4","match_key":"a","participant_id":"COGS219_2020_27"},{"rt":null,"stimulus":"<p style=\"font-size: 48px;\">+</p>","key_press":null,"block":1,"trial_type":"html-keyboard-response","trial_index":69,"time_elapsed":2597421,"internal_node_id":"0.0-13.0-1.4","match_key":"a","participant_id":"COGS219_2020_27"},{"rt":537.6399999950081,"stimulus":"Images/rooster_3.png","key_press":76,"stim_onset":1582589790302,"block":1,"match_type":"non-match","image_category":"rooster","sound_category":"dog","audio_type":"label","phase":"test","trial_type":"image-keyboard-response","trial_index":70,"time_elapsed":2597960,"internal_node_id":"0.0-13.0-2.4","match_key":"a","participant_id":"COGS219_2020_27","correct":true},{"rt":null,"stimulus":"Sounds/correct.wav","key_press":null,"block":1,"trial_type":"audio-keyboard-response","trial_index":71,"time_elapsed":2599964,"internal_node_id":"0.0-13.0-3.4","match_key":"a","participant_id":"COGS219_2020_27"},{"rt":null,"stimulus":"Sounds/car_sound.wav","key_press":null,"block":1,"trial_type":"audio-keyboard-response","trial_index":72,"time_elapsed":2601038,"internal_node_id":"0.0-13.0-0.5","match_key":"a","participant_id":"COGS219_2020_27"},{"rt":null,"stimulus":"<p style=\"font-size: 48px;\">+</p>","key_press":null,"block":1,"trial_type":"html-keyboard-response","trial_index":73,"time_elapsed":2602038,"internal_node_id":"0.0-13.0-1.5","match_key":"a","participant_id":"COGS219_2020_27"},{"rt":753.0199999455363,"stimulus":"Images/gun_3.png","key_press":76,"stim_onset":1582589794918,"block":1,"match_type":"non-match","image_category":"gun","sound_category":"car","audio_type":"sound","phase":"test","trial_type":"image-keyboard-response","trial_index":74,"time_elapsed":2602792,"internal_node_id":"0.0-13.0-2.5","match_key":"a","participant_id":"COGS219_2020_27","correct":true},{"rt":null,"stimulus":"Sounds/correct.wav","key_press":null,"block":1,"trial_type":"audio-keyboard-response","trial_index":75,"time_elapsed":2604797,"internal_node_id":"0.0-13.0-3.5","match_key":"a","participant_id":"COGS219_2020_27"},{"rt":null,"stimulus":"Sounds/gun_sound.wav","key_press":null,"block":1,"trial_type":"audio-keyboard-response","trial_index":76,"time_elapsed":2605378,"internal_node_id":"0.0-13.0-0.6","match_key":"a","participant_id":"COGS219_2020_27"},{"rt":null,"stimulus":"<p style=\"font-size: 48px;\">+</p>","key_press":null,"block":1,"trial_type":"html-keyboard-response","trial_index":77,"time_elapsed":2606372,"internal_node_id":"0.0-13.0-1.6","match_key":"a","participant_id":"COGS219_2020_27"},{"rt":635.1200001081452,"stimulus":"Images/gun_3.png","key_press":65,"stim_onset":1582589799252,"block":1,"match_type":"match","image_category":"gun","sound_category":"gun","audio_type":"sound","phase":"test","trial_type":"image-keyboard-response","trial_index":78,"time_elapsed":2607008,"internal_node_id":"0.0-13.0-2.6","match_key":"a","participant_id":"COGS219_2020_27","correct":true},{"rt":null,"stimulus":"Sounds/correct.wav","key_press":null,"block":1,"trial_type":"audio-keyboard-response","trial_index":79,"time_elapsed":2609022,"internal_node_id":"0.0-13.0-3.6","match_key":"a","participant_id":"COGS219_2020_27"},{"rt":null,"stimulus":"Sounds/dog_label.wav","key_press":null,"block":1,"trial_type":"audio-keyboard-response","trial_index":80,"time_elapsed":2609659,"internal_node_id":"0.0-13.0-0.7","match_key":"a","participant_id":"COGS219_2020_27"},{"rt":null,"stimulus":"<p style=\"font-size: 48px;\">+</p>","key_press":null,"block":1,"trial_type":"html-keyboard-response","trial_index":81,"time_elapsed":2610655,"internal_node_id":"0.0-13.0-1.7","match_key":"a","participant_id":"COGS219_2020_27"},{"rt":560.204999987036,"stimulus":"Images/dog_3.png","key_press":65,"stim_onset":1582589803535,"block":1,"match_type":"match","image_category":"dog","sound_category":"dog","audio_type":"label","phase":"test","trial_type":"image-keyboard-response","trial_index":82,"time_elapsed":2611216,"internal_node_id":"0.0-13.0-2.7","match_key":"a","participant_id":"COGS219_2020_27","correct":true},{"rt":null,"stimulus":"Sounds/correct.wav","key_press":null,"block":1,"trial_type":"audio-keyboard-response","trial_index":83,"time_elapsed":2613229,"internal_node_id":"0.0-13.0-3.7","match_key":"a","participant_id":"COGS219_2020_27"},{"rt":null,"stimulus":"Sounds/rooster_sound.wav","key_press":null,"block":1,"trial_type":"audio-keyboard-response","trial_index":84,"time_elapsed":2613919,"internal_node_id":"0.0-13.0-0.8","match_key":"a","participant_id":"COGS219_2020_27"},{"rt":null,"stimulus":"<p style=\"font-size: 48px;\">+</p>","key_press":null,"block":1,"trial_type":"html-keyboard-response","trial_index":85,"time_elapsed":2614922,"internal_node_id":"0.0-13.0-1.8","match_key":"a","participant_id":"COGS219_2020_27"},{"rt":629.079999984242,"stimulus":"Images/rooster_1.png","key_press":65,"stim_onset":1582589807802,"block":1,"match_type":"match","image_category":"rooster","sound_category":"rooster","audio_type":"sound","phase":"test","trial_type":"image-keyboard-response","trial_index":86,"time_elapsed":2615552,"internal_node_id":"0.0-13.0-2.8","match_key":"a","participant_id":"COGS219_2020_27","correct":true},{"rt":null,"stimulus":"Sounds/correct.wav","key_press":null,"block":1,"trial_type":"audio-keyboard-response","trial_index":87,"time_elapsed":2617555,"internal_node_id":"0.0-13.0-3.8","match_key":"a","participant_id":"COGS219_2020_27"},{"rt":null,"stimulus":"Sounds/motorcycle_label.wav","key_press":null,"block":1,"trial_type":"audio-keyboard-response","trial_index":88,"time_elapsed":2618698,"internal_node_id":"0.0-13.0-0.9","match_key":"a","participant_id":"COGS219_2020_27"},{"rt":null,"stimulus":"<p style=\"font-size: 48px;\">+</p>","key_press":null,"block":1,"trial_type":"html-keyboard-response","trial_index":89,"time_elapsed":2619688,"internal_node_id":"0.0-13.0-1.9","match_key":"a","participant_id":"COGS219_2020_27"},{"rt":678.7300000432879,"stimulus":"Images/cow_3.png","key_press":76,"stim_onset":1582589812568,"block":1,"match_type":"non-match","image_category":"cow","sound_category":"motorcycle","audio_type":"label","phase":"test","trial_type":"image-keyboard-response","trial_index":90,"time_elapsed":2620368,"internal_node_id":"0.0-13.0-2.9","match_key":"a","participant_id":"COGS219_2020_27","correct":true},{"rt":null,"stimulus":"Sounds/correct.wav","key_press":null,"block":1,"trial_type":"audio-keyboard-response","trial_index":91,"time_elapsed":2622370,"internal_node_id":"0.0-13.0-3.9","match_key":"a","participant_id":"COGS219_2020_27"},{"rt":null,"stimulus":"Sounds/rooster_sound.wav","key_press":null,"block":1,"trial_type":"audio-keyboard-response","trial_index":92,"time_elapsed":2623038,"internal_node_id":"0.0-13.0-0.10","match_key":"a","participant_id":"COGS219_2020_27"},{"rt":null,"stimulus":"<p style=\"font-size: 48px;\">+</p>","key_press":null,"block":1,"trial_type":"html-keyboard-response","trial_index":93,"time_elapsed":2624038,"internal_node_id":"0.0-13.0-1.10","match_key":"a","participant_id":"COGS219_2020_27"},{"rt":800.9150000289083,"stimulus":"Images/train_3.png","key_press":76,"stim_onset":1582589816918,"block":1,"match_type":"non-match","image_category":"train","sound_category":"rooster","audio_type":"sound","phase":"test","trial_type":"image-keyboard-response","trial_index":94,"time_elapsed":2624840,"internal_node_id":"0.0-13.0-2.10","match_key":"a","participant_id":"COGS219_2020_27","correct":true},{"rt":null,"stimulus":"Sounds/correct.wav","key_press":null,"block":1,"trial_type":"audio-keyboard-response","trial_index":95,"time_elapsed":2626843,"internal_node_id":"0.0-13.0-3.10","match_key":"a","participant_id":"COGS219_2020_27"},{"rt":null,"stimulus":"Sounds/cat_sound.wav","key_press":null,"block":1,"trial_type":"audio-keyboard-response","trial_index":96,"time_elapsed":2627678,"internal_node_id":"0.0-13.0-0.11","match_key":"a","participant_id":"COGS219_2020_27"},{"rt":null,"stimulus":"<p style=\"font-size: 48px;\">+</p>","key_press":null,"block":1,"trial_type":"html-keyboard-response","trial_index":97,"time_elapsed":2628672,"internal_node_id":"0.0-13.0-1.11","match_key":"a","participant_id":"COGS219_2020_27"},{"rt":527.2400000831112,"stimulus":"Images/cat_orig.png","key_press":65,"stim_onset":1582589821552,"block":1,"match_type":"match","image_category":"cat","sound_category":"cat","audio_type":"sound","phase":"test","trial_type":"image-keyboard-response","trial_index":98,"time_elapsed":2629200,"internal_node_id":"0.0-13.0-2.11","match_key":"a","participant_id":"COGS219_2020_27","correct":true},{"rt":null,"stimulus":"Sounds/correct.wav","key_press":null,"block":1,"trial_type":"audio-keyboard-response","trial_index":99,"time_elapsed":2631215,"internal_node_id":"0.0-13.0-3.11","match_key":"a","participant_id":"COGS219_2020_27"},{"rt":null,"stimulus":"Sounds/frog_label.wav","key_press":null,"block":1,"trial_type":"audio-keyboard-response","trial_index":100,"time_elapsed":2632118,"internal_node_id":"0.0-13.0-0.12","match_key":"a","participant_id":"COGS219_2020_27"},{"rt":null,"stimulus":"<p style=\"font-size: 48px;\">+</p>","key_press":null,"block":1,"trial_type":"html-keyboard-response","trial_index":101,"time_elapsed":2633122,"internal_node_id":"0.0-13.0-1.12","match_key":"a","participant_id":"COGS219_2020_27"},{"rt":469.26499996334314,"stimulus":"Images/frog_orig.png","key_press":65,"stim_onset":1582589826002,"block":1,"match_type":"match","image_category":"frog","sound_category":"frog","audio_type":"label","phase":"test","trial_type":"image-keyboard-response","trial_index":102,"time_elapsed":2633592,"internal_node_id":"0.0-13.0-2.12","match_key":"a","participant_id":"COGS219_2020_27","correct":true},{"rt":null,"stimulus":"Sounds/correct.wav","key_press":null,"block":1,"trial_type":"audio-keyboard-response","trial_index":103,"time_elapsed":2635615,"internal_node_id":"0.0-13.0-3.12","match_key":"a","participant_id":"COGS219_2020_27"},{"rt":null,"stimulus":"Sounds/dog_sound.wav","key_press":null,"block":1,"trial_type":"audio-keyboard-response","trial_index":104,"time_elapsed":2636332,"internal_node_id":"0.0-13.0-0.13","match_key":"a","participant_id":"COGS219_2020_27"},{"rt":null,"stimulus":"<p style=\"font-size: 48px;\">+</p>","key_press":null,"block":1,"trial_type":"html-keyboard-response","trial_index":105,"time_elapsed":2637335,"internal_node_id":"0.0-13.0-1.13","match_key":"a","participant_id":"COGS219_2020_27"},{"rt":477.1249999757856,"stimulus":"Images/car_1.png","key_press":76,"stim_onset":1582589830215,"block":1,"match_type":"non-match","image_category":"car","sound_category":"dog","audio_type":"sound","phase":"test","trial_type":"image-keyboard-response","trial_index":106,"time_elapsed":2637813,"internal_node_id":"0.0-13.0-2.13","match_key":"a","participant_id":"COGS219_2020_27","correct":true},{"rt":null,"stimulus":"Sounds/correct.wav","key_press":null,"block":1,"trial_type":"audio-keyboard-response","trial_index":107,"time_elapsed":2639830,"internal_node_id":"0.0-13.0-3.13","match_key":"a","participant_id":"COGS219_2020_27"},{"rt":null,"stimulus":"Sounds/train_label.wav","key_press":null,"block":1,"trial_type":"audio-keyboard-response","trial_index":108,"time_elapsed":2641112,"internal_node_id":"0.0-13.0-0.14","match_key":"a","participant_id":"COGS219_2020_27"},{"rt":null,"stimulus":"<p style=\"font-size: 48px;\">+</p>","key_press":null,"block":1,"trial_type":"html-keyboard-response","trial_index":109,"time_elapsed":2642102,"internal_node_id":"0.0-13.0-1.14","match_key":"a","participant_id":"COGS219_2020_27"},{"rt":654.3599999276921,"stimulus":"Images/dog_orig.png","key_press":76,"stim_onset":1582589834982,"block":1,"match_type":"non-match","image_category":"dog","sound_category":"train","audio_type":"label","phase":"test","trial_type":"image-keyboard-response","trial_index":110,"time_elapsed":2642757,"internal_node_id":"0.0-13.0-2.14","match_key":"a","participant_id":"COGS219_2020_27","correct":true},{"rt":null,"stimulus":"Sounds/correct.wav","key_press":null,"block":1,"trial_type":"audio-keyboard-response","trial_index":111,"time_elapsed":2644769,"internal_node_id":"0.0-13.0-3.14","match_key":"a","participant_id":"COGS219_2020_27"},{"rt":null,"stimulus":"Sounds/motorcycle_label.wav","key_press":null,"block":1,"trial_type":"audio-keyboard-response","trial_index":112,"time_elapsed":2645912,"internal_node_id":"0.0-13.0-0.15","match_key":"a","participant_id":"COGS219_2020_27"},{"rt":null,"stimulus":"<p style=\"font-size: 48px;\">+</p>","key_press":null,"block":1,"trial_type":"html-keyboard-response","trial_index":113,"time_elapsed":2646902,"internal_node_id":"0.0-13.0-1.15","match_key":"a","participant_id":"COGS219_2020_27"},{"rt":438.1349999457598,"stimulus":"Images/motorcycle_1.png","key_press":65,"stim_onset":1582589839782,"block":1,"match_type":"match","image_category":"motorcycle","sound_category":"motorcycle","audio_type":"label","phase":"test","trial_type":"image-keyboard-response","trial_index":114,"time_elapsed":2647341,"internal_node_id":"0.0-13.0-2.15","match_key":"a","participant_id":"COGS219_2020_27","correct":true},{"rt":null,"stimulus":"Sounds/correct.wav","key_press":null,"block":1,"trial_type":"audio-keyboard-response","trial_index":115,"time_elapsed":2649353,"internal_node_id":"0.0-13.0-3.15","match_key":"a","participant_id":"COGS219_2020_27"},{"rt":null,"stimulus":"Sounds/gun_sound.wav","key_press":null,"block":1,"trial_type":"audio-keyboard-response","trial_index":116,"time_elapsed":2649932,"internal_node_id":"0.0-13.0-0.16","match_key":"a","participant_id":"COGS219_2020_27"},{"rt":null,"stimulus":"<p style=\"font-size: 48px;\">+</p>","key_press":null,"block":1,"trial_type":"html-keyboard-response","trial_index":117,"time_elapsed":2650936,"internal_node_id":"0.0-13.0-1.16","match_key":"a","participant_id":"COGS219_2020_27"},{"rt":605.1050000824034,"stimulus":"Images/motorcycle_1.png","key_press":76,"stim_onset":1582589843816,"block":1,"match_type":"non-match","image_category":"motorcycle","sound_category":"gun","audio_type":"sound","phase":"test","trial_type":"image-keyboard-response","trial_index":118,"time_elapsed":2651542,"internal_node_id":"0.0-13.0-2.16","match_key":"a","participant_id":"COGS219_2020_27","correct":true},{"rt":null,"stimulus":"Sounds/correct.wav","key_press":null,"block":1,"trial_type":"audio-keyboard-response","trial_index":119,"time_elapsed":2653555,"internal_node_id":"0.0-13.0-3.16","match_key":"a","participant_id":"COGS219_2020_27"},{"rt":null,"stimulus":"Sounds/rooster_sound.wav","key_press":null,"block":1,"trial_type":"audio-keyboard-response","trial_index":120,"time_elapsed":2654252,"internal_node_id":"0.0-13.0-0.17","match_key":"a","participant_id":"COGS219_2020_27"},{"rt":null,"stimulus":"<p style=\"font-size: 48px;\">+</p>","key_press":null,"block":1,"trial_type":"html-keyboard-response","trial_index":121,"time_elapsed":2655252,"internal_node_id":"0.0-13.0-1.17","match_key":"a","participant_id":"COGS219_2020_27"},{"rt":688.1249999860302,"stimulus":"Images/dog_2.png","key_press":76,"stim_onset":1582589848132,"block":1,"match_type":"non-match","image_category":"dog","sound_category":"rooster","audio_type":"sound","phase":"test","trial_type":"image-keyboard-response","trial_index":122,"time_elapsed":2655941,"internal_node_id":"0.0-13.0-2.17","match_key":"a","participant_id":"COGS219_2020_27","correct":true},{"rt":null,"stimulus":"Sounds/correct.wav","key_press":null,"block":1,"trial_type":"audio-keyboard-response","trial_index":123,"time_elapsed":2657949,"internal_node_id":"0.0-13.0-3.17","match_key":"a","participant_id":"COGS219_2020_27"},{"rt":null,"stimulus":"Sounds/car_label.wav","key_press":null,"block":1,"trial_type":"audio-keyboard-response","trial_index":124,"time_elapsed":2659032,"internal_node_id":"0.0-13.0-0.18","match_key":"a","participant_id":"COGS219_2020_27"},{"rt":null,"stimulus":"<p style=\"font-size: 48px;\">+</p>","key_press":null,"block":1,"trial_type":"html-keyboard-response","trial_index":125,"time_elapsed":2660036,"internal_node_id":"0.0-13.0-1.18","match_key":"a","participant_id":"COGS219_2020_27"},{"rt":592.9000000469387,"stimulus":"Images/train_orig.png","key_press":76,"stim_onset":1582589852916,"block":1,"match_type":"non-match","image_category":"train","sound_category":"car","audio_type":"label","phase":"test","trial_type":"image-keyboard-response","trial_index":126,"time_elapsed":2660629,"internal_node_id":"0.0-13.0-2.18","match_key":"a","participant_id":"COGS219_2020_27","correct":true},{"rt":null,"stimulus":"Sounds/correct.wav","key_press":null,"block":1,"trial_type":"audio-keyboard-response","trial_index":127,"time_elapsed":2662640,"internal_node_id":"0.0-13.0-3.18","match_key":"a","participant_id":"COGS219_2020_27"},{"rt":null,"stimulus":"Sounds/whistle_label.wav","key_press":null,"block":1,"trial_type":"audio-keyboard-response","trial_index":128,"time_elapsed":2663332,"internal_node_id":"0.0-13.0-0.19","match_key":"a","participant_id":"COGS219_2020_27"},{"rt":null,"stimulus":"<p style=\"font-size: 48px;\">+</p>","key_press":null,"block":1,"trial_type":"html-keyboard-response","trial_index":129,"time_elapsed":2664336,"internal_node_id":"0.0-13.0-1.19","match_key":"a","participant_id":"COGS219_2020_27"},{"rt":724.8250000411645,"stimulus":"Images/whistle_orig.png","key_press":65,"stim_onset":1582589857216,"block":1,"match_type":"match","image_category":"whistle","sound_category":"whistle","audio_type":"label","phase":"test","trial_type":"image-keyboard-response","trial_index":130,"time_elapsed":2665062,"internal_node_id":"0.0-13.0-2.19","match_key":"a","participant_id":"COGS219_2020_27","correct":true},{"rt":null,"stimulus":"Sounds/correct.wav","key_press":null,"block":1,"trial_type":"audio-keyboard-response","trial_index":131,"time_elapsed":2667079,"internal_node_id":"0.0-13.0-3.19","match_key":"a","participant_id":"COGS219_2020_27"},{"rt":null,"stimulus":"Sounds/cat_sound.wav","key_press":null,"block":1,"trial_type":"audio-keyboard-response","trial_index":132,"time_elapsed":2667912,"internal_node_id":"0.0-13.0-0.20","match_key":"a","participant_id":"COGS219_2020_27"},{"rt":null,"stimulus":"<p style=\"font-size: 48px;\">+</p>","key_press":null,"block":1,"trial_type":"html-keyboard-response","trial_index":133,"time_elapsed":2668902,"internal_node_id":"0.0-13.0-1.20","match_key":"a","participant_id":"COGS219_2020_27"},{"rt":574.0000000223517,"stimulus":"Images/cat_1.png","key_press":65,"stim_onset":1582589861783,"block":1,"match_type":"match","image_category":"cat","sound_category":"cat","audio_type":"sound","phase":"test","trial_type":"image-keyboard-response","trial_index":134,"time_elapsed":2669477,"internal_node_id":"0.0-13.0-2.20","match_key":"a","participant_id":"COGS219_2020_27","correct":true},{"rt":null,"stimulus":"Sounds/correct.wav","key_press":null,"block":1,"trial_type":"audio-keyboard-response","trial_index":135,"time_elapsed":2671481,"internal_node_id":"0.0-13.0-3.20","match_key":"a","participant_id":"COGS219_2020_27"},{"rt":null,"stimulus":"Sounds/motorcycle_label.wav","key_press":null,"block":1,"trial_type":"audio-keyboard-response","trial_index":136,"time_elapsed":2672612,"internal_node_id":"0.0-13.0-0.21","match_key":"a","participant_id":"COGS219_2020_27"},{"rt":null,"stimulus":"<p style=\"font-size: 48px;\">+</p>","key_press":null,"block":1,"trial_type":"html-keyboard-response","trial_index":137,"time_elapsed":2673602,"internal_node_id":"0.0-13.0-1.21","match_key":"a","participant_id":"COGS219_2020_27"},{"rt":689.9800000246614,"stimulus":"Images/car_3.png","key_press":76,"stim_onset":1582589866483,"block":1,"match_type":"non-match","image_category":"car","sound_category":"motorcycle","audio_type":"label","phase":"test","trial_type":"image-keyboard-response","trial_index":138,"time_elapsed":2674293,"internal_node_id":"0.0-13.0-2.21","match_key":"a","participant_id":"COGS219_2020_27","correct":true},{"rt":null,"stimulus":"Sounds/correct.wav","key_press":null,"block":1,"trial_type":"audio-keyboard-response","trial_index":139,"time_elapsed":2676309,"internal_node_id":"0.0-13.0-3.21","match_key":"a","participant_id":"COGS219_2020_27"},{"rt":null,"stimulus":"Sounds/dog_sound.wav","key_press":null,"block":1,"trial_type":"audio-keyboard-response","trial_index":140,"time_elapsed":2677012,"internal_node_id":"0.0-13.0-0.22","match_key":"a","participant_id":"COGS219_2020_27"},{"rt":null,"stimulus":"<p style=\"font-size: 48px;\">+</p>","key_press":null,"block":1,"trial_type":"html-keyboard-response","trial_index":141,"time_elapsed":2678003,"internal_node_id":"0.0-13.0-1.22","match_key":"a","participant_id":"COGS219_2020_27"},{"rt":634.3249999918044,"stimulus":"Images/cat_1.png","key_press":76,"stim_onset":1582589870883,"block":1,"match_type":"non-match","image_category":"cat","sound_category":"dog","audio_type":"sound","phase":"test","trial_type":"image-keyboard-response","trial_index":142,"time_elapsed":2678638,"internal_node_id":"0.0-13.0-2.22","match_key":"a","participant_id":"COGS219_2020_27","correct":true},{"rt":null,"stimulus":"Sounds/correct.wav","key_press":null,"block":1,"trial_type":"audio-keyboard-response","trial_index":143,"time_elapsed":2680655,"internal_node_id":"0.0-13.0-3.22","match_key":"a","participant_id":"COGS219_2020_27"},{"rt":null,"stimulus":"Sounds/cow_label.wav","key_press":null,"block":1,"trial_type":"audio-keyboard-response","trial_index":144,"time_elapsed":2681672,"internal_node_id":"0.0-13.0-0.23","match_key":"a","participant_id":"COGS219_2020_27"},{"rt":null,"stimulus":"<p style=\"font-size: 48px;\">+</p>","key_press":null,"block":1,"trial_type":"html-keyboard-response","trial_index":145,"time_elapsed":2682669,"internal_node_id":"0.0-13.0-1.23","match_key":"a","participant_id":"COGS219_2020_27"},{"rt":653.1149999937043,"stimulus":"Images/cow_orig.png","key_press":65,"stim_onset":1582589875549,"block":1,"match_type":"match","image_category":"cow","sound_category":"cow","audio_type":"label","phase":"test","trial_type":"image-keyboard-response","trial_index":146,"time_elapsed":2683325,"internal_node_id":"0.0-13.0-2.23","match_key":"a","participant_id":"COGS219_2020_27","correct":true},{"rt":null,"stimulus":"Sounds/correct.wav","key_press":null,"block":1,"trial_type":"audio-keyboard-response","trial_index":147,"time_elapsed":2685335,"internal_node_id":"0.0-13.0-3.23","match_key":"a","participant_id":"COGS219_2020_27"},{"rt":null,"stimulus":"Sounds/car_label.wav","key_press":null,"block":1,"trial_type":"audio-keyboard-response","trial_index":148,"time_elapsed":2686412,"internal_node_id":"0.0-13.0-0.24","match_key":"a","participant_id":"COGS219_2020_27"},{"rt":null,"stimulus":"<p style=\"font-size: 48px;\">+</p>","key_press":null,"block":1,"trial_type":"html-keyboard-response","trial_index":149,"time_elapsed":2687403,"internal_node_id":"0.0-13.0-1.24","match_key":"a","participant_id":"COGS219_2020_27"},{"rt":688.8700000708923,"stimulus":"Images/cat_3.png","key_press":76,"stim_onset":1582589880283,"block":1,"match_type":"non-match","image_category":"cat","sound_category":"car","audio_type":"label","phase":"test","trial_type":"image-keyboard-response","trial_index":150,"time_elapsed":2688093,"internal_node_id":"0.0-13.0-2.24","match_key":"a","participant_id":"COGS219_2020_27","correct":true},{"rt":null,"stimulus":"Sounds/correct.wav","key_press":null,"block":1,"trial_type":"audio-keyboard-response","trial_index":151,"time_elapsed":2690105,"internal_node_id":"0.0-13.0-3.24","match_key":"a","participant_id":"COGS219_2020_27"},{"rt":null,"stimulus":"Sounds/cow_sound.wav","key_press":null,"block":1,"trial_type":"audio-keyboard-response","trial_index":152,"time_elapsed":2691112,"internal_node_id":"0.0-13.0-0.25","match_key":"a","participant_id":"COGS219_2020_27"},{"rt":null,"stimulus":"<p style=\"font-size: 48px;\">+</p>","key_press":null,"block":1,"trial_type":"html-keyboard-response","trial_index":153,"time_elapsed":2692103,"internal_node_id":"0.0-13.0-1.25","match_key":"a","participant_id":"COGS219_2020_27"},{"rt":550.0450000399724,"stimulus":"Images/rooster_cartoon.png","key_press":76,"stim_onset":1582589884983,"block":1,"match_type":"non-match","image_category":"rooster","sound_category":"cow","audio_type":"sound","phase":"test","trial_type":"image-keyboard-response","trial_index":154,"time_elapsed":2692654,"internal_node_id":"0.0-13.0-2.25","match_key":"a","participant_id":"COGS219_2020_27","correct":true},{"rt":null,"stimulus":"Sounds/correct.wav","key_press":null,"block":1,"trial_type":"audio-keyboard-response","trial_index":155,"time_elapsed":2694661,"internal_node_id":"0.0-13.0-3.25","match_key":"a","participant_id":"COGS219_2020_27"},{"rt":null,"stimulus":"Sounds/frog_sound.wav","key_press":null,"block":1,"trial_type":"audio-keyboard-response","trial_index":156,"time_elapsed":2695572,"internal_node_id":"0.0-13.0-0.26","match_key":"a","participant_id":"COGS219_2020_27"},{"rt":null,"stimulus":"<p style=\"font-size: 48px;\">+</p>","key_press":null,"block":1,"trial_type":"html-keyboard-response","trial_index":157,"time_elapsed":2696570,"internal_node_id":"0.0-13.0-1.26","match_key":"a","participant_id":"COGS219_2020_27"},{"rt":539.0749999787658,"stimulus":"Images/frog_cartoon.png","key_press":65,"stim_onset":1582589889450,"block":1,"match_type":"match","image_category":"frog","sound_category":"frog","audio_type":"sound","phase":"test","trial_type":"image-keyboard-response","trial_index":158,"time_elapsed":2697110,"internal_node_id":"0.0-13.0-2.26","match_key":"a","participant_id":"COGS219_2020_27","correct":true},{"rt":null,"stimulus":"Sounds/correct.wav","key_press":null,"block":1,"trial_type":"audio-keyboard-response","trial_index":159,"time_elapsed":2699127,"internal_node_id":"0.0-13.0-3.26","match_key":"a","participant_id":"COGS219_2020_27"},{"rt":null,"stimulus":"Sounds/motorcycle_label.wav","key_press":null,"block":1,"trial_type":"audio-keyboard-response","trial_index":160,"time_elapsed":2700273,"internal_node_id":"0.0-13.0-0.27","match_key":"a","participant_id":"COGS219_2020_27"},{"rt":null,"stimulus":"<p style=\"font-size: 48px;\">+</p>","key_press":null,"block":1,"trial_type":"html-keyboard-response","trial_index":161,"time_elapsed":2701270,"internal_node_id":"0.0-13.0-1.27","match_key":"a","participant_id":"COGS219_2020_27"},{"rt":654.9349999986589,"stimulus":"Images/motorcycle_3.png","key_press":76,"stim_onset":1582589894150,"block":1,"match_type":"match","image_category":"motorcycle","sound_category":"motorcycle","audio_type":"label","phase":"test","trial_type":"image-keyboard-response","trial_index":162,"time_elapsed":2701926,"internal_node_id":"0.0-13.0-2.27","match_key":"a","participant_id":"COGS219_2020_27","correct":false},{"rt":null,"stimulus":"Sounds/incorrect.wav","key_press":null,"block":1,"trial_type":"audio-keyboard-response","trial_index":163,"time_elapsed":2703943,"internal_node_id":"0.0-13.0-3.27","match_key":"a","participant_id":"COGS219_2020_27"},{"rt":null,"stimulus":"Sounds/cow_sound.wav","key_press":null,"block":1,"trial_type":"audio-keyboard-response","trial_index":164,"time_elapsed":2704933,"internal_node_id":"0.0-13.0-0.28","match_key":"a","participant_id":"COGS219_2020_27"},{"rt":null,"stimulus":"<p style=\"font-size: 48px;\">+</p>","key_press":null,"block":1,"trial_type":"html-keyboard-response","trial_index":165,"time_elapsed":2705937,"internal_node_id":"0.0-13.0-1.28","match_key":"a","participant_id":"COGS219_2020_27"},{"rt":604.2950000846758,"stimulus":"Images/dog_3.png","key_press":76,"stim_onset":1582589898817,"block":1,"match_type":"non-match","image_category":"dog","sound_category":"cow","audio_type":"sound","phase":"test","trial_type":"image-keyboard-response","trial_index":166,"time_elapsed":2706542,"internal_node_id":"0.0-13.0-2.28","match_key":"a","participant_id":"COGS219_2020_27","correct":true},{"rt":null,"stimulus":"Sounds/correct.wav","key_press":null,"block":1,"trial_type":"audio-keyboard-response","trial_index":167,"time_elapsed":2708556,"internal_node_id":"0.0-13.0-3.28","match_key":"a","participant_id":"COGS219_2020_27"},{"rt":null,"stimulus":"Sounds/motorcycle_label.wav","key_press":null,"block":1,"trial_type":"audio-keyboard-response","trial_index":168,"time_elapsed":2709673,"internal_node_id":"0.0-13.0-0.29","match_key":"a","participant_id":"COGS219_2020_27"},{"rt":null,"stimulus":"<p style=\"font-size: 48px;\">+</p>","key_press":null,"block":1,"trial_type":"html-keyboard-response","trial_index":169,"time_elapsed":2710670,"internal_node_id":"0.0-13.0-1.29","match_key":"a","participant_id":"COGS219_2020_27"},{"rt":638.7700000777841,"stimulus":"Images/gun_2.png","key_press":76,"stim_onset":1582589903550,"block":1,"match_type":"non-match","image_category":"gun","sound_category":"motorcycle","audio_type":"label","phase":"test","trial_type":"image-keyboard-response","trial_index":170,"time_elapsed":2711310,"internal_node_id":"0.0-13.0-2.29","match_key":"a","participant_id":"COGS219_2020_27","correct":true},{"rt":null,"stimulus":"Sounds/correct.wav","key_press":null,"block":1,"trial_type":"audio-keyboard-response","trial_index":171,"time_elapsed":2713324,"internal_node_id":"0.0-13.0-3.29","match_key":"a","participant_id":"COGS219_2020_27"},{"rt":null,"stimulus":"Sounds/cow_label.wav","key_press":null,"block":1,"trial_type":"audio-keyboard-response","trial_index":172,"time_elapsed":2714353,"internal_node_id":"0.0-13.0-0.30","match_key":"a","participant_id":"COGS219_2020_27"},{"rt":null,"stimulus":"<p style=\"font-size: 48px;\">+</p>","key_press":null,"block":1,"trial_type":"html-keyboard-response","trial_index":173,"time_elapsed":2715370,"internal_node_id":"0.0-13.0-1.30","match_key":"a","participant_id":"COGS219_2020_27"},{"rt":586.7649998981506,"stimulus":"Images/cow_2.png","key_press":65,"stim_onset":1582589908250,"block":1,"match_type":"match","image_category":"cow","sound_category":"cow","audio_type":"label","phase":"test","trial_type":"image-keyboard-response","trial_index":174,"time_elapsed":2715958,"internal_node_id":"0.0-13.0-2.30","match_key":"a","participant_id":"COGS219_2020_27","correct":true},{"rt":null,"stimulus":"Sounds/correct.wav","key_press":null,"block":1,"trial_type":"audio-keyboard-response","trial_index":175,"time_elapsed":2717973,"internal_node_id":"0.0-13.0-3.30","match_key":"a","participant_id":"COGS219_2020_27"},{"rt":null,"stimulus":"Sounds/gun_label.wav","key_press":null,"block":1,"trial_type":"audio-keyboard-response","trial_index":176,"time_elapsed":2718553,"internal_node_id":"0.0-13.0-0.31","match_key":"a","participant_id":"COGS219_2020_27"},{"rt":null,"stimulus":"<p style=\"font-size: 48px;\">+</p>","key_press":null,"block":1,"trial_type":"html-keyboard-response","trial_index":177,"time_elapsed":2719554,"internal_node_id":"0.0-13.0-1.31","match_key":"a","participant_id":"COGS219_2020_27"},{"rt":475.49500002060086,"stimulus":"Images/gun_orig.png","key_press":65,"stim_onset":1582589912434,"block":1,"match_type":"match","image_category":"gun","sound_category":"gun","audio_type":"label","phase":"test","trial_type":"image-keyboard-response","trial_index":178,"time_elapsed":2720030,"internal_node_id":"0.0-13.0-2.31","match_key":"a","participant_id":"COGS219_2020_27","correct":true},{"rt":null,"stimulus":"Sounds/correct.wav","key_press":null,"block":1,"trial_type":"audio-keyboard-response","trial_index":179,"time_elapsed":2722033,"internal_node_id":"0.0-13.0-3.31","match_key":"a","participant_id":"COGS219_2020_27"},{"rt":null,"stimulus":"Sounds/frog_sound.wav","key_press":null,"block":1,"trial_type":"audio-keyboard-response","trial_index":180,"time_elapsed":2722933,"internal_node_id":"0.0-13.0-0.32","match_key":"a","participant_id":"COGS219_2020_27"},{"rt":null,"stimulus":"<p style=\"font-size: 48px;\">+</p>","key_press":null,"block":1,"trial_type":"html-keyboard-response","trial_index":181,"time_elapsed":2723937,"internal_node_id":"0.0-13.0-1.32","match_key":"a","participant_id":"COGS219_2020_27"},{"rt":411.83999995701015,"stimulus":"Images/frog_1.png","key_press":65,"stim_onset":1582589916817,"block":1,"match_type":"match","image_category":"frog","sound_category":"frog","audio_type":"sound","phase":"test","trial_type":"image-keyboard-response","trial_index":182,"time_elapsed":2724350,"internal_node_id":"0.0-13.0-2.32","match_key":"a","participant_id":"COGS219_2020_27","correct":true},{"rt":null,"stimulus":"Sounds/correct.wav","key_press":null,"block":1,"trial_type":"audio-keyboard-response","trial_index":183,"time_elapsed":2726354,"internal_node_id":"0.0-13.0-3.32","match_key":"a","participant_id":"COGS219_2020_27"},{"rt":null,"stimulus":"Sounds/car_sound.wav","key_press":null,"block":1,"trial_type":"audio-keyboard-response","trial_index":184,"time_elapsed":2727433,"internal_node_id":"0.0-13.0-0.33","match_key":"a","participant_id":"COGS219_2020_27"},{"rt":null,"stimulus":"<p style=\"font-size: 48px;\">+</p>","key_press":null,"block":1,"trial_type":"html-keyboard-response","trial_index":185,"time_elapsed":2728437,"internal_node_id":"0.0-13.0-1.33","match_key":"a","participant_id":"COGS219_2020_27"},{"rt":424.2599999997765,"stimulus":"Images/car_1.png","key_press":65,"stim_onset":1582589921317,"block":1,"match_type":"match","image_category":"car","sound_category":"car","audio_type":"sound","phase":"test","trial_type":"image-keyboard-response","trial_index":186,"time_elapsed":2728862,"internal_node_id":"0.0-13.0-2.33","match_key":"a","participant_id":"COGS219_2020_27","correct":true},{"rt":null,"stimulus":"Sounds/correct.wav","key_press":null,"block":1,"trial_type":"audio-keyboard-response","trial_index":187,"time_elapsed":2730870,"internal_node_id":"0.0-13.0-3.33","match_key":"a","participant_id":"COGS219_2020_27"},{"rt":null,"stimulus":"Sounds/motorcycle_sound.wav","key_press":null,"block":1,"trial_type":"audio-keyboard-response","trial_index":188,"time_elapsed":2731993,"internal_node_id":"0.0-13.0-0.34","match_key":"a","participant_id":"COGS219_2020_27"},{"rt":null,"stimulus":"<p style=\"font-size: 48px;\">+</p>","key_press":null,"block":1,"trial_type":"html-keyboard-response","trial_index":189,"time_elapsed":2732987,"internal_node_id":"0.0-13.0-1.34","match_key":"a","participant_id":"COGS219_2020_27"},{"rt":1209.7950000315905,"stimulus":"Images/whistle_1.png","key_press":76,"stim_onset":1582589925868,"block":1,"match_type":"non-match","image_category":"whistle","sound_category":"motorcycle","audio_type":"sound","phase":"test","trial_type":"image-keyboard-response","trial_index":190,"time_elapsed":2734198,"internal_node_id":"0.0-13.0-2.34","match_key":"a","participant_id":"COGS219_2020_27","correct":true},{"rt":null,"stimulus":"Sounds/correct.wav","key_press":null,"block":1,"trial_type":"audio-keyboard-response","trial_index":191,"time_elapsed":2736211,"internal_node_id":"0.0-13.0-3.34","match_key":"a","participant_id":"COGS219_2020_27"},{"rt":null,"stimulus":"Sounds/frog_label.wav","key_press":null,"block":1,"trial_type":"audio-keyboard-response","trial_index":192,"time_elapsed":2737113,"internal_node_id":"0.0-13.0-0.35","match_key":"a","participant_id":"COGS219_2020_27"},{"rt":null,"stimulus":"<p style=\"font-size: 48px;\">+</p>","key_press":null,"block":1,"trial_type":"html-keyboard-response","trial_index":193,"time_elapsed":2738104,"internal_node_id":"0.0-13.0-1.35","match_key":"a","participant_id":"COGS219_2020_27"},{"rt":627.8100000927225,"stimulus":"Images/rooster_1.png","key_press":76,"stim_onset":1582589930984,"block":1,"match_type":"non-match","image_category":"rooster","sound_category":"frog","audio_type":"label","phase":"test","trial_type":"image-keyboard-response","trial_index":194,"time_elapsed":2738734,"internal_node_id":"0.0-13.0-2.35","match_key":"a","participant_id":"COGS219_2020_27","correct":true},{"rt":null,"stimulus":"Sounds/correct.wav","key_press":null,"block":1,"trial_type":"audio-keyboard-response","trial_index":195,"time_elapsed":2740739,"internal_node_id":"0.0-13.0-3.35","match_key":"a","participant_id":"COGS219_2020_27"},{"rt":null,"stimulus":"Sounds/car_sound.wav","key_press":null,"block":1,"trial_type":"audio-keyboard-response","trial_index":196,"time_elapsed":2741793,"internal_node_id":"0.0-13.0-0.36","match_key":"a","participant_id":"COGS219_2020_27"},{"rt":null,"stimulus":"<p style=\"font-size: 48px;\">+</p>","key_press":null,"block":1,"trial_type":"html-keyboard-response","trial_index":197,"time_elapsed":2742787,"internal_node_id":"0.0-13.0-1.36","match_key":"a","participant_id":"COGS219_2020_27"},{"rt":874.199999962002,"stimulus":"Images/car_cartoon.png","key_press":65,"stim_onset":1582589935667,"block":1,"match_type":"match","image_category":"car","sound_category":"car","audio_type":"sound","phase":"test","trial_type":"image-keyboard-response","trial_index":198,"time_elapsed":2743662,"internal_node_id":"0.0-13.0-2.36","match_key":"a","participant_id":"COGS219_2020_27","correct":true},{"rt":null,"stimulus":"Sounds/correct.wav","key_press":null,"block":1,"trial_type":"audio-keyboard-response","trial_index":199,"time_elapsed":2745671,"internal_node_id":"0.0-13.0-3.36","match_key":"a","participant_id":"COGS219_2020_27"},{"rt":null,"stimulus":"Sounds/whistle_sound.wav","key_press":null,"block":1,"trial_type":"audio-keyboard-response","trial_index":200,"time_elapsed":2746373,"internal_node_id":"0.0-13.0-0.37","match_key":"a","participant_id":"COGS219_2020_27"},{"rt":null,"stimulus":"<p style=\"font-size: 48px;\">+</p>","key_press":null,"block":1,"trial_type":"html-keyboard-response","trial_index":201,"time_elapsed":2747371,"internal_node_id":"0.0-13.0-1.37","match_key":"a","participant_id":"COGS219_2020_27"},{"rt":314.63999999687076,"stimulus":"Images/whistle_1.png","key_press":65,"stim_onset":1582589940251,"block":1,"match_type":"match","image_category":"whistle","sound_category":"whistle","audio_type":"sound","phase":"test","trial_type":"image-keyboard-response","trial_index":202,"time_elapsed":2747686,"internal_node_id":"0.0-13.0-2.37","match_key":"a","participant_id":"COGS219_2020_27","correct":true},{"rt":null,"stimulus":"Sounds/correct.wav","key_press":null,"block":1,"trial_type":"audio-keyboard-response","trial_index":203,"time_elapsed":2749696,"internal_node_id":"0.0-13.0-3.37","match_key":"a","participant_id":"COGS219_2020_27"},{"rt":null,"stimulus":"Sounds/cat_sound.wav","key_press":null,"block":1,"trial_type":"audio-keyboard-response","trial_index":204,"time_elapsed":2750533,"internal_node_id":"0.0-13.0-0.38","match_key":"a","participant_id":"COGS219_2020_27"},{"rt":null,"stimulus":"<p style=\"font-size: 48px;\">+</p>","key_press":null,"block":1,"trial_type":"html-keyboard-response","trial_index":205,"time_elapsed":2751537,"internal_node_id":"0.0-13.0-1.38","match_key":"a","participant_id":"COGS219_2020_27"},{"rt":683.640000061132,"stimulus":"Images/gun_1.png","key_press":76,"stim_onset":1582589944417,"block":1,"match_type":"non-match","image_category":"gun","sound_category":"cat","audio_type":"sound","phase":"test","trial_type":"image-keyboard-response","trial_index":206,"time_elapsed":2752222,"internal_node_id":"0.0-13.0-2.38","match_key":"a","participant_id":"COGS219_2020_27","correct":true},{"rt":null,"stimulus":"Sounds/correct.wav","key_press":null,"block":1,"trial_type":"audio-keyboard-response","trial_index":207,"time_elapsed":2754234,"internal_node_id":"0.0-13.0-3.38","match_key":"a","participant_id":"COGS219_2020_27"},{"rt":null,"stimulus":"Sounds/train_label.wav","key_press":null,"block":1,"trial_type":"audio-keyboard-response","trial_index":208,"time_elapsed":2755513,"internal_node_id":"0.0-13.0-0.39","match_key":"a","participant_id":"COGS219_2020_27"},{"rt":null,"stimulus":"<p style=\"font-size: 48px;\">+</p>","key_press":null,"block":1,"trial_type":"html-keyboard-response","trial_index":209,"time_elapsed":2756504,"internal_node_id":"0.0-13.0-1.39","match_key":"a","participant_id":"COGS219_2020_27"},{"rt":637.1999999973923,"stimulus":"Images/whistle_orig.png","key_press":76,"stim_onset":1582589949384,"block":1,"match_type":"non-match","image_category":"whistle","sound_category":"train","audio_type":"label","phase":"test","trial_type":"image-keyboard-response","trial_index":210,"time_elapsed":2757142,"internal_node_id":"0.0-13.0-2.39","match_key":"a","participant_id":"COGS219_2020_27","correct":true},{"rt":null,"stimulus":"Sounds/correct.wav","key_press":null,"block":1,"trial_type":"audio-keyboard-response","trial_index":211,"time_elapsed":2759155,"internal_node_id":"0.0-13.0-3.39","match_key":"a","participant_id":"COGS219_2020_27"},{"rt":null,"stimulus":"Sounds/train_sound.wav","key_press":null,"block":1,"trial_type":"audio-keyboard-response","trial_index":212,"time_elapsed":2760453,"internal_node_id":"0.0-13.0-0.40","match_key":"a","participant_id":"COGS219_2020_27"},{"rt":null,"stimulus":"<p style=\"font-size: 48px;\">+</p>","key_press":null,"block":1,"trial_type":"html-keyboard-response","trial_index":213,"time_elapsed":2761471,"internal_node_id":"0.0-13.0-1.40","match_key":"a","participant_id":"COGS219_2020_27"},{"rt":590.4899999732152,"stimulus":"Images/rooster_orig.png","key_press":76,"stim_onset":1582589954351,"block":1,"match_type":"non-match","image_category":"rooster","sound_category":"train","audio_type":"sound","phase":"test","trial_type":"image-keyboard-response","trial_index":214,"time_elapsed":2762062,"internal_node_id":"0.0-13.0-2.40","match_key":"a","participant_id":"COGS219_2020_27","correct":true},{"rt":null,"stimulus":"Sounds/correct.wav","key_press":null,"block":1,"trial_type":"audio-keyboard-response","trial_index":215,"time_elapsed":2764073,"internal_node_id":"0.0-13.0-3.40","match_key":"a","participant_id":"COGS219_2020_27"},{"rt":null,"stimulus":"Sounds/whistle_sound.wav","key_press":null,"block":1,"trial_type":"audio-keyboard-response","trial_index":216,"time_elapsed":2764753,"internal_node_id":"0.0-13.0-0.41","match_key":"a","participant_id":"COGS219_2020_27"},{"rt":null,"stimulus":"<p style=\"font-size: 48px;\">+</p>","key_press":null,"block":1,"trial_type":"html-keyboard-response","trial_index":217,"time_elapsed":2765771,"internal_node_id":"0.0-13.0-1.41","match_key":"a","participant_id":"COGS219_2020_27"},{"rt":618.2150000240654,"stimulus":"Images/train_1.png","key_press":76,"stim_onset":1582589958651,"block":1,"match_type":"non-match","image_category":"train","sound_category":"whistle","audio_type":"sound","phase":"test","trial_type":"image-keyboard-response","trial_index":218,"time_elapsed":2766390,"internal_node_id":"0.0-13.0-2.41","match_key":"a","participant_id":"COGS219_2020_27","correct":true},{"rt":null,"stimulus":"Sounds/correct.wav","key_press":null,"block":1,"trial_type":"audio-keyboard-response","trial_index":219,"time_elapsed":2768404,"internal_node_id":"0.0-13.0-3.41","match_key":"a","participant_id":"COGS219_2020_27"},{"rt":null,"stimulus":"Sounds/rooster_sound.wav","key_press":null,"block":1,"trial_type":"audio-keyboard-response","trial_index":220,"time_elapsed":2769093,"internal_node_id":"0.0-13.0-0.42","match_key":"a","participant_id":"COGS219_2020_27"},{"rt":null,"stimulus":"<p style=\"font-size: 48px;\">+</p>","key_press":null,"block":1,"trial_type":"html-keyboard-response","trial_index":221,"time_elapsed":2770087,"internal_node_id":"0.0-13.0-1.42","match_key":"a","participant_id":"COGS219_2020_27"},{"rt":861.5999999456108,"stimulus":"Images/rooster_3.png","key_press":65,"stim_onset":1582589962968,"block":1,"match_type":"match","image_category":"rooster","sound_category":"rooster","audio_type":"sound","phase":"test","trial_type":"image-keyboard-response","trial_index":222,"time_elapsed":2770950,"internal_node_id":"0.0-13.0-2.42","match_key":"a","participant_id":"COGS219_2020_27","correct":true},{"rt":null,"stimulus":"Sounds/correct.wav","key_press":null,"block":1,"trial_type":"audio-keyboard-response","trial_index":223,"time_elapsed":2772955,"internal_node_id":"0.0-13.0-3.42","match_key":"a","participant_id":"COGS219_2020_27"},{"rt":null,"stimulus":"Sounds/cow_label.wav","key_press":null,"block":1,"trial_type":"audio-keyboard-response","trial_index":224,"time_elapsed":2773973,"internal_node_id":"0.0-13.0-0.43","match_key":"a","participant_id":"COGS219_2020_27"},{"rt":null,"stimulus":"<p style=\"font-size: 48px;\">+</p>","key_press":null,"block":1,"trial_type":"html-keyboard-response","trial_index":225,"time_elapsed":2774971,"internal_node_id":"0.0-13.0-1.43","match_key":"a","participant_id":"COGS219_2020_27"},{"rt":514.3649999517947,"stimulus":"Images/cow_1.png","key_press":65,"stim_onset":1582589967851,"block":1,"match_type":"match","image_category":"cow","sound_category":"cow","audio_type":"label","phase":"test","trial_type":"image-keyboard-response","trial_index":226,"time_elapsed":2775486,"internal_node_id":"0.0-13.0-2.43","match_key":"a","participant_id":"COGS219_2020_27","correct":true},{"rt":null,"stimulus":"Sounds/correct.wav","key_press":null,"block":1,"trial_type":"audio-keyboard-response","trial_index":227,"time_elapsed":2777497,"internal_node_id":"0.0-13.0-3.43","match_key":"a","participant_id":"COGS219_2020_27"},{"rt":null,"stimulus":"Sounds/cat_label.wav","key_press":null,"block":1,"trial_type":"audio-keyboard-response","trial_index":228,"time_elapsed":2778333,"internal_node_id":"0.0-13.0-0.44","match_key":"a","participant_id":"COGS219_2020_27"},{"rt":null,"stimulus":"<p style=\"font-size: 48px;\">+</p>","key_press":null,"block":1,"trial_type":"html-keyboard-response","trial_index":229,"time_elapsed":2779338,"internal_node_id":"0.0-13.0-1.44","match_key":"a","participant_id":"COGS219_2020_27"},{"rt":531.0749999480322,"stimulus":"Images/cat_2.png","key_press":65,"stim_onset":1582589972218,"block":1,"match_type":"match","image_category":"cat","sound_category":"cat","audio_type":"label","phase":"test","trial_type":"image-keyboard-response","trial_index":230,"time_elapsed":2779870,"internal_node_id":"0.0-13.0-2.44","match_key":"a","participant_id":"COGS219_2020_27","correct":true},{"rt":null,"stimulus":"Sounds/correct.wav","key_press":null,"block":1,"trial_type":"audio-keyboard-response","trial_index":231,"time_elapsed":2781879,"internal_node_id":"0.0-13.0-3.44","match_key":"a","participant_id":"COGS219_2020_27"},{"rt":null,"stimulus":"Sounds/motorcycle_label.wav","key_press":null,"block":1,"trial_type":"audio-keyboard-response","trial_index":232,"time_elapsed":2783013,"internal_node_id":"0.0-13.0-0.45","match_key":"a","participant_id":"COGS219_2020_27"},{"rt":null,"stimulus":"<p style=\"font-size: 48px;\">+</p>","key_press":null,"block":1,"trial_type":"html-keyboard-response","trial_index":233,"time_elapsed":2784004,"internal_node_id":"0.0-13.0-1.45","match_key":"a","participant_id":"COGS219_2020_27"},{"rt":776.8599999835715,"stimulus":"Images/train_2.png","key_press":65,"stim_onset":1582589976884,"block":1,"match_type":"non-match","image_category":"train","sound_category":"motorcycle","audio_type":"label","phase":"test","trial_type":"image-keyboard-response","trial_index":234,"time_elapsed":2784782,"internal_node_id":"0.0-13.0-2.45","match_key":"a","participant_id":"COGS219_2020_27","correct":false},{"rt":null,"stimulus":"Sounds/incorrect.wav","key_press":null,"block":1,"trial_type":"audio-keyboard-response","trial_index":235,"time_elapsed":2786795,"internal_node_id":"0.0-13.0-3.45","match_key":"a","participant_id":"COGS219_2020_27"},{"rt":null,"stimulus":"Sounds/whistle_label.wav","key_press":null,"block":1,"trial_type":"audio-keyboard-response","trial_index":236,"time_elapsed":2787493,"internal_node_id":"0.0-13.0-0.46","match_key":"a","participant_id":"COGS219_2020_27"},{"rt":null,"stimulus":"<p style=\"font-size: 48px;\">+</p>","key_press":null,"block":1,"trial_type":"html-keyboard-response","trial_index":237,"time_elapsed":2788488,"internal_node_id":"0.0-13.0-1.46","match_key":"a","participant_id":"COGS219_2020_27"},{"rt":613.5350000113249,"stimulus":"Images/whistle_2.png","key_press":65,"stim_onset":1582589981368,"block":1,"match_type":"match","image_category":"whistle","sound_category":"whistle","audio_type":"label","phase":"test","trial_type":"image-keyboard-response","trial_index":238,"time_elapsed":2789102,"internal_node_id":"0.0-13.0-2.46","match_key":"a","participant_id":"COGS219_2020_27","correct":true},{"rt":null,"stimulus":"Sounds/correct.wav","key_press":null,"block":1,"trial_type":"audio-keyboard-response","trial_index":239,"time_elapsed":2791109,"internal_node_id":"0.0-13.0-3.46","match_key":"a","participant_id":"COGS219_2020_27"},{"rt":null,"stimulus":"Sounds/dog_sound.wav","key_press":null,"block":1,"trial_type":"audio-keyboard-response","trial_index":240,"time_elapsed":2791813,"internal_node_id":"0.0-13.0-0.47","match_key":"a","participant_id":"COGS219_2020_27"},{"rt":null,"stimulus":"<p style=\"font-size: 48px;\">+</p>","key_press":null,"block":1,"trial_type":"html-keyboard-response","trial_index":241,"time_elapsed":2792804,"internal_node_id":"0.0-13.0-1.47","match_key":"a","participant_id":"COGS219_2020_27"},{"rt":768.7199999345466,"stimulus":"Images/frog_3.png","key_press":76,"stim_onset":1582589985685,"block":1,"match_type":"non-match","image_category":"frog","sound_category":"dog","audio_type":"sound","phase":"test","trial_type":"image-keyboard-response","trial_index":242,"time_elapsed":2793574,"internal_node_id":"0.0-13.0-2.47","match_key":"a","participant_id":"COGS219_2020_27","correct":true},{"rt":null,"stimulus":"Sounds/correct.wav","key_press":null,"block":1,"trial_type":"audio-keyboard-response","trial_index":243,"time_elapsed":2795578,"internal_node_id":"0.0-13.0-3.47","match_key":"a","participant_id":"COGS219_2020_27"},{"rt":null,"stimulus":"Sounds/motorcycle_label.wav","key_press":null,"block":1,"trial_type":"audio-keyboard-response","trial_index":244,"time_elapsed":2796693,"internal_node_id":"0.0-13.0-0.48","match_key":"a","participant_id":"COGS219_2020_27"},{"rt":null,"stimulus":"<p style=\"font-size: 48px;\">+</p>","key_press":null,"block":1,"trial_type":"html-keyboard-response","trial_index":245,"time_elapsed":2797688,"internal_node_id":"0.0-13.0-1.48","match_key":"a","participant_id":"COGS219_2020_27"},{"rt":709.2849999899045,"stimulus":"Images/motorcycle_orig.png","key_press":65,"stim_onset":1582589990568,"block":1,"match_type":"match","image_category":"motorcycle","sound_category":"motorcycle","audio_type":"label","phase":"test","trial_type":"image-keyboard-response","trial_index":246,"time_elapsed":2798398,"internal_node_id":"0.0-13.0-2.48","match_key":"a","participant_id":"COGS219_2020_27","correct":true},{"rt":null,"stimulus":"Sounds/correct.wav","key_press":null,"block":1,"trial_type":"audio-keyboard-response","trial_index":247,"time_elapsed":2800416,"internal_node_id":"0.0-13.0-3.48","match_key":"a","participant_id":"COGS219_2020_27"},{"rt":null,"stimulus":"Sounds/frog_sound.wav","key_press":null,"block":1,"trial_type":"audio-keyboard-response","trial_index":248,"time_elapsed":2801333,"internal_node_id":"0.0-13.0-0.49","match_key":"a","participant_id":"COGS219_2020_27"},{"rt":null,"stimulus":"<p style=\"font-size: 48px;\">+</p>","key_press":null,"block":1,"trial_type":"html-keyboard-response","trial_index":249,"time_elapsed":2802321,"internal_node_id":"0.0-13.0-1.49","match_key":"a","participant_id":"COGS219_2020_27"},{"rt":628.0249999836087,"stimulus":"Images/cow_cartoon.png","key_press":76,"stim_onset":1582589995201,"block":1,"match_type":"non-match","image_category":"cow","sound_category":"frog","audio_type":"sound","phase":"test","trial_type":"image-keyboard-response","trial_index":250,"time_elapsed":2802950,"internal_node_id":"0.0-13.0-2.49","match_key":"a","participant_id":"COGS219_2020_27","correct":true},{"rt":null,"stimulus":"Sounds/correct.wav","key_press":null,"block":1,"trial_type":"audio-keyboard-response","trial_index":251,"time_elapsed":2804956,"internal_node_id":"0.0-13.0-3.49","match_key":"a","participant_id":"COGS219_2020_27"},{"rt":null,"stimulus":"Sounds/dog_label.wav","key_press":null,"block":1,"trial_type":"audio-keyboard-response","trial_index":252,"time_elapsed":2805613,"internal_node_id":"0.0-13.0-0.50","match_key":"a","participant_id":"COGS219_2020_27"},{"rt":null,"stimulus":"<p style=\"font-size: 48px;\">+</p>","key_press":null,"block":1,"trial_type":"html-keyboard-response","trial_index":253,"time_elapsed":2806605,"internal_node_id":"0.0-13.0-1.50","match_key":"a","participant_id":"COGS219_2020_27"},{"rt":776.3549999799579,"stimulus":"Images/motorcycle_2.png","key_press":76,"stim_onset":1582589999485,"block":1,"match_type":"non-match","image_category":"motorcycle","sound_category":"dog","audio_type":"label","phase":"test","trial_type":"image-keyboard-response","trial_index":254,"time_elapsed":2807382,"internal_node_id":"0.0-13.0-2.50","match_key":"a","participant_id":"COGS219_2020_27","correct":true},{"rt":null,"stimulus":"Sounds/correct.wav","key_press":null,"block":1,"trial_type":"audio-keyboard-response","trial_index":255,"time_elapsed":2809395,"internal_node_id":"0.0-13.0-3.50","match_key":"a","participant_id":"COGS219_2020_27"},{"rt":null,"stimulus":"Sounds/cat_sound.wav","key_press":null,"block":1,"trial_type":"audio-keyboard-response","trial_index":256,"time_elapsed":2810233,"internal_node_id":"0.0-13.0-0.51","match_key":"a","participant_id":"COGS219_2020_27"},{"rt":null,"stimulus":"<p style=\"font-size: 48px;\">+</p>","key_press":null,"block":1,"trial_type":"html-keyboard-response","trial_index":257,"time_elapsed":2811221,"internal_node_id":"0.0-13.0-1.51","match_key":"a","participant_id":"COGS219_2020_27"},{"rt":663.4049999993294,"stimulus":"Images/cat_3.png","key_press":76,"stim_onset":1582590004101,"block":1,"match_type":"match","image_category":"cat","sound_category":"cat","audio_type":"sound","phase":"test","trial_type":"image-keyboard-response","trial_index":258,"time_elapsed":2811886,"internal_node_id":"0.0-13.0-2.51","match_key":"a","participant_id":"COGS219_2020_27","correct":false},{"rt":null,"stimulus":"Sounds/incorrect.wav","key_press":null,"block":1,"trial_type":"audio-keyboard-response","trial_index":259,"time_elapsed":2813890,"internal_node_id":"0.0-13.0-3.51","match_key":"a","participant_id":"COGS219_2020_27"},{"rt":null,"stimulus":"Sounds/car_sound.wav","key_press":null,"block":1,"trial_type":"audio-keyboard-response","trial_index":260,"time_elapsed":2814973,"internal_node_id":"0.0-13.0-0.52","match_key":"a","participant_id":"COGS219_2020_27"},{"rt":null,"stimulus":"<p style=\"font-size: 48px;\">+</p>","key_press":null,"block":1,"trial_type":"html-keyboard-response","trial_index":261,"time_elapsed":2815971,"internal_node_id":"0.0-13.0-1.52","match_key":"a","participant_id":"COGS219_2020_27"},{"rt":657.9650000203401,"stimulus":"Images/whistle_3.png","key_press":76,"stim_onset":1582590008851,"block":1,"match_type":"non-match","image_category":"whistle","sound_category":"car","audio_type":"sound","phase":"test","trial_type":"image-keyboard-response","trial_index":262,"time_elapsed":2816630,"internal_node_id":"0.0-13.0-2.52","match_key":"a","participant_id":"COGS219_2020_27","correct":true},{"rt":null,"stimulus":"Sounds/correct.wav","key_press":null,"block":1,"trial_type":"audio-keyboard-response","trial_index":263,"time_elapsed":2818644,"internal_node_id":"0.0-13.0-3.52","match_key":"a","participant_id":"COGS219_2020_27"},{"rt":null,"stimulus":"Sounds/frog_label.wav","key_press":null,"block":1,"trial_type":"audio-keyboard-response","trial_index":264,"time_elapsed":2819533,"internal_node_id":"0.0-13.0-0.53","match_key":"a","participant_id":"COGS219_2020_27"},{"rt":null,"stimulus":"<p style=\"font-size: 48px;\">+</p>","key_press":null,"block":1,"trial_type":"html-keyboard-response","trial_index":265,"time_elapsed":2820522,"internal_node_id":"0.0-13.0-1.53","match_key":"a","participant_id":"COGS219_2020_27"},{"rt":507.52499990630895,"stimulus":"Images/frog_3.png","key_press":65,"stim_onset":1582590013402,"block":1,"match_type":"match","image_category":"frog","sound_category":"frog","audio_type":"label","phase":"test","trial_type":"image-keyboard-response","trial_index":266,"time_elapsed":2821030,"internal_node_id":"0.0-13.0-2.53","match_key":"a","participant_id":"COGS219_2020_27","correct":true},{"rt":null,"stimulus":"Sounds/correct.wav","key_press":null,"block":1,"trial_type":"audio-keyboard-response","trial_index":267,"time_elapsed":2823034,"internal_node_id":"0.0-13.0-3.53","match_key":"a","participant_id":"COGS219_2020_27"},{"rt":null,"stimulus":"Sounds/train_label.wav","key_press":null,"block":1,"trial_type":"audio-keyboard-response","trial_index":268,"time_elapsed":2824313,"internal_node_id":"0.0-13.0-0.54","match_key":"a","participant_id":"COGS219_2020_27"},{"rt":null,"stimulus":"<p style=\"font-size: 48px;\">+</p>","key_press":null,"block":1,"trial_type":"html-keyboard-response","trial_index":269,"time_elapsed":2825305,"internal_node_id":"0.0-13.0-1.54","match_key":"a","participant_id":"COGS219_2020_27"},{"rt":676.244999980554,"stimulus":"Images/frog_2.png","key_press":65,"stim_onset":1582590018185,"block":1,"match_type":"non-match","image_category":"frog","sound_category":"train","audio_type":"label","phase":"test","trial_type":"image-keyboard-response","trial_index":270,"time_elapsed":2825983,"internal_node_id":"0.0-13.0-2.54","match_key":"a","participant_id":"COGS219_2020_27","correct":false},{"rt":null,"stimulus":"Sounds/incorrect.wav","key_press":null,"block":1,"trial_type":"audio-keyboard-response","trial_index":271,"time_elapsed":2827988,"internal_node_id":"0.0-13.0-3.54","match_key":"a","participant_id":"COGS219_2020_27"},{"rt":null,"stimulus":"Sounds/gun_sound.wav","key_press":null,"block":1,"trial_type":"audio-keyboard-response","trial_index":272,"time_elapsed":2828573,"internal_node_id":"0.0-13.0-0.55","match_key":"a","participant_id":"COGS219_2020_27"},{"rt":null,"stimulus":"<p style=\"font-size: 48px;\">+</p>","key_press":null,"block":1,"trial_type":"html-keyboard-response","trial_index":273,"time_elapsed":2829572,"internal_node_id":"0.0-13.0-1.55","match_key":"a","participant_id":"COGS219_2020_27"},{"rt":497.69499991089106,"stimulus":"Images/gun_2.png","key_press":65,"stim_onset":1582590022452,"block":1,"match_type":"match","image_category":"gun","sound_category":"gun","audio_type":"sound","phase":"test","trial_type":"image-keyboard-response","trial_index":274,"time_elapsed":2830071,"internal_node_id":"0.0-13.0-2.55","match_key":"a","participant_id":"COGS219_2020_27","correct":true},{"rt":null,"stimulus":"Sounds/correct.wav","key_press":null,"block":1,"trial_type":"audio-keyboard-response","trial_index":275,"time_elapsed":2832082,"internal_node_id":"0.0-13.0-3.55","match_key":"a","participant_id":"COGS219_2020_27"},{"rt":null,"stimulus":"Sounds/rooster_sound.wav","key_press":null,"block":1,"trial_type":"audio-keyboard-response","trial_index":276,"time_elapsed":2832773,"internal_node_id":"0.0-13.0-0.56","match_key":"a","participant_id":"COGS219_2020_27"},{"rt":null,"stimulus":"<p style=\"font-size: 48px;\">+</p>","key_press":null,"block":1,"trial_type":"html-keyboard-response","trial_index":277,"time_elapsed":2833772,"internal_node_id":"0.0-13.0-1.56","match_key":"a","participant_id":"COGS219_2020_27"},{"rt":609.6850000321865,"stimulus":"Images/rooster_cartoon.png","key_press":65,"stim_onset":1582590026652,"block":1,"match_type":"match","image_category":"rooster","sound_category":"rooster","audio_type":"sound","phase":"test","trial_type":"image-keyboard-response","trial_index":278,"time_elapsed":2834383,"internal_node_id":"0.0-13.0-2.56","match_key":"a","participant_id":"COGS219_2020_27","correct":true},{"rt":null,"stimulus":"Sounds/correct.wav","key_press":null,"block":1,"trial_type":"audio-keyboard-response","trial_index":279,"time_elapsed":2836391,"internal_node_id":"0.0-13.0-3.56","match_key":"a","participant_id":"COGS219_2020_27"},{"rt":null,"stimulus":"Sounds/rooster_label.wav","key_press":null,"block":1,"trial_type":"audio-keyboard-response","trial_index":280,"time_elapsed":2837093,"internal_node_id":"0.0-13.0-0.57","match_key":"a","participant_id":"COGS219_2020_27"},{"rt":null,"stimulus":"<p style=\"font-size: 48px;\">+</p>","key_press":null,"block":1,"trial_type":"html-keyboard-response","trial_index":281,"time_elapsed":2838089,"internal_node_id":"0.0-13.0-1.57","match_key":"a","participant_id":"COGS219_2020_27"},{"rt":620.8999999798834,"stimulus":"Images/frog_cartoon.png","key_press":76,"stim_onset":1582590030969,"block":1,"match_type":"non-match","image_category":"frog","sound_category":"rooster","audio_type":"label","phase":"test","trial_type":"image-keyboard-response","trial_index":282,"time_elapsed":2838711,"internal_node_id":"0.0-13.0-2.57","match_key":"a","participant_id":"COGS219_2020_27","correct":true},{"rt":null,"stimulus":"Sounds/correct.wav","key_press":null,"block":1,"trial_type":"audio-keyboard-response","trial_index":283,"time_elapsed":2840724,"internal_node_id":"0.0-13.0-3.57","match_key":"a","participant_id":"COGS219_2020_27"},{"rt":null,"stimulus":"Sounds/cat_sound.wav","key_press":null,"block":1,"trial_type":"audio-keyboard-response","trial_index":284,"time_elapsed":2841553,"internal_node_id":"0.0-13.0-0.58","match_key":"a","participant_id":"COGS219_2020_27"},{"rt":null,"stimulus":"<p style=\"font-size: 48px;\">+</p>","key_press":null,"block":1,"trial_type":"html-keyboard-response","trial_index":285,"time_elapsed":2842556,"internal_node_id":"0.0-13.0-1.58","match_key":"a","participant_id":"COGS219_2020_27"},{"rt":690.4949999880046,"stimulus":"Images/dog_cartoon.png","key_press":76,"stim_onset":1582590035436,"block":1,"match_type":"non-match","image_category":"dog","sound_category":"cat","audio_type":"sound","phase":"test","trial_type":"image-keyboard-response","trial_index":286,"time_elapsed":2843247,"internal_node_id":"0.0-13.0-2.58","match_key":"a","participant_id":"COGS219_2020_27","correct":true},{"rt":null,"stimulus":"Sounds/correct.wav","key_press":null,"block":1,"trial_type":"audio-keyboard-response","trial_index":287,"time_elapsed":2845252,"internal_node_id":"0.0-13.0-3.58","match_key":"a","participant_id":"COGS219_2020_27"},{"rt":null,"stimulus":"Sounds/rooster_label.wav","key_press":null,"block":1,"trial_type":"audio-keyboard-response","trial_index":288,"time_elapsed":2845933,"internal_node_id":"0.0-13.0-0.59","match_key":"a","participant_id":"COGS219_2020_27"},{"rt":null,"stimulus":"<p style=\"font-size: 48px;\">+</p>","key_press":null,"block":1,"trial_type":"html-keyboard-response","trial_index":289,"time_elapsed":2846922,"internal_node_id":"0.0-13.0-1.59","match_key":"a","participant_id":"COGS219_2020_27"},{"rt":475.52000009454787,"stimulus":"Images/rooster_orig.png","key_press":65,"stim_onset":1582590039802,"block":1,"match_type":"match","image_category":"rooster","sound_category":"rooster","audio_type":"label","phase":"test","trial_type":"image-keyboard-response","trial_index":290,"time_elapsed":2847399,"internal_node_id":"0.0-13.0-2.59","match_key":"a","participant_id":"COGS219_2020_27","correct":true},{"rt":null,"stimulus":"Sounds/correct.wav","key_press":null,"block":1,"trial_type":"audio-keyboard-response","trial_index":291,"time_elapsed":2849403,"internal_node_id":"0.0-13.0-3.59","match_key":"a","participant_id":"COGS219_2020_27"},{"rt":null,"stimulus":"Sounds/car_label.wav","key_press":null,"block":1,"trial_type":"audio-keyboard-response","trial_index":292,"time_elapsed":2850473,"internal_node_id":"0.0-13.0-0.60","match_key":"a","participant_id":"COGS219_2020_27"},{"rt":null,"stimulus":"<p style=\"font-size: 48px;\">+</p>","key_press":null,"block":1,"trial_type":"html-keyboard-response","trial_index":293,"time_elapsed":2851472,"internal_node_id":"0.0-13.0-1.60","match_key":"a","participant_id":"COGS219_2020_27"},{"rt":701.05000003241,"stimulus":"Images/cow_1.png","key_press":76,"stim_onset":1582590044352,"block":1,"match_type":"non-match","image_category":"cow","sound_category":"car","audio_type":"label","phase":"test","trial_type":"image-keyboard-response","trial_index":294,"time_elapsed":2852175,"internal_node_id":"0.0-13.0-2.60","match_key":"a","participant_id":"COGS219_2020_27","correct":true},{"rt":null,"stimulus":"Sounds/correct.wav","key_press":null,"block":1,"trial_type":"audio-keyboard-response","trial_index":295,"time_elapsed":2854184,"internal_node_id":"0.0-13.0-3.60","match_key":"a","participant_id":"COGS219_2020_27"},{"rt":null,"stimulus":"Sounds/cat_label.wav","key_press":null,"block":1,"trial_type":"audio-keyboard-response","trial_index":296,"time_elapsed":2855013,"internal_node_id":"0.0-13.0-0.61","match_key":"a","participant_id":"COGS219_2020_27"},{"rt":null,"stimulus":"<p style=\"font-size: 48px;\">+</p>","key_press":null,"block":1,"trial_type":"html-keyboard-response","trial_index":297,"time_elapsed":2856006,"internal_node_id":"0.0-13.0-1.61","match_key":"a","participant_id":"COGS219_2020_27"},{"rt":528.0899999197572,"stimulus":"Images/rooster_2.png","key_press":76,"stim_onset":1582590048886,"block":1,"match_type":"non-match","image_category":"rooster","sound_category":"cat","audio_type":"label","phase":"test","trial_type":"image-keyboard-response","trial_index":298,"time_elapsed":2856535,"internal_node_id":"0.0-13.0-2.61","match_key":"a","participant_id":"COGS219_2020_27","correct":true},{"rt":null,"stimulus":"Sounds/correct.wav","key_press":null,"block":1,"trial_type":"audio-keyboard-response","trial_index":299,"time_elapsed":2858548,"internal_node_id":"0.0-13.0-3.61","match_key":"a","participant_id":"COGS219_2020_27"},{"rt":null,"stimulus":"Sounds/gun_label.wav","key_press":null,"block":1,"trial_type":"audio-keyboard-response","trial_index":300,"time_elapsed":2859133,"internal_node_id":"0.0-13.0-0.62","match_key":"a","participant_id":"COGS219_2020_27"},{"rt":null,"stimulus":"<p style=\"font-size: 48px;\">+</p>","key_press":null,"block":1,"trial_type":"html-keyboard-response","trial_index":301,"time_elapsed":2860122,"internal_node_id":"0.0-13.0-1.62","match_key":"a","participant_id":"COGS219_2020_27"},{"rt":619.3500000517815,"stimulus":"Images/cow_orig.png","key_press":76,"stim_onset":1582590053002,"block":1,"match_type":"non-match","image_category":"cow","sound_category":"gun","audio_type":"label","phase":"test","trial_type":"image-keyboard-response","trial_index":302,"time_elapsed":2860743,"internal_node_id":"0.0-13.0-2.62","match_key":"a","participant_id":"COGS219_2020_27","correct":true},{"rt":null,"stimulus":"Sounds/correct.wav","key_press":null,"block":1,"trial_type":"audio-keyboard-response","trial_index":303,"time_elapsed":2862758,"internal_node_id":"0.0-13.0-3.62","match_key":"a","participant_id":"COGS219_2020_27"},{"rt":null,"stimulus":"Sounds/whistle_sound.wav","key_press":null,"block":1,"trial_type":"audio-keyboard-response","trial_index":304,"time_elapsed":2863453,"internal_node_id":"0.0-13.0-0.63","match_key":"a","participant_id":"COGS219_2020_27"},{"rt":null,"stimulus":"<p style=\"font-size: 48px;\">+</p>","key_press":null,"block":1,"trial_type":"html-keyboard-response","trial_index":305,"time_elapsed":2864456,"internal_node_id":"0.0-13.0-1.63","match_key":"a","participant_id":"COGS219_2020_27"},{"rt":573.8649999257177,"stimulus":"Images/whistle_cartoon.png","key_press":76,"stim_onset":1582590057336,"block":1,"match_type":"match","image_category":"whistle","sound_category":"whistle","audio_type":"sound","phase":"test","trial_type":"image-keyboard-response","trial_index":306,"time_elapsed":2865031,"internal_node_id":"0.0-13.0-2.63","match_key":"a","participant_id":"COGS219_2020_27","correct":false},{"rt":null,"stimulus":"Sounds/incorrect.wav","key_press":null,"block":1,"trial_type":"audio-keyboard-response","trial_index":307,"time_elapsed":2867043,"internal_node_id":"0.0-13.0-3.63","match_key":"a","participant_id":"COGS219_2020_27"},{"rt":null,"stimulus":"Sounds/rooster_label.wav","key_press":null,"block":1,"trial_type":"audio-keyboard-response","trial_index":308,"time_elapsed":2867733,"internal_node_id":"0.0-13.0-0.64","match_key":"a","participant_id":"COGS219_2020_27"},{"rt":null,"stimulus":"<p style=\"font-size: 48px;\">+</p>","key_press":null,"block":1,"trial_type":"html-keyboard-response","trial_index":309,"time_elapsed":2868722,"internal_node_id":"0.0-13.0-1.64","match_key":"a","participant_id":"COGS219_2020_27"},{"rt":483.37499995250255,"stimulus":"Images/whistle_2.png","key_press":76,"stim_onset":1582590061602,"block":1,"match_type":"non-match","image_category":"whistle","sound_category":"rooster","audio_type":"label","phase":"test","trial_type":"image-keyboard-response","trial_index":310,"time_elapsed":2869207,"internal_node_id":"0.0-13.0-2.64","match_key":"a","participant_id":"COGS219_2020_27","correct":true},{"rt":null,"stimulus":"Sounds/correct.wav","key_press":null,"block":1,"trial_type":"audio-keyboard-response","trial_index":311,"time_elapsed":2871218,"internal_node_id":"0.0-13.0-3.64","match_key":"a","participant_id":"COGS219_2020_27"},{"rt":null,"stimulus":"Sounds/cat_sound.wav","key_press":null,"block":1,"trial_type":"audio-keyboard-response","trial_index":312,"time_elapsed":2872053,"internal_node_id":"0.0-13.0-0.65","match_key":"a","participant_id":"COGS219_2020_27"},{"rt":null,"stimulus":"<p style=\"font-size: 48px;\">+</p>","key_press":null,"block":1,"trial_type":"html-keyboard-response","trial_index":313,"time_elapsed":2873056,"internal_node_id":"0.0-13.0-1.65","match_key":"a","participant_id":"COGS219_2020_27"},{"rt":461.92999999038875,"stimulus":"Images/cow_2.png","key_press":76,"stim_onset":1582590065936,"block":1,"match_type":"non-match","image_category":"cow","sound_category":"cat","audio_type":"sound","phase":"test","trial_type":"image-keyboard-response","trial_index":314,"time_elapsed":2873519,"internal_node_id":"0.0-13.0-2.65","match_key":"a","participant_id":"COGS219_2020_27","correct":true},{"rt":null,"stimulus":"Sounds/correct.wav","key_press":null,"block":1,"trial_type":"audio-keyboard-response","trial_index":315,"time_elapsed":2875527,"internal_node_id":"0.0-13.0-3.65","match_key":"a","participant_id":"COGS219_2020_27"},{"rt":null,"stimulus":"Sounds/train_label.wav","key_press":null,"block":1,"trial_type":"audio-keyboard-response","trial_index":316,"time_elapsed":2876813,"internal_node_id":"0.0-13.0-0.66","match_key":"a","participant_id":"COGS219_2020_27"},{"rt":null,"stimulus":"<p style=\"font-size: 48px;\">+</p>","key_press":null,"block":1,"trial_type":"html-keyboard-response","trial_index":317,"time_elapsed":2877806,"internal_node_id":"0.0-13.0-1.66","match_key":"a","participant_id":"COGS219_2020_27"},{"rt":591.7650000192225,"stimulus":"Images/train_1.png","key_press":76,"stim_onset":1582590070686,"block":1,"match_type":"match","image_category":"train","sound_category":"train","audio_type":"label","phase":"test","trial_type":"image-keyboard-response","trial_index":318,"time_elapsed":2878399,"internal_node_id":"0.0-13.0-2.66","match_key":"a","participant_id":"COGS219_2020_27","correct":false},{"rt":null,"stimulus":"Sounds/incorrect.wav","key_press":null,"block":1,"trial_type":"audio-keyboard-response","trial_index":319,"time_elapsed":2880411,"internal_node_id":"0.0-13.0-3.66","match_key":"a","participant_id":"COGS219_2020_27"},{"rt":null,"stimulus":"Sounds/car_label.wav","key_press":null,"block":1,"trial_type":"audio-keyboard-response","trial_index":320,"time_elapsed":2881494,"internal_node_id":"0.0-13.0-0.67","match_key":"a","participant_id":"COGS219_2020_27"},{"rt":null,"stimulus":"<p style=\"font-size: 48px;\">+</p>","key_press":null,"block":1,"trial_type":"html-keyboard-response","trial_index":321,"time_elapsed":2882490,"internal_node_id":"0.0-13.0-1.67","match_key":"a","participant_id":"COGS219_2020_27"},{"rt":428.68000001180917,"stimulus":"Images/car_3.png","key_press":65,"stim_onset":1582590075370,"block":1,"match_type":"match","image_category":"car","sound_category":"car","audio_type":"label","phase":"test","trial_type":"image-keyboard-response","trial_index":322,"time_elapsed":2882919,"internal_node_id":"0.0-13.0-2.67","match_key":"a","participant_id":"COGS219_2020_27","correct":true},{"rt":null,"stimulus":"Sounds/correct.wav","key_press":null,"block":1,"trial_type":"audio-keyboard-response","trial_index":323,"time_elapsed":2884928,"internal_node_id":"0.0-13.0-3.67","match_key":"a","participant_id":"COGS219_2020_27"},{"rt":null,"stimulus":"Sounds/rooster_sound.wav","key_press":null,"block":1,"trial_type":"audio-keyboard-response","trial_index":324,"time_elapsed":2885634,"internal_node_id":"0.0-13.0-0.68","match_key":"a","participant_id":"COGS219_2020_27"},{"rt":null,"stimulus":"<p style=\"font-size: 48px;\">+</p>","key_press":null,"block":1,"trial_type":"html-keyboard-response","trial_index":325,"time_elapsed":2886623,"internal_node_id":"0.0-13.0-1.68","match_key":"a","participant_id":"COGS219_2020_27"},{"rt":775.0549999764189,"stimulus":"Images/car_orig.png","key_press":76,"stim_onset":1582590079503,"block":1,"match_type":"non-match","image_category":"car","sound_category":"rooster","audio_type":"sound","phase":"test","trial_type":"image-keyboard-response","trial_index":326,"time_elapsed":2887399,"internal_node_id":"0.0-13.0-2.68","match_key":"a","participant_id":"COGS219_2020_27","correct":true},{"rt":null,"stimulus":"Sounds/correct.wav","key_press":null,"block":1,"trial_type":"audio-keyboard-response","trial_index":327,"time_elapsed":2889414,"internal_node_id":"0.0-13.0-3.68","match_key":"a","participant_id":"COGS219_2020_27"},{"rt":null,"stimulus":"Sounds/frog_sound.wav","key_press":null,"block":1,"trial_type":"audio-keyboard-response","trial_index":328,"time_elapsed":2890314,"internal_node_id":"0.0-13.0-0.69","match_key":"a","participant_id":"COGS219_2020_27"},{"rt":null,"stimulus":"<p style=\"font-size: 48px;\">+</p>","key_press":null,"block":1,"trial_type":"html-keyboard-response","trial_index":329,"time_elapsed":2891306,"internal_node_id":"0.0-13.0-1.69","match_key":"a","participant_id":"COGS219_2020_27"},{"rt":691.5700000245124,"stimulus":"Images/cat_cartoon.png","key_press":76,"stim_onset":1582590084187,"block":1,"match_type":"non-match","image_category":"cat","sound_category":"frog","audio_type":"sound","phase":"test","trial_type":"image-keyboard-response","trial_index":330,"time_elapsed":2891999,"internal_node_id":"0.0-13.0-2.69","match_key":"a","participant_id":"COGS219_2020_27","correct":true},{"rt":null,"stimulus":"Sounds/correct.wav","key_press":null,"block":1,"trial_type":"audio-keyboard-response","trial_index":331,"time_elapsed":2894003,"internal_node_id":"0.0-13.0-3.69","match_key":"a","participant_id":"COGS219_2020_27"},{"rt":null,"stimulus":"Sounds/train_sound.wav","key_press":null,"block":1,"trial_type":"audio-keyboard-response","trial_index":332,"time_elapsed":2895294,"internal_node_id":"0.0-13.0-0.70","match_key":"a","participant_id":"COGS219_2020_27"},{"rt":null,"stimulus":"<p style=\"font-size: 48px;\">+</p>","key_press":null,"block":1,"trial_type":"html-keyboard-response","trial_index":333,"time_elapsed":2896290,"internal_node_id":"0.0-13.0-1.70","match_key":"a","participant_id":"COGS219_2020_27"},{"rt":652.5550000369549,"stimulus":"Images/train_3.png","key_press":76,"stim_onset":1582590089170,"block":1,"match_type":"match","image_category":"train","sound_category":"train","audio_type":"sound","phase":"test","trial_type":"image-keyboard-response","trial_index":334,"time_elapsed":2896943,"internal_node_id":"0.0-13.0-2.70","match_key":"a","participant_id":"COGS219_2020_27","correct":false},{"rt":null,"stimulus":"Sounds/incorrect.wav","key_press":null,"block":1,"trial_type":"audio-keyboard-response","trial_index":335,"time_elapsed":2898956,"internal_node_id":"0.0-13.0-3.70","match_key":"a","participant_id":"COGS219_2020_27"},{"rt":null,"stimulus":"Sounds/car_sound.wav","key_press":null,"block":1,"trial_type":"audio-keyboard-response","trial_index":336,"time_elapsed":2900034,"internal_node_id":"0.0-13.0-0.71","match_key":"a","participant_id":"COGS219_2020_27"},{"rt":null,"stimulus":"<p style=\"font-size: 48px;\">+</p>","key_press":null,"block":1,"trial_type":"html-keyboard-response","trial_index":337,"time_elapsed":2901040,"internal_node_id":"0.0-13.0-1.71","match_key":"a","participant_id":"COGS219_2020_27"},{"rt":918.3950000442564,"stimulus":"Images/motorcycle_3.png","key_press":65,"stim_onset":1582590093920,"block":1,"match_type":"non-match","image_category":"motorcycle","sound_category":"car","audio_type":"sound","phase":"test","trial_type":"image-keyboard-response","trial_index":338,"time_elapsed":2901959,"internal_node_id":"0.0-13.0-2.71","match_key":"a","participant_id":"COGS219_2020_27","correct":false},{"rt":null,"stimulus":"Sounds/incorrect.wav","key_press":null,"block":1,"trial_type":"audio-keyboard-response","trial_index":339,"time_elapsed":2903969,"internal_node_id":"0.0-13.0-3.71","match_key":"a","participant_id":"COGS219_2020_27"},{"rt":null,"stimulus":"Sounds/train_label.wav","key_press":null,"block":1,"trial_type":"audio-keyboard-response","trial_index":340,"time_elapsed":2905254,"internal_node_id":"0.0-13.0-0.72","match_key":"a","participant_id":"COGS219_2020_27"},{"rt":null,"stimulus":"<p style=\"font-size: 48px;\">+</p>","key_press":null,"block":1,"trial_type":"html-keyboard-response","trial_index":341,"time_elapsed":2906257,"internal_node_id":"0.0-13.0-1.72","match_key":"a","participant_id":"COGS219_2020_27"},{"rt":516.8800000101328,"stimulus":"Images/train_2.png","key_press":65,"stim_onset":1582590099137,"block":1,"match_type":"match","image_category":"train","sound_category":"train","audio_type":"label","phase":"test","trial_type":"image-keyboard-response","trial_index":342,"time_elapsed":2906775,"internal_node_id":"0.0-13.0-2.72","match_key":"a","participant_id":"COGS219_2020_27","correct":true},{"rt":null,"stimulus":"Sounds/correct.wav","key_press":null,"block":1,"trial_type":"audio-keyboard-response","trial_index":343,"time_elapsed":2908782,"internal_node_id":"0.0-13.0-3.72","match_key":"a","participant_id":"COGS219_2020_27"},{"rt":null,"stimulus":"Sounds/car_sound.wav","key_press":null,"block":1,"trial_type":"audio-keyboard-response","trial_index":344,"time_elapsed":2909834,"internal_node_id":"0.0-13.0-0.73","match_key":"a","participant_id":"COGS219_2020_27"},{"rt":null,"stimulus":"<p style=\"font-size: 48px;\">+</p>","key_press":null,"block":1,"trial_type":"html-keyboard-response","trial_index":345,"time_elapsed":2910823,"internal_node_id":"0.0-13.0-1.73","match_key":"a","participant_id":"COGS219_2020_27"},{"rt":911.0599999548867,"stimulus":"Images/car_orig.png","key_press":65,"stim_onset":1582590103704,"block":1,"match_type":"match","image_category":"car","sound_category":"car","audio_type":"sound","phase":"test","trial_type":"image-keyboard-response","trial_index":346,"time_elapsed":2911735,"internal_node_id":"0.0-13.0-2.73","match_key":"a","participant_id":"COGS219_2020_27","correct":true},{"rt":null,"stimulus":"Sounds/correct.wav","key_press":null,"block":1,"trial_type":"audio-keyboard-response","trial_index":347,"time_elapsed":2913752,"internal_node_id":"0.0-13.0-3.73","match_key":"a","participant_id":"COGS219_2020_27"},{"rt":null,"stimulus":"Sounds/car_sound.wav","key_press":null,"block":1,"trial_type":"audio-keyboard-response","trial_index":348,"time_elapsed":2914814,"internal_node_id":"0.0-13.0-0.74","match_key":"a","participant_id":"COGS219_2020_27"},{"rt":null,"stimulus":"<p style=\"font-size: 48px;\">+<