[{"rt":23201.564999995753,"responses":"{\"Q0\":\"COGS219_2020_02\"}","trial_type":"survey-text","trial_index":0,"time_elapsed":23230,"internal_node_id":"0.0-0.0","match_key":"a","participant_id":"COGS219_2020_02"},{"rt":119782.25499996915,"stimulus":"<p>Use KEYBOARD 2 (match LEFT)</p><p>Press MATCH to continue.</p>","key_press":65,"trial_type":"html-keyboard-response","trial_index":1,"time_elapsed":143017,"internal_node_id":"0.0-1.0","match_key":"a","participant_id":"COGS219_2020_02"},{"rt":483967.70999999717,"stimulus":"<p>Welcome to the experiment.</p>","key_press":122,"trial_type":"html-keyboard-response","trial_index":2,"time_elapsed":627180,"internal_node_id":"0.0-2.0","match_key":"a","participant_id":"COGS219_2020_02"},{"rt":3963.0599999800324,"stimulus":"<p>Thank you for agreeing to participate in this study.</p><p>If during any part of the procedure you must stop for any reason, please inform the researcher that you do not wish to continue.</p>","key_press":123,"trial_type":"html-keyboard-response","trial_index":3,"time_elapsed":631148,"internal_node_id":"0.0-3.0","match_key":"a","participant_id":"COGS219_2020_02"},{"rt":3116990.2650000295,"stimulus":"<p>In this experiment, you will hear various words or sounds and see pictures of various animals and objects.</p><p>Most of the images will be of common everyday objects, such as cars, cats, cows, firearms, frogs, chickens, whistles, trains, motorcycles, and dogs.</p><p>Some of the images will be real-life stills, while others will be cartoons.</p>","key_press":13,"trial_type":"html-keyboard-response","trial_index":4,"time_elapsed":3748105,"internal_node_id":"0.0-4.0","match_key":"a","participant_id":"COGS219_2020_02"},{"rt":14606.41999996733,"stimulus":"<p>Sometimes, the word/sound will match the picture, for example you'll hear a meowing sound and see a cat.</p><p>Other times, the picture will not match the sound or word.</p><p>Your task is to decide as quickly as possible if the word/sound matches the picture or not. </p>","key_press":13,"trial_type":"html-keyboard-response","trial_index":5,"time_elapsed":3762712,"internal_node_id":"0.0-5.0","match_key":"a","participant_id":"COGS219_2020_02"},{"rt":13087.104999984149,"stimulus":"<p>For example, if you hear the word \"cat\" or hear a meowing sound, and then see a picture of a cat, you should press the MATCH key.</p><p> If the sound and image do not match, press the NOT-MATCH key to indicate that there is not a match.</p>","key_press":13,"trial_type":"html-keyboard-response","trial_index":6,"time_elapsed":3775800,"internal_node_id":"0.0-6.0","match_key":"a","participant_id":"COGS219_2020_02"},{"rt":11727.249999996275,"stimulus":"<p>If you make a mistake, you will hear a buzzing sound instead of a more pleasant sound.</p><p> Try to respond as quickly as possible, while making as few errors as possible. If you are making mistakes, you are probably rushing.</p>","key_press":13,"trial_type":"html-keyboard-response","trial_index":7,"time_elapsed":3787528,"internal_node_id":"0.0-7.0","match_key":"a","participant_id":"COGS219_2020_02"},{"rt":10607.324999989942,"stimulus":"<p>Please try to not move or blink your eyes during the presentation of the images. You can move and blink between images.</p><p>During the experiment there will be some breaks during which you can rest your eyes.</p>","key_press":13,"trial_type":"html-keyboard-response","trial_index":8,"time_elapsed":3798136,"internal_node_id":"0.0-8.0","match_key":"a","participant_id":"COGS219_2020_02"},{"rt":7871.1099999491125,"stimulus":"<p>We will begin with 10 practice trials. Please let the experimenter know if you have any questions.</p>","key_press":13,"trial_type":"html-keyboard-response","trial_index":9,"time_elapsed":3806008,"internal_node_id":"0.0-9.0","match_key":"a","participant_id":"COGS219_2020_02"},{"rt":null,"stimulus":"Sounds/rooster_label.wav","key_press":null,"block":0,"trial_type":"audio-keyboard-response","trial_index":10,"time_elapsed":3806765,"internal_node_id":"0.0-10.0-0.0","match_key":"a","participant_id":"COGS219_2020_02"},{"rt":null,"stimulus":"<p style=\"font-size: 48px;\">+</p>","key_press":null,"block":0,"trial_type":"html-keyboard-response","trial_index":11,"time_elapsed":3807768,"internal_node_id":"0.0-10.0-1.0","match_key":"a","participant_id":"COGS219_2020_02"},{"rt":782.2099999757484,"stimulus":"Images/rooster_cartoon.png","key_press":65,"stim_onset":1581203330323,"block":0,"match_type":"match","image_category":"rooster","sound_category":"rooster","audio_type":"label","phase":"practice","trial_type":"image-keyboard-response","trial_index":12,"time_elapsed":3808561,"internal_node_id":"0.0-10.0-2.0","match_key":"a","participant_id":"COGS219_2020_02","correct":true},{"rt":null,"stimulus":"Sounds/correct.wav","key_press":null,"block":0,"trial_type":"audio-keyboard-response","trial_index":13,"time_elapsed":3810570,"internal_node_id":"0.0-10.0-3.0","match_key":"a","participant_id":"COGS219_2020_02"},{"rt":null,"stimulus":"Sounds/cat_sound.wav","key_press":null,"block":0,"trial_type":"audio-keyboard-response","trial_index":14,"time_elapsed":3811413,"internal_node_id":"0.0-10.0-0.1","match_key":"a","participant_id":"COGS219_2020_02"},{"rt":null,"stimulus":"<p style=\"font-size: 48px;\">+</p>","key_press":null,"block":0,"trial_type":"html-keyboard-response","trial_index":15,"time_elapsed":3812410,"internal_node_id":"0.0-10.0-1.1","match_key":"a","participant_id":"COGS219_2020_02"},{"rt":589.304999972228,"stimulus":"Images/gun_1.png","key_press":76,"stim_onset":1581203334964,"block":0,"match_type":"non-match","image_category":"gun","sound_category":"cat","audio_type":"sound","phase":"practice","trial_type":"image-keyboard-response","trial_index":16,"time_elapsed":3813001,"internal_node_id":"0.0-10.0-2.1","match_key":"a","participant_id":"COGS219_2020_02","correct":true},{"rt":null,"stimulus":"Sounds/correct.wav","key_press":null,"block":0,"trial_type":"audio-keyboard-response","trial_index":17,"time_elapsed":3815017,"internal_node_id":"0.0-10.0-3.1","match_key":"a","participant_id":"COGS219_2020_02"},{"rt":null,"stimulus":"Sounds/cow_sound.wav","key_press":null,"block":0,"trial_type":"audio-keyboard-response","trial_index":18,"time_elapsed":3816033,"internal_node_id":"0.0-10.0-0.2","match_key":"a","participant_id":"COGS219_2020_02"},{"rt":null,"stimulus":"<p style=\"font-size: 48px;\">+</p>","key_press":null,"block":0,"trial_type":"html-keyboard-response","trial_index":19,"time_elapsed":3817027,"internal_node_id":"0.0-10.0-1.2","match_key":"a","participant_id":"COGS219_2020_02"},{"rt":716.5350000141189,"stimulus":"Images/cat_1.png","key_press":76,"stim_onset":1581203339581,"block":0,"match_type":"non-match","image_category":"cat","sound_category":"cow","audio_type":"sound","phase":"practice","trial_type":"image-keyboard-response","trial_index":20,"time_elapsed":3817745,"internal_node_id":"0.0-10.0-2.2","match_key":"a","participant_id":"COGS219_2020_02","correct":true},{"rt":null,"stimulus":"Sounds/correct.wav","key_press":null,"block":0,"trial_type":"audio-keyboard-response","trial_index":21,"time_elapsed":3819755,"internal_node_id":"0.0-10.0-3.2","match_key":"a","participant_id":"COGS219_2020_02"},{"rt":null,"stimulus":"Sounds/motorcycle_sound.wav","key_press":null,"block":0,"trial_type":"audio-keyboard-response","trial_index":22,"time_elapsed":3820873,"internal_node_id":"0.0-10.0-0.3","match_key":"a","participant_id":"COGS219_2020_02"},{"rt":null,"stimulus":"<p style=\"font-size: 48px;\">+</p>","key_press":null,"block":0,"trial_type":"html-keyboard-response","trial_index":23,"time_elapsed":3821877,"internal_node_id":"0.0-10.0-1.3","match_key":"a","participant_id":"COGS219_2020_02"},{"rt":698.7599999993108,"stimulus":"Images/motorcycle_cartoon.png","key_press":65,"stim_onset":1581203344431,"block":0,"match_type":"match","image_category":"motorcycle","sound_category":"motorcycle","audio_type":"sound","phase":"practice","trial_type":"image-keyboard-response","trial_index":24,"time_elapsed":3822577,"internal_node_id":"0.0-10.0-2.3","match_key":"a","participant_id":"COGS219_2020_02","correct":true},{"rt":null,"stimulus":"Sounds/correct.wav","key_press":null,"block":0,"trial_type":"audio-keyboard-response","trial_index":25,"time_elapsed":3824590,"internal_node_id":"0.0-10.0-3.3","match_key":"a","participant_id":"COGS219_2020_02"},{"rt":null,"stimulus":"Sounds/whistle_label.wav","key_press":null,"block":0,"trial_type":"audio-keyboard-response","trial_index":26,"time_elapsed":3825293,"internal_node_id":"0.0-10.0-0.4","match_key":"a","participant_id":"COGS219_2020_02"},{"rt":null,"stimulus":"<p style=\"font-size: 48px;\">+</p>","key_press":null,"block":0,"trial_type":"html-keyboard-response","trial_index":27,"time_elapsed":3826294,"internal_node_id":"0.0-10.0-1.4","match_key":"a","participant_id":"COGS219_2020_02"},{"rt":809.8299999837764,"stimulus":"Images/whistle_orig.png","key_press":65,"stim_onset":1581203348848,"block":0,"match_type":"match","image_category":"whistle","sound_category":"whistle","audio_type":"label","phase":"practice","trial_type":"image-keyboard-response","trial_index":28,"time_elapsed":3827105,"internal_node_id":"0.0-10.0-2.4","match_key":"a","participant_id":"COGS219_2020_02","correct":true},{"rt":null,"stimulus":"Sounds/correct.wav","key_press":null,"block":0,"trial_type":"audio-keyboard-response","trial_index":29,"time_elapsed":3829119,"internal_node_id":"0.0-10.0-3.4","match_key":"a","participant_id":"COGS219_2020_02"},{"rt":null,"stimulus":"Sounds/rooster_label.wav","key_press":null,"block":0,"trial_type":"audio-keyboard-response","trial_index":30,"time_elapsed":3829813,"internal_node_id":"0.0-10.0-0.5","match_key":"a","participant_id":"COGS219_2020_02"},{"rt":null,"stimulus":"<p style=\"font-size: 48px;\">+</p>","key_press":null,"block":0,"trial_type":"html-keyboard-response","trial_index":31,"time_elapsed":3830810,"internal_node_id":"0.0-10.0-1.5","match_key":"a","participant_id":"COGS219_2020_02"},{"rt":652.99499995308,"stimulus":"Images/dog_3.png","key_press":76,"stim_onset":1581203353365,"block":0,"match_type":"non-match","image_category":"dog","sound_category":"rooster","audio_type":"label","phase":"practice","trial_type":"image-keyboard-response","trial_index":32,"time_elapsed":3831465,"internal_node_id":"0.0-10.0-2.5","match_key":"a","participant_id":"COGS219_2020_02","correct":true},{"rt":null,"stimulus":"Sounds/correct.wav","key_press":null,"block":0,"trial_type":"audio-keyboard-response","trial_index":33,"time_elapsed":3833477,"internal_node_id":"0.0-10.0-3.5","match_key":"a","participant_id":"COGS219_2020_02"},{"rt":null,"stimulus":"Sounds/gun_sound.wav","key_press":null,"block":0,"trial_type":"audio-keyboard-response","trial_index":34,"time_elapsed":3834053,"internal_node_id":"0.0-10.0-0.6","match_key":"a","participant_id":"COGS219_2020_02"},{"rt":null,"stimulus":"<p style=\"font-size: 48px;\">+</p>","key_press":null,"block":0,"trial_type":"html-keyboard-response","trial_index":35,"time_elapsed":3835044,"internal_node_id":"0.0-10.0-1.6","match_key":"a","participant_id":"COGS219_2020_02"},{"rt":691.9249999918975,"stimulus":"Images/car_cartoon.png","key_press":76,"stim_onset":1581203357598,"block":0,"match_type":"non-match","image_category":"car","sound_category":"gun","audio_type":"sound","phase":"practice","trial_type":"image-keyboard-response","trial_index":36,"time_elapsed":3835737,"internal_node_id":"0.0-10.0-2.6","match_key":"a","participant_id":"COGS219_2020_02","correct":true},{"rt":null,"stimulus":"Sounds/correct.wav","key_press":null,"block":0,"trial_type":"audio-keyboard-response","trial_index":37,"time_elapsed":3837741,"internal_node_id":"0.0-10.0-3.6","match_key":"a","participant_id":"COGS219_2020_02"},{"rt":null,"stimulus":"Sounds/cow_label.wav","key_press":null,"block":0,"trial_type":"audio-keyboard-response","trial_index":38,"time_elapsed":3838753,"internal_node_id":"0.0-10.0-0.7","match_key":"a","participant_id":"COGS219_2020_02"},{"rt":null,"stimulus":"<p style=\"font-size: 48px;\">+</p>","key_press":null,"block":0,"trial_type":"html-keyboard-response","trial_index":39,"time_elapsed":3839744,"internal_node_id":"0.0-10.0-1.7","match_key":"a","participant_id":"COGS219_2020_02"},{"rt":775.7149999961257,"stimulus":"Images/cow_3.png","key_press":65,"stim_onset":1581203362298,"block":0,"match_type":"match","image_category":"cow","sound_category":"cow","audio_type":"label","phase":"practice","trial_type":"image-keyboard-response","trial_index":40,"time_elapsed":3840521,"internal_node_id":"0.0-10.0-2.7","match_key":"a","participant_id":"COGS219_2020_02","correct":true},{"rt":null,"stimulus":"Sounds/correct.wav","key_press":null,"block":0,"trial_type":"audio-keyboard-response","trial_index":41,"time_elapsed":3842537,"internal_node_id":"0.0-10.0-3.7","match_key":"a","participant_id":"COGS219_2020_02"},{"rt":null,"stimulus":"Sounds/gun_sound.wav","key_press":null,"block":0,"trial_type":"audio-keyboard-response","trial_index":42,"time_elapsed":3843093,"internal_node_id":"0.0-10.0-0.8","match_key":"a","participant_id":"COGS219_2020_02"},{"rt":null,"stimulus":"<p style=\"font-size: 48px;\">+</p>","key_press":null,"block":0,"trial_type":"html-keyboard-response","trial_index":43,"time_elapsed":3844111,"internal_node_id":"0.0-10.0-1.8","match_key":"a","participant_id":"COGS219_2020_02"},{"rt":776.8950000172481,"stimulus":"Images/gun_2.png","key_press":65,"stim_onset":1581203366665,"block":0,"match_type":"match","image_category":"gun","sound_category":"gun","audio_type":"sound","phase":"practice","trial_type":"image-keyboard-response","trial_index":44,"time_elapsed":3844889,"internal_node_id":"0.0-10.0-2.8","match_key":"a","participant_id":"COGS219_2020_02","correct":true},{"rt":null,"stimulus":"Sounds/correct.wav","key_press":null,"block":0,"trial_type":"audio-keyboard-response","trial_index":45,"time_elapsed":3846902,"internal_node_id":"0.0-10.0-3.8","match_key":"a","participant_id":"COGS219_2020_02"},{"rt":null,"stimulus":"Sounds/cat_label.wav","key_press":null,"block":0,"trial_type":"audio-keyboard-response","trial_index":46,"time_elapsed":3847733,"internal_node_id":"0.0-10.0-0.9","match_key":"a","participant_id":"COGS219_2020_02"},{"rt":null,"stimulus":"<p style=\"font-size: 48px;\">+</p>","key_press":null,"block":0,"trial_type":"html-keyboard-response","trial_index":47,"time_elapsed":3848727,"internal_node_id":"0.0-10.0-1.9","match_key":"a","participant_id":"COGS219_2020_02"},{"rt":624.5000000344589,"stimulus":"Images/cat_cartoon.png","key_press":65,"stim_onset":1581203371281,"block":0,"match_type":"match","image_category":"cat","sound_category":"cat","audio_type":"label","phase":"practice","trial_type":"image-keyboard-response","trial_index":48,"time_elapsed":3849353,"internal_node_id":"0.0-10.0-2.9","match_key":"a","participant_id":"COGS219_2020_02","correct":true},{"rt":null,"stimulus":"Sounds/correct.wav","key_press":null,"block":0,"trial_type":"audio-keyboard-response","trial_index":49,"time_elapsed":3851364,"internal_node_id":"0.0-10.0-3.9","match_key":"a","participant_id":"COGS219_2020_02"},{"rt":78012.8150000237,"stimulus":"<p>The rest of the experiment is divided into five blocks with 100 trials in each block. It will take about 45 minutes to complete.</p><p>The experimenter will be in the outer room and you can communicate with them through the monitor if you have any questions or wish to stop the experiment.</p>","key_press":40,"trial_type":"html-keyboard-response","trial_index":50,"time_elapsed":3929377,"internal_node_id":"0.0-11.0","match_key":"a","participant_id":"COGS219_2020_02"},{"rt":5790.525000018533,"stimulus":"<p>Remember, please try not to move or blink your eyes during the presentation of the images. </p><p>At the end of the experiment, we will show you your scores on the task so you can see how you did.</p><p>The experiment will start on the next screen.</p>","key_press":40,"trial_type":"html-keyboard-response","trial_index":51,"time_elapsed":3935168,"internal_node_id":"0.0-12.0","match_key":"a","participant_id":"COGS219_2020_02"},{"rt":null,"stimulus":"Sounds/dog_label.wav","key_press":null,"block":1,"trial_type":"audio-keyboard-response","trial_index":52,"time_elapsed":3937852,"internal_node_id":"0.0-13.0-0.0","match_key":"a","participant_id":"COGS219_2020_02"},{"rt":null,"stimulus":"<p style=\"font-size: 48px;\">+</p>","key_press":null,"block":1,"trial_type":"html-keyboard-response","trial_index":53,"time_elapsed":3938844,"internal_node_id":"0.0-13.0-1.0","match_key":"a","participant_id":"COGS219_2020_02"},{"rt":691.190000041388,"stimulus":"Images/cow_2.png","key_press":76,"stim_onset":1581203461398,"block":1,"match_type":"non-match","image_category":"cow","sound_category":"dog","audio_type":"label","phase":"test","trial_type":"image-keyboard-response","trial_index":54,"time_elapsed":3939536,"internal_node_id":"0.0-13.0-2.0","match_key":"a","participant_id":"COGS219_2020_02","correct":true},{"rt":null,"stimulus":"Sounds/correct.wav","key_press":null,"block":1,"trial_type":"audio-keyboard-response","trial_index":55,"time_elapsed":3941543,"internal_node_id":"0.0-13.0-3.0","match_key":"a","participant_id":"COGS219_2020_02"},{"rt":null,"stimulus":"Sounds/cat_sound.wav","key_press":null,"block":1,"trial_type":"audio-keyboard-response","trial_index":56,"time_elapsed":3942372,"internal_node_id":"0.0-13.0-0.1","match_key":"a","participant_id":"COGS219_2020_02"},{"rt":null,"stimulus":"<p style=\"font-size: 48px;\">+</p>","key_press":null,"block":1,"trial_type":"html-keyboard-response","trial_index":57,"time_elapsed":3943361,"internal_node_id":"0.0-13.0-1.1","match_key":"a","participant_id":"COGS219_2020_02"},{"rt":549.6300000231713,"stimulus":"Images/cat_3.png","key_press":65,"stim_onset":1581203465915,"block":1,"match_type":"match","image_category":"cat","sound_category":"cat","audio_type":"sound","phase":"test","trial_type":"image-keyboard-response","trial_index":58,"time_elapsed":3943912,"internal_node_id":"0.0-13.0-2.1","match_key":"a","participant_id":"COGS219_2020_02","correct":true},{"rt":null,"stimulus":"Sounds/correct.wav","key_press":null,"block":1,"trial_type":"audio-keyboard-response","trial_index":59,"time_elapsed":3945921,"internal_node_id":"0.0-13.0-3.1","match_key":"a","participant_id":"COGS219_2020_02"},{"rt":null,"stimulus":"Sounds/frog_label.wav","key_press":null,"block":1,"trial_type":"audio-keyboard-response","trial_index":60,"time_elapsed":3946811,"internal_node_id":"0.0-13.0-0.2","match_key":"a","participant_id":"COGS219_2020_02"},{"rt":null,"stimulus":"<p style=\"font-size: 48px;\">+</p>","key_press":null,"block":1,"trial_type":"html-keyboard-response","trial_index":61,"time_elapsed":3947811,"internal_node_id":"0.0-13.0-1.2","match_key":"a","participant_id":"COGS219_2020_02"},{"rt":556.0650000115857,"stimulus":"Images/frog_cartoon.png","key_press":65,"stim_onset":1581203470365,"block":1,"match_type":"match","image_category":"frog","sound_category":"frog","audio_type":"label","phase":"test","trial_type":"image-keyboard-response","trial_index":62,"time_elapsed":3948368,"internal_node_id":"0.0-13.0-2.2","match_key":"a","participant_id":"COGS219_2020_02","correct":true},{"rt":null,"stimulus":"Sounds/correct.wav","key_press":null,"block":1,"trial_type":"audio-keyboard-response","trial_index":63,"time_elapsed":3950373,"internal_node_id":"0.0-13.0-3.2","match_key":"a","participant_id":"COGS219_2020_02"},{"rt":null,"stimulus":"Sounds/motorcycle_label.wav","key_press":null,"block":1,"trial_type":"audio-keyboard-response","trial_index":64,"time_elapsed":3951511,"internal_node_id":"0.0-13.0-0.3","match_key":"a","participant_id":"COGS219_2020_02"},{"rt":null,"stimulus":"<p style=\"font-size: 48px;\">+</p>","key_press":null,"block":1,"trial_type":"html-keyboard-response","trial_index":65,"time_elapsed":3952511,"internal_node_id":"0.0-13.0-1.3","match_key":"a","participant_id":"COGS219_2020_02"},{"rt":576.0050000390038,"stimulus":"Images/cow_3.png","key_press":76,"stim_onset":1581203475065,"block":1,"match_type":"non-match","image_category":"cow","sound_category":"motorcycle","audio_type":"label","phase":"test","trial_type":"image-keyboard-response","trial_index":66,"time_elapsed":3953088,"internal_node_id":"0.0-13.0-2.3","match_key":"a","participant_id":"COGS219_2020_02","correct":true},{"rt":null,"stimulus":"Sounds/correct.wav","key_press":null,"block":1,"trial_type":"audio-keyboard-response","trial_index":67,"time_elapsed":3955101,"internal_node_id":"0.0-13.0-3.3","match_key":"a","participant_id":"COGS219_2020_02"},{"rt":null,"stimulus":"Sounds/frog_sound.wav","key_press":null,"block":1,"trial_type":"audio-keyboard-response","trial_index":68,"time_elapsed":3956011,"internal_node_id":"0.0-13.0-0.4","match_key":"a","participant_id":"COGS219_2020_02"},{"rt":null,"stimulus":"<p style=\"font-size: 48px;\">+</p>","key_press":null,"block":1,"trial_type":"html-keyboard-response","trial_index":69,"time_elapsed":3957011,"internal_node_id":"0.0-13.0-1.4","match_key":"a","participant_id":"COGS219_2020_02"},{"rt":588.0350000225008,"stimulus":"Images/rooster_1.png","key_press":76,"stim_onset":1581203479565,"block":1,"match_type":"non-match","image_category":"rooster","sound_category":"frog","audio_type":"sound","phase":"test","trial_type":"image-keyboard-response","trial_index":70,"time_elapsed":3957600,"internal_node_id":"0.0-13.0-2.4","match_key":"a","participant_id":"COGS219_2020_02","correct":true},{"rt":null,"stimulus":"Sounds/correct.wav","key_press":null,"block":1,"trial_type":"audio-keyboard-response","trial_index":71,"time_elapsed":3959618,"internal_node_id":"0.0-13.0-3.4","match_key":"a","participant_id":"COGS219_2020_02"},{"rt":null,"stimulus":"Sounds/cat_sound.wav","key_press":null,"block":1,"trial_type":"audio-keyboard-response","trial_index":72,"time_elapsed":3960452,"internal_node_id":"0.0-13.0-0.5","match_key":"a","participant_id":"COGS219_2020_02"},{"rt":null,"stimulus":"<p style=\"font-size: 48px;\">+</p>","key_press":null,"block":1,"trial_type":"html-keyboard-response","trial_index":73,"time_elapsed":3961445,"internal_node_id":"0.0-13.0-1.5","match_key":"a","participant_id":"COGS219_2020_02"},{"rt":586.2900000065565,"stimulus":"Images/gun_orig.png","key_press":76,"stim_onset":1581203483999,"block":1,"match_type":"non-match","image_category":"gun","sound_category":"cat","audio_type":"sound","phase":"test","trial_type":"image-keyboard-response","trial_index":74,"time_elapsed":3962032,"internal_node_id":"0.0-13.0-2.5","match_key":"a","participant_id":"COGS219_2020_02","correct":true},{"rt":null,"stimulus":"Sounds/correct.wav","key_press":null,"block":1,"trial_type":"audio-keyboard-response","trial_index":75,"time_elapsed":3964036,"internal_node_id":"0.0-13.0-3.5","match_key":"a","participant_id":"COGS219_2020_02"},{"rt":null,"stimulus":"Sounds/cow_label.wav","key_press":null,"block":1,"trial_type":"audio-keyboard-response","trial_index":76,"time_elapsed":3965052,"internal_node_id":"0.0-13.0-0.6","match_key":"a","participant_id":"COGS219_2020_02"},{"rt":null,"stimulus":"<p style=\"font-size: 48px;\">+</p>","key_press":null,"block":1,"trial_type":"html-keyboard-response","trial_index":77,"time_elapsed":3966044,"internal_node_id":"0.0-13.0-1.6","match_key":"a","participant_id":"COGS219_2020_02"},{"rt":658.6799999931827,"stimulus":"Images/rooster_orig.png","key_press":76,"stim_onset":1581203488599,"block":1,"match_type":"non-match","image_category":"rooster","sound_category":"cow","audio_type":"label","phase":"test","trial_type":"image-keyboard-response","trial_index":78,"time_elapsed":3966704,"internal_node_id":"0.0-13.0-2.6","match_key":"a","participant_id":"COGS219_2020_02","correct":true},{"rt":null,"stimulus":"Sounds/correct.wav","key_press":null,"block":1,"trial_type":"audio-keyboard-response","trial_index":79,"time_elapsed":3968714,"internal_node_id":"0.0-13.0-3.6","match_key":"a","participant_id":"COGS219_2020_02"},{"rt":null,"stimulus":"Sounds/whistle_label.wav","key_press":null,"block":1,"trial_type":"audio-keyboard-response","trial_index":80,"time_elapsed":3969412,"internal_node_id":"0.0-13.0-0.7","match_key":"a","participant_id":"COGS219_2020_02"},{"rt":null,"stimulus":"<p style=\"font-size: 48px;\">+</p>","key_press":null,"block":1,"trial_type":"html-keyboard-response","trial_index":81,"time_elapsed":3970411,"internal_node_id":"0.0-13.0-1.7","match_key":"a","participant_id":"COGS219_2020_02"},{"rt":803.8099999539554,"stimulus":"Images/whistle_3.png","key_press":65,"stim_onset":1581203492965,"block":1,"match_type":"match","image_category":"whistle","sound_category":"whistle","audio_type":"label","phase":"test","trial_type":"image-keyboard-response","trial_index":82,"time_elapsed":3971216,"internal_node_id":"0.0-13.0-2.7","match_key":"a","participant_id":"COGS219_2020_02","correct":true},{"rt":null,"stimulus":"Sounds/correct.wav","key_press":null,"block":1,"trial_type":"audio-keyboard-response","trial_index":83,"time_elapsed":3973222,"internal_node_id":"0.0-13.0-3.7","match_key":"a","participant_id":"COGS219_2020_02"},{"rt":null,"stimulus":"Sounds/train_label.wav","key_press":null,"block":1,"trial_type":"audio-keyboard-response","trial_index":84,"time_elapsed":3974492,"internal_node_id":"0.0-13.0-0.8","match_key":"a","participant_id":"COGS219_2020_02"},{"rt":null,"stimulus":"<p style=\"font-size: 48px;\">+</p>","key_press":null,"block":1,"trial_type":"html-keyboard-response","trial_index":85,"time_elapsed":3975495,"internal_node_id":"0.0-13.0-1.8","match_key":"a","participant_id":"COGS219_2020_02"},{"rt":543.4550000354648,"stimulus":"Images/car_orig.png","key_press":65,"stim_onset":1581203498049,"block":1,"match_type":"non-match","image_category":"car","sound_category":"train","audio_type":"label","phase":"test","trial_type":"image-keyboard-response","trial_index":86,"time_elapsed":3976040,"internal_node_id":"0.0-13.0-2.8","match_key":"a","participant_id":"COGS219_2020_02","correct":false},{"rt":null,"stimulus":"Sounds/incorrect.wav","key_press":null,"block":1,"trial_type":"audio-keyboard-response","trial_index":87,"time_elapsed":3978053,"internal_node_id":"0.0-13.0-3.8","match_key":"a","participant_id":"COGS219_2020_02"},{"rt":null,"stimulus":"Sounds/cow_sound.wav","key_press":null,"block":1,"trial_type":"audio-keyboard-response","trial_index":88,"time_elapsed":3979071,"internal_node_id":"0.0-13.0-0.9","match_key":"a","participant_id":"COGS219_2020_02"},{"rt":null,"stimulus":"<p style=\"font-size: 48px;\">+</p>","key_press":null,"block":1,"trial_type":"html-keyboard-response","trial_index":89,"time_elapsed":3980061,"internal_node_id":"0.0-13.0-1.9","match_key":"a","participant_id":"COGS219_2020_02"},{"rt":842.464999994263,"stimulus":"Images/cow_orig.png","key_press":65,"stim_onset":1581203502616,"block":1,"match_type":"match","image_category":"cow","sound_category":"cow","audio_type":"sound","phase":"test","trial_type":"image-keyboard-response","trial_index":90,"time_elapsed":3980905,"internal_node_id":"0.0-13.0-2.9","match_key":"a","participant_id":"COGS219_2020_02","correct":true},{"rt":null,"stimulus":"Sounds/correct.wav","key_press":null,"block":1,"trial_type":"audio-keyboard-response","trial_index":91,"time_elapsed":3982915,"internal_node_id":"0.0-13.0-3.9","match_key":"a","participant_id":"COGS219_2020_02"},{"rt":null,"stimulus":"Sounds/frog_sound.wav","key_press":null,"block":1,"trial_type":"audio-keyboard-response","trial_index":92,"time_elapsed":3983831,"internal_node_id":"0.0-13.0-0.10","match_key":"a","participant_id":"COGS219_2020_02"},{"rt":null,"stimulus":"<p style=\"font-size: 48px;\">+</p>","key_press":null,"block":1,"trial_type":"html-keyboard-response","trial_index":93,"time_elapsed":3984828,"internal_node_id":"0.0-13.0-1.10","match_key":"a","participant_id":"COGS219_2020_02"},{"rt":747.0249999896623,"stimulus":"Images/frog_2.png","key_press":65,"stim_onset":1581203507382,"block":1,"match_type":"match","image_category":"frog","sound_category":"frog","audio_type":"sound","phase":"test","trial_type":"image-keyboard-response","trial_index":94,"time_elapsed":3985576,"internal_node_id":"0.0-13.0-2.10","match_key":"a","participant_id":"COGS219_2020_02","correct":true},{"rt":null,"stimulus":"Sounds/correct.wav","key_press":null,"block":1,"trial_type":"audio-keyboard-response","trial_index":95,"time_elapsed":3987587,"internal_node_id":"0.0-13.0-3.10","match_key":"a","participant_id":"COGS219_2020_02"},{"rt":null,"stimulus":"Sounds/cow_sound.wav","key_press":null,"block":1,"trial_type":"audio-keyboard-response","trial_index":96,"time_elapsed":3988572,"internal_node_id":"0.0-13.0-0.11","match_key":"a","participant_id":"COGS219_2020_02"},{"rt":null,"stimulus":"<p style=\"font-size: 48px;\">+</p>","key_press":null,"block":1,"trial_type":"html-keyboard-response","trial_index":97,"time_elapsed":3989561,"internal_node_id":"0.0-13.0-1.11","match_key":"a","participant_id":"COGS219_2020_02"},{"rt":629.5650000101887,"stimulus":"Images/gun_cartoon.png","key_press":76,"stim_onset":1581203512116,"block":1,"match_type":"non-match","image_category":"gun","sound_category":"cow","audio_type":"sound","phase":"test","trial_type":"image-keyboard-response","trial_index":98,"time_elapsed":3990192,"internal_node_id":"0.0-13.0-2.11","match_key":"a","participant_id":"COGS219_2020_02","correct":true},{"rt":null,"stimulus":"Sounds/correct.wav","key_press":null,"block":1,"trial_type":"audio-keyboard-response","trial_index":99,"time_elapsed":3992203,"internal_node_id":"0.0-13.0-3.11","match_key":"a","participant_id":"COGS219_2020_02"},{"rt":null,"stimulus":"Sounds/cat_label.wav","key_press":null,"block":1,"trial_type":"audio-keyboard-response","trial_index":100,"time_elapsed":3993031,"internal_node_id":"0.0-13.0-0.12","match_key":"a","participant_id":"COGS219_2020_02"},{"rt":null,"stimulus":"<p style=\"font-size: 48px;\">+</p>","key_press":null,"block":1,"trial_type":"html-keyboard-response","trial_index":101,"time_elapsed":3994028,"internal_node_id":"0.0-13.0-1.12","match_key":"a","participant_id":"COGS219_2020_02"},{"rt":595.229999977164,"stimulus":"Images/dog_cartoon.png","key_press":76,"stim_onset":1581203516582,"block":1,"match_type":"non-match","image_category":"dog","sound_category":"cat","audio_type":"label","phase":"test","trial_type":"image-keyboard-response","trial_index":102,"time_elapsed":3994624,"internal_node_id":"0.0-13.0-2.12","match_key":"a","participant_id":"COGS219_2020_02","correct":true},{"rt":null,"stimulus":"Sounds/correct.wav","key_press":null,"block":1,"trial_type":"audio-keyboard-response","trial_index":103,"time_elapsed":3996637,"internal_node_id":"0.0-13.0-3.12","match_key":"a","participant_id":"COGS219_2020_02"},{"rt":null,"stimulus":"Sounds/whistle_sound.wav","key_press":null,"block":1,"trial_type":"audio-keyboard-response","trial_index":104,"time_elapsed":3997333,"internal_node_id":"0.0-13.0-0.13","match_key":"a","participant_id":"COGS219_2020_02"},{"rt":null,"stimulus":"<p style=\"font-size: 48px;\">+</p>","key_press":null,"block":1,"trial_type":"html-keyboard-response","trial_index":105,"time_elapsed":3998330,"internal_node_id":"0.0-13.0-1.13","match_key":"a","participant_id":"COGS219_2020_02"},{"rt":598.679999995511,"stimulus":"Images/car_3.png","key_press":76,"stim_onset":1581203520884,"block":1,"match_type":"non-match","image_category":"car","sound_category":"whistle","audio_type":"sound","phase":"test","trial_type":"image-keyboard-response","trial_index":106,"time_elapsed":3998930,"internal_node_id":"0.0-13.0-2.13","match_key":"a","participant_id":"COGS219_2020_02","correct":true},{"rt":null,"stimulus":"Sounds/correct.wav","key_press":null,"block":1,"trial_type":"audio-keyboard-response","trial_index":107,"time_elapsed":4000936,"internal_node_id":"0.0-13.0-3.13","match_key":"a","participant_id":"COGS219_2020_02"},{"rt":null,"stimulus":"Sounds/car_label.wav","key_press":null,"block":1,"trial_type":"audio-keyboard-response","trial_index":108,"time_elapsed":4002013,"internal_node_id":"0.0-13.0-0.14","match_key":"a","participant_id":"COGS219_2020_02"},{"rt":null,"stimulus":"<p style=\"font-size: 48px;\">+</p>","key_press":null,"block":1,"trial_type":"html-keyboard-response","trial_index":109,"time_elapsed":4003013,"internal_node_id":"0.0-13.0-1.14","match_key":"a","participant_id":"COGS219_2020_02"},{"rt":619.66999998549,"stimulus":"Images/gun_2.png","key_press":76,"stim_onset":1581203525567,"block":1,"match_type":"non-match","image_category":"gun","sound_category":"car","audio_type":"label","phase":"test","trial_type":"image-keyboard-response","trial_index":110,"time_elapsed":4003634,"internal_node_id":"0.0-13.0-2.14","match_key":"a","participant_id":"COGS219_2020_02","correct":true},{"rt":null,"stimulus":"Sounds/correct.wav","key_press":null,"block":1,"trial_type":"audio-keyboard-response","trial_index":111,"time_elapsed":4005650,"internal_node_id":"0.0-13.0-3.14","match_key":"a","participant_id":"COGS219_2020_02"},{"rt":null,"stimulus":"Sounds/motorcycle_label.wav","key_press":null,"block":1,"trial_type":"audio-keyboard-response","trial_index":112,"time_elapsed":4006793,"internal_node_id":"0.0-13.0-0.15","match_key":"a","participant_id":"COGS219_2020_02"},{"rt":null,"stimulus":"<p style=\"font-size: 48px;\">+</p>","key_press":null,"block":1,"trial_type":"html-keyboard-response","trial_index":113,"time_elapsed":4007797,"internal_node_id":"0.0-13.0-1.15","match_key":"a","participant_id":"COGS219_2020_02"},{"rt":740.1650000247173,"stimulus":"Images/cat_2.png","key_press":76,"stim_onset":1581203530351,"block":1,"match_type":"non-match","image_category":"cat","sound_category":"motorcycle","audio_type":"label","phase":"test","trial_type":"image-keyboard-response","trial_index":114,"time_elapsed":4008538,"internal_node_id":"0.0-13.0-2.15","match_key":"a","participant_id":"COGS219_2020_02","correct":true},{"rt":null,"stimulus":"Sounds/correct.wav","key_press":null,"block":1,"trial_type":"audio-keyboard-response","trial_index":115,"time_elapsed":4010541,"internal_node_id":"0.0-13.0-3.15","match_key":"a","participant_id":"COGS219_2020_02"},{"rt":null,"stimulus":"Sounds/frog_sound.wav","key_press":null,"block":1,"trial_type":"audio-keyboard-response","trial_index":116,"time_elapsed":4011453,"internal_node_id":"0.0-13.0-0.16","match_key":"a","participant_id":"COGS219_2020_02"},{"rt":null,"stimulus":"<p style=\"font-size: 48px;\">+</p>","key_press":null,"block":1,"trial_type":"html-keyboard-response","trial_index":117,"time_elapsed":4012447,"internal_node_id":"0.0-13.0-1.16","match_key":"a","participant_id":"COGS219_2020_02"},{"rt":697.9799999971874,"stimulus":"Images/frog_3.png","key_press":65,"stim_onset":1581203535001,"block":1,"match_type":"match","image_category":"frog","sound_category":"frog","audio_type":"sound","phase":"test","trial_type":"image-keyboard-response","trial_index":118,"time_elapsed":4013146,"internal_node_id":"0.0-13.0-2.16","match_key":"a","participant_id":"COGS219_2020_02","correct":true},{"rt":null,"stimulus":"Sounds/correct.wav","key_press":null,"block":1,"trial_type":"audio-keyboard-response","trial_index":119,"time_elapsed":4015160,"internal_node_id":"0.0-13.0-3.16","match_key":"a","participant_id":"COGS219_2020_02"},{"rt":null,"stimulus":"Sounds/gun_label.wav","key_press":null,"block":1,"trial_type":"audio-keyboard-response","trial_index":120,"time_elapsed":4015733,"internal_node_id":"0.0-13.0-0.17","match_key":"a","participant_id":"COGS219_2020_02"},{"rt":null,"stimulus":"<p style=\"font-size: 48px;\">+</p>","key_press":null,"block":1,"trial_type":"html-keyboard-response","trial_index":121,"time_elapsed":4016730,"internal_node_id":"0.0-13.0-1.17","match_key":"a","participant_id":"COGS219_2020_02"},{"rt":606.4299999852665,"stimulus":"Images/cow_cartoon.png","key_press":76,"stim_onset":1581203539284,"block":1,"match_type":"non-match","image_category":"cow","sound_category":"gun","audio_type":"label","phase":"test","trial_type":"image-keyboard-response","trial_index":122,"time_elapsed":4017338,"internal_node_id":"0.0-13.0-2.17","match_key":"a","participant_id":"COGS219_2020_02","correct":true},{"rt":null,"stimulus":"Sounds/correct.wav","key_press":null,"block":1,"trial_type":"audio-keyboard-response","trial_index":123,"time_elapsed":4019352,"internal_node_id":"0.0-13.0-3.17","match_key":"a","participant_id":"COGS219_2020_02"},{"rt":null,"stimulus":"Sounds/rooster_sound.wav","key_press":null,"block":1,"trial_type":"audio-keyboard-response","trial_index":124,"time_elapsed":4020053,"internal_node_id":"0.0-13.0-0.18","match_key":"a","participant_id":"COGS219_2020_02"},{"rt":null,"stimulus":"<p style=\"font-size: 48px;\">+</p>","key_press":null,"block":1,"trial_type":"html-keyboard-response","trial_index":125,"time_elapsed":4021047,"internal_node_id":"0.0-13.0-1.18","match_key":"a","participant_id":"COGS219_2020_02"},{"rt":562.4449999886565,"stimulus":"Images/car_2.png","key_press":76,"stim_onset":1581203543601,"block":1,"match_type":"non-match","image_category":"car","sound_category":"rooster","audio_type":"sound","phase":"test","trial_type":"image-keyboard-response","trial_index":126,"time_elapsed":4021610,"internal_node_id":"0.0-13.0-2.18","match_key":"a","participant_id":"COGS219_2020_02","correct":true},{"rt":null,"stimulus":"Sounds/correct.wav","key_press":null,"block":1,"trial_type":"audio-keyboard-response","trial_index":127,"time_elapsed":4023622,"internal_node_id":"0.0-13.0-3.18","match_key":"a","participant_id":"COGS219_2020_02"},{"rt":null,"stimulus":"Sounds/motorcycle_label.wav","key_press":null,"block":1,"trial_type":"audio-keyboard-response","trial_index":128,"time_elapsed":4024753,"internal_node_id":"0.0-13.0-0.19","match_key":"a","participant_id":"COGS219_2020_02"},{"rt":null,"stimulus":"<p style=\"font-size: 48px;\">+</p>","key_press":null,"block":1,"trial_type":"html-keyboard-response","trial_index":129,"time_elapsed":4025747,"internal_node_id":"0.0-13.0-1.19","match_key":"a","participant_id":"COGS219_2020_02"},{"rt":741.8150000157766,"stimulus":"Images/frog_2.png","key_press":76,"stim_onset":1581203548301,"block":1,"match_type":"non-match","image_category":"frog","sound_category":"motorcycle","audio_type":"label","phase":"test","trial_type":"image-keyboard-response","trial_index":130,"time_elapsed":4026490,"internal_node_id":"0.0-13.0-2.19","match_key":"a","participant_id":"COGS219_2020_02","correct":true},{"rt":null,"stimulus":"Sounds/correct.wav","key_press":null,"block":1,"trial_type":"audio-keyboard-response","trial_index":131,"time_elapsed":4028507,"internal_node_id":"0.0-13.0-3.19","match_key":"a","participant_id":"COGS219_2020_02"},{"rt":null,"stimulus":"Sounds/dog_sound.wav","key_press":null,"block":1,"trial_type":"audio-keyboard-response","trial_index":132,"time_elapsed":4029213,"internal_node_id":"0.0-13.0-0.20","match_key":"a","participant_id":"COGS219_2020_02"},{"rt":null,"stimulus":"<p style=\"font-size: 48px;\">+</p>","key_press":null,"block":1,"trial_type":"html-keyboard-response","trial_index":133,"time_elapsed":4030214,"internal_node_id":"0.0-13.0-1.20","match_key":"a","participant_id":"COGS219_2020_02"},{"rt":682.9900000011548,"stimulus":"Images/dog_1.png","key_press":65,"stim_onset":1581203552768,"block":1,"match_type":"match","image_category":"dog","sound_category":"dog","audio_type":"sound","phase":"test","trial_type":"image-keyboard-response","trial_index":134,"time_elapsed":4030898,"internal_node_id":"0.0-13.0-2.20","match_key":"a","participant_id":"COGS219_2020_02","correct":true},{"rt":null,"stimulus":"Sounds/correct.wav","key_press":null,"block":1,"trial_type":"audio-keyboard-response","trial_index":135,"time_elapsed":4032912,"internal_node_id":"0.0-13.0-3.20","match_key":"a","participant_id":"COGS219_2020_02"},{"rt":null,"stimulus":"Sounds/gun_label.wav","key_press":null,"block":1,"trial_type":"audio-keyboard-response","trial_index":136,"time_elapsed":4033473,"internal_node_id":"0.0-13.0-0.21","match_key":"a","participant_id":"COGS219_2020_02"},{"rt":null,"stimulus":"<p style=\"font-size: 48px;\">+</p>","key_press":null,"block":1,"trial_type":"html-keyboard-response","trial_index":137,"time_elapsed":4034464,"internal_node_id":"0.0-13.0-1.21","match_key":"a","participant_id":"COGS219_2020_02"},{"rt":537.2650000499561,"stimulus":"Images/gun_orig.png","key_press":65,"stim_onset":1581203557018,"block":1,"match_type":"match","image_category":"gun","sound_category":"gun","audio_type":"label","phase":"test","trial_type":"image-keyboard-response","trial_index":138,"time_elapsed":4035002,"internal_node_id":"0.0-13.0-2.21","match_key":"a","participant_id":"COGS219_2020_02","correct":true},{"rt":null,"stimulus":"Sounds/correct.wav","key_press":null,"block":1,"trial_type":"audio-keyboard-response","trial_index":139,"time_elapsed":4037006,"internal_node_id":"0.0-13.0-3.21","match_key":"a","participant_id":"COGS219_2020_02"},{"rt":null,"stimulus":"Sounds/rooster_sound.wav","key_press":null,"block":1,"trial_type":"audio-keyboard-response","trial_index":140,"time_elapsed":4037694,"internal_node_id":"0.0-13.0-0.22","match_key":"a","participant_id":"COGS219_2020_02"},{"rt":null,"stimulus":"<p style=\"font-size: 48px;\">+</p>","key_press":null,"block":1,"trial_type":"html-keyboard-response","trial_index":141,"time_elapsed":4038697,"internal_node_id":"0.0-13.0-1.22","match_key":"a","participant_id":"COGS219_2020_02"},{"rt":567.5700000138022,"stimulus":"Images/gun_1.png","key_press":76,"stim_onset":1581203561251,"block":1,"match_type":"non-match","image_category":"gun","sound_category":"rooster","audio_type":"sound","phase":"test","trial_type":"image-keyboard-response","trial_index":142,"time_elapsed":4039266,"internal_node_id":"0.0-13.0-2.22","match_key":"a","participant_id":"COGS219_2020_02","correct":true},{"rt":null,"stimulus":"Sounds/correct.wav","key_press":null,"block":1,"trial_type":"audio-keyboard-response","trial_index":143,"time_elapsed":4041271,"internal_node_id":"0.0-13.0-3.22","match_key":"a","participant_id":"COGS219_2020_02"},{"rt":null,"stimulus":"Sounds/car_label.wav","key_press":null,"block":1,"trial_type":"audio-keyboard-response","trial_index":144,"time_elapsed":4042353,"internal_node_id":"0.0-13.0-0.23","match_key":"a","participant_id":"COGS219_2020_02"},{"rt":null,"stimulus":"<p style=\"font-size: 48px;\">+</p>","key_press":null,"block":1,"trial_type":"html-keyboard-response","trial_index":145,"time_elapsed":4043347,"internal_node_id":"0.0-13.0-1.23","match_key":"a","participant_id":"COGS219_2020_02"},{"rt":549.6399999829009,"stimulus":"Images/car_3.png","key_press":65,"stim_onset":1581203565901,"block":1,"match_type":"match","image_category":"car","sound_category":"car","audio_type":"label","phase":"test","trial_type":"image-keyboard-response","trial_index":146,"time_elapsed":4043898,"internal_node_id":"0.0-13.0-2.23","match_key":"a","participant_id":"COGS219_2020_02","correct":true},{"rt":null,"stimulus":"Sounds/correct.wav","key_press":null,"block":1,"trial_type":"audio-keyboard-response","trial_index":147,"time_elapsed":4045907,"internal_node_id":"0.0-13.0-3.23","match_key":"a","participant_id":"COGS219_2020_02"},{"rt":null,"stimulus":"Sounds/whistle_sound.wav","key_press":null,"block":1,"trial_type":"audio-keyboard-response","trial_index":148,"time_elapsed":4046613,"internal_node_id":"0.0-13.0-0.24","match_key":"a","participant_id":"COGS219_2020_02"},{"rt":null,"stimulus":"<p style=\"font-size: 48px;\">+</p>","key_press":null,"block":1,"trial_type":"html-keyboard-response","trial_index":149,"time_elapsed":4047614,"internal_node_id":"0.0-13.0-1.24","match_key":"a","participant_id":"COGS219_2020_02"},{"rt":947.3749999888241,"stimulus":"Images/train_orig.png","key_press":76,"stim_onset":1581203570168,"block":1,"match_type":"non-match","image_category":"train","sound_category":"whistle","audio_type":"sound","phase":"test","trial_type":"image-keyboard-response","trial_index":150,"time_elapsed":4048562,"internal_node_id":"0.0-13.0-2.24","match_key":"a","participant_id":"COGS219_2020_02","correct":true},{"rt":null,"stimulus":"Sounds/correct.wav","key_press":null,"block":1,"trial_type":"audio-keyboard-response","trial_index":151,"time_elapsed":4050577,"internal_node_id":"0.0-13.0-3.24","match_key":"a","participant_id":"COGS219_2020_02"},{"rt":null,"stimulus":"Sounds/whistle_label.wav","key_press":null,"block":1,"trial_type":"audio-keyboard-response","trial_index":152,"time_elapsed":4051273,"internal_node_id":"0.0-13.0-0.25","match_key":"a","participant_id":"COGS219_2020_02"},{"rt":null,"stimulus":"<p style=\"font-size: 48px;\">+</p>","key_press":null,"block":1,"trial_type":"html-keyboard-response","trial_index":153,"time_elapsed":4052264,"internal_node_id":"0.0-13.0-1.25","match_key":"a","participant_id":"COGS219_2020_02"},{"rt":776.9700000062585,"stimulus":"Images/dog_2.png","key_press":76,"stim_onset":1581203574818,"block":1,"match_type":"non-match","image_category":"dog","sound_category":"whistle","audio_type":"label","phase":"test","trial_type":"image-keyboard-response","trial_index":154,"time_elapsed":4053042,"internal_node_id":"0.0-13.0-2.25","match_key":"a","participant_id":"COGS219_2020_02","correct":true},{"rt":null,"stimulus":"Sounds/correct.wav","key_press":null,"block":1,"trial_type":"audio-keyboard-response","trial_index":155,"time_elapsed":4055057,"internal_node_id":"0.0-13.0-3.25","match_key":"a","participant_id":"COGS219_2020_02"},{"rt":null,"stimulus":"Sounds/rooster_label.wav","key_press":null,"block":1,"trial_type":"audio-keyboard-response","trial_index":156,"time_elapsed":4055753,"internal_node_id":"0.0-13.0-0.26","match_key":"a","participant_id":"COGS219_2020_02"},{"rt":null,"stimulus":"<p style=\"font-size: 48px;\">+</p>","key_press":null,"block":1,"trial_type":"html-keyboard-response","trial_index":157,"time_elapsed":4056752,"internal_node_id":"0.0-13.0-1.26","match_key":"a","participant_id":"COGS219_2020_02"},{"rt":613.294999988284,"stimulus":"Images/dog_1.png","key_press":76,"stim_onset":1581203579306,"block":1,"match_type":"non-match","image_category":"dog","sound_category":"rooster","audio_type":"label","phase":"test","trial_type":"image-keyboard-response","trial_index":158,"time_elapsed":4057367,"internal_node_id":"0.0-13.0-2.26","match_key":"a","participant_id":"COGS219_2020_02","correct":true},{"rt":null,"stimulus":"Sounds/correct.wav","key_press":null,"block":1,"trial_type":"audio-keyboard-response","trial_index":159,"time_elapsed":4059374,"internal_node_id":"0.0-13.0-3.26","match_key":"a","participant_id":"COGS219_2020_02"},{"rt":null,"stimulus":"Sounds/gun_sound.wav","key_press":null,"block":1,"trial_type":"audio-keyboard-response","trial_index":160,"time_elapsed":4059958,"internal_node_id":"0.0-13.0-0.27","match_key":"a","participant_id":"COGS219_2020_02"},{"rt":null,"stimulus":"<p style=\"font-size: 48px;\">+</p>","key_press":null,"block":1,"trial_type":"html-keyboard-response","trial_index":161,"time_elapsed":4060952,"internal_node_id":"0.0-13.0-1.27","match_key":"a","participant_id":"COGS219_2020_02"},{"rt":765.769999998156,"stimulus":"Images/gun_3.png","key_press":65,"stim_onset":1581203583506,"block":1,"match_type":"match","image_category":"gun","sound_category":"gun","audio_type":"sound","phase":"test","trial_type":"image-keyboard-response","trial_index":162,"time_elapsed":4061719,"internal_node_id":"0.0-13.0-2.27","match_key":"a","participant_id":"COGS219_2020_02","correct":true},{"rt":null,"stimulus":"Sounds/correct.wav","key_press":null,"block":1,"trial_type":"audio-keyboard-response","trial_index":163,"time_elapsed":4063731,"internal_node_id":"0.0-13.0-3.27","match_key":"a","participant_id":"COGS219_2020_02"},{"rt":null,"stimulus":"Sounds/cow_label.wav","key_press":null,"block":1,"trial_type":"audio-keyboard-response","trial_index":164,"time_elapsed":4064758,"internal_node_id":"0.0-13.0-0.28","match_key":"a","participant_id":"COGS219_2020_02"},{"rt":null,"stimulus":"<p style=\"font-size: 48px;\">+</p>","key_press":null,"block":1,"trial_type":"html-keyboard-response","trial_index":165,"time_elapsed":4065752,"internal_node_id":"0.0-13.0-1.28","match_key":"a","participant_id":"COGS219_2020_02"},{"rt":645.299999974668,"stimulus":"Images/cow_3.png","key_press":65,"stim_onset":1581203588306,"block":1,"match_type":"match","image_category":"cow","sound_category":"cow","audio_type":"label","phase":"test","trial_type":"image-keyboard-response","trial_index":166,"time_elapsed":4066399,"internal_node_id":"0.0-13.0-2.28","match_key":"a","participant_id":"COGS219_2020_02","correct":true},{"rt":null,"stimulus":"Sounds/correct.wav","key_press":null,"block":1,"trial_type":"audio-keyboard-response","trial_index":167,"time_elapsed":4068405,"internal_node_id":"0.0-13.0-3.28","match_key":"a","participant_id":"COGS219_2020_02"},{"rt":null,"stimulus":"Sounds/cow_label.wav","key_press":null,"block":1,"trial_type":"audio-keyboard-response","trial_index":168,"time_elapsed":4069398,"internal_node_id":"0.0-13.0-0.29","match_key":"a","participant_id":"COGS219_2020_02"},{"rt":null,"stimulus":"<p style=\"font-size: 48px;\">+</p>","key_press":null,"block":1,"trial_type":"html-keyboard-response","trial_index":169,"time_elapsed":4070403,"internal_node_id":"0.0-13.0-1.29","match_key":"a","participant_id":"COGS219_2020_02"},{"rt":579.0699999779463,"stimulus":"Images/cat_1.png","key_press":76,"stim_onset":1581203592956,"block":1,"match_type":"non-match","image_category":"cat","sound_category":"cow","audio_type":"label","phase":"test","trial_type":"image-keyboard-response","trial_index":170,"time_elapsed":4070983,"internal_node_id":"0.0-13.0-2.29","match_key":"a","participant_id":"COGS219_2020_02","correct":true},{"rt":null,"stimulus":"Sounds/correct.wav","key_press":null,"block":1,"trial_type":"audio-keyboard-response","trial_index":171,"time_elapsed":4072992,"internal_node_id":"0.0-13.0-3.29","match_key":"a","participant_id":"COGS219_2020_02"},{"rt":null,"stimulus":"Sounds/dog_label.wav","key_press":null,"block":1,"trial_type":"audio-keyboard-response","trial_index":172,"time_elapsed":4073658,"internal_node_id":"0.0-13.0-0.30","match_key":"a","participant_id":"COGS219_2020_02"},{"rt":null,"stimulus":"<p style=\"font-size: 48px;\">+</p>","key_press":null,"block":1,"trial_type":"html-keyboard-response","trial_index":173,"time_elapsed":4074652,"internal_node_id":"0.0-13.0-1.30","match_key":"a","participant_id":"COGS219_2020_02"},{"rt":504.030000010971,"stimulus":"Images/dog_cartoon.png","key_press":65,"stim_onset":1581203597206,"block":1,"match_type":"match","image_category":"dog","sound_category":"dog","audio_type":"label","phase":"test","trial_type":"image-keyboard-response","trial_index":174,"time_elapsed":4075159,"internal_node_id":"0.0-13.0-2.30","match_key":"a","participant_id":"COGS219_2020_02","correct":true},{"rt":null,"stimulus":"Sounds/correct.wav","key_press":null,"block":1,"trial_type":"audio-keyboard-response","trial_index":175,"time_elapsed":4077165,"internal_node_id":"0.0-13.0-3.30","match_key":"a","participant_id":"COGS219_2020_02"},{"rt":null,"stimulus":"Sounds/whistle_sound.wav","key_press":null,"block":1,"trial_type":"audio-keyboard-response","trial_index":176,"time_elapsed":4077858,"internal_node_id":"0.0-13.0-0.31","match_key":"a","participant_id":"COGS219_2020_02"},{"rt":null,"stimulus":"<p style=\"font-size: 48px;\">+</p>","key_press":null,"block":1,"trial_type":"html-keyboard-response","trial_index":177,"time_elapsed":4078852,"internal_node_id":"0.0-13.0-1.31","match_key":"a","participant_id":"COGS219_2020_02"},{"rt":665.2549999998882,"stimulus":"Images/frog_cartoon.png","key_press":76,"stim_onset":1581203601406,"block":1,"match_type":"non-match","image_category":"frog","sound_category":"whistle","audio_type":"sound","phase":"test","trial_type":"image-keyboard-response","trial_index":178,"time_elapsed":4079519,"internal_node_id":"0.0-13.0-2.31","match_key":"a","participant_id":"COGS219_2020_02","correct":true},{"rt":null,"stimulus":"Sounds/correct.wav","key_press":null,"block":1,"trial_type":"audio-keyboard-response","trial_index":179,"time_elapsed":4081536,"internal_node_id":"0.0-13.0-3.31","match_key":"a","participant_id":"COGS219_2020_02"},{"rt":null,"stimulus":"Sounds/car_sound.wav","key_press":null,"block":1,"trial_type":"audio-keyboard-response","trial_index":180,"time_elapsed":4082618,"internal_node_id":"0.0-13.0-0.32","match_key":"a","participant_id":"COGS219_2020_02"},{"rt":null,"stimulus":"<p style=\"font-size: 48px;\">+</p>","key_press":null,"block":1,"trial_type":"html-keyboard-response","trial_index":181,"time_elapsed":4083636,"internal_node_id":"0.0-13.0-1.32","match_key":"a","participant_id":"COGS219_2020_02"},{"rt":505.83000003825873,"stimulus":"Images/cow_1.png","key_press":76,"stim_onset":1581203606190,"block":1,"match_type":"non-match","image_category":"cow","sound_category":"car","audio_type":"sound","phase":"test","trial_type":"image-keyboard-response","trial_index":182,"time_elapsed":4084143,"internal_node_id":"0.0-13.0-2.32","match_key":"a","participant_id":"COGS219_2020_02","correct":true},{"rt":null,"stimulus":"Sounds/correct.wav","key_press":null,"block":1,"trial_type":"audio-keyboard-response","trial_index":183,"time_elapsed":4086146,"internal_node_id":"0.0-13.0-3.32","match_key":"a","participant_id":"COGS219_2020_02"},{"rt":null,"stimulus":"Sounds/train_label.wav","key_press":null,"block":1,"trial_type":"audio-keyboard-response","trial_index":184,"time_elapsed":4087418,"internal_node_id":"0.0-13.0-0.33","match_key":"a","participant_id":"COGS219_2020_02"},{"rt":null,"stimulus":"<p style=\"font-size: 48px;\">+</p>","key_press":null,"block":1,"trial_type":"html-keyboard-response","trial_index":185,"time_elapsed":4088436,"internal_node_id":"0.0-13.0-1.33","match_key":"a","participant_id":"COGS219_2020_02"},{"rt":490.189999982249,"stimulus":"Images/rooster_2.png","key_press":76,"stim_onset":1581203610991,"block":1,"match_type":"non-match","image_category":"rooster","sound_category":"train","audio_type":"label","phase":"test","trial_type":"image-keyboard-response","trial_index":186,"time_elapsed":4088927,"internal_node_id":"0.0-13.0-2.33","match_key":"a","participant_id":"COGS219_2020_02","correct":true},{"rt":null,"stimulus":"Sounds/correct.wav","key_press":null,"block":1,"trial_type":"audio-keyboard-response","trial_index":187,"time_elapsed":4090932,"internal_node_id":"0.0-13.0-3.33","match_key":"a","participant_id":"COGS219_2020_02"},{"rt":null,"stimulus":"Sounds/dog_sound.wav","key_press":null,"block":1,"trial_type":"audio-keyboard-response","trial_index":188,"time_elapsed":4091638,"internal_node_id":"0.0-13.0-0.34","match_key":"a","participant_id":"COGS219_2020_02"},{"rt":null,"stimulus":"<p style=\"font-size: 48px;\">+</p>","key_press":null,"block":1,"trial_type":"html-keyboard-response","trial_index":189,"time_elapsed":4092636,"internal_node_id":"0.0-13.0-1.34","match_key":"a","participant_id":"COGS219_2020_02"},{"rt":529.6699999598786,"stimulus":"Images/dog_3.png","key_press":65,"stim_onset":1581203615190,"block":1,"match_type":"match","image_category":"dog","sound_category":"dog","audio_type":"sound","phase":"test","trial_type":"image-keyboard-response","trial_index":190,"time_elapsed":4093167,"internal_node_id":"0.0-13.0-2.34","match_key":"a","participant_id":"COGS219_2020_02","correct":true},{"rt":null,"stimulus":"Sounds/correct.wav","key_press":null,"block":1,"trial_type":"audio-keyboard-response","trial_index":191,"time_elapsed":4095178,"internal_node_id":"0.0-13.0-3.34","match_key":"a","participant_id":"COGS219_2020_02"},{"rt":null,"stimulus":"Sounds/rooster_sound.wav","key_press":null,"block":1,"trial_type":"audio-keyboard-response","trial_index":192,"time_elapsed":4095878,"internal_node_id":"0.0-13.0-0.35","match_key":"a","participant_id":"COGS219_2020_02"},{"rt":null,"stimulus":"<p style=\"font-size: 48px;\">+</p>","key_press":null,"block":1,"trial_type":"html-keyboard-response","trial_index":193,"time_elapsed":4096869,"internal_node_id":"0.0-13.0-1.35","match_key":"a","participant_id":"COGS219_2020_02"},{"rt":536.2050000112504,"stimulus":"Images/rooster_cartoon.png","key_press":65,"stim_onset":1581203619423,"block":1,"match_type":"match","image_category":"rooster","sound_category":"rooster","audio_type":"sound","phase":"test","trial_type":"image-keyboard-response","trial_index":194,"time_elapsed":4097407,"internal_node_id":"0.0-13.0-2.35","match_key":"a","participant_id":"COGS219_2020_02","correct":true},{"rt":null,"stimulus":"Sounds/correct.wav","key_press":null,"block":1,"trial_type":"audio-keyboard-response","trial_index":195,"time_elapsed":4099414,"internal_node_id":"0.0-13.0-3.35","match_key":"a","participant_id":"COGS219_2020_02"},{"rt":null,"stimulus":"Sounds/gun_label.wav","key_press":null,"block":1,"trial_type":"audio-keyboard-response","trial_index":196,"time_elapsed":4099998,"internal_node_id":"0.0-13.0-0.36","match_key":"a","participant_id":"COGS219_2020_02"},{"rt":null,"stimulus":"<p style=\"font-size: 48px;\">+</p>","key_press":null,"block":1,"trial_type":"html-keyboard-response","trial_index":197,"time_elapsed":4101003,"internal_node_id":"0.0-13.0-1.36","match_key":"a","participant_id":"COGS219_2020_02"},{"rt":851.0299999616109,"stimulus":"Images/whistle_cartoon.png","key_press":76,"stim_onset":1581203623557,"block":1,"match_type":"non-match","image_category":"whistle","sound_category":"gun","audio_type":"label","phase":"test","trial_type":"image-keyboard-response","trial_index":198,"time_elapsed":4101855,"internal_node_id":"0.0-13.0-2.36","match_key":"a","participant_id":"COGS219_2020_02","correct":true},{"rt":null,"stimulus":"Sounds/correct.wav","key_press":null,"block":1,"trial_type":"audio-keyboard-response","trial_index":199,"time_elapsed":4103872,"internal_node_id":"0.0-13.0-3.36","match_key":"a","participant_id":"COGS219_2020_02"},{"rt":null,"stimulus":"Sounds/rooster_sound.wav","key_press":null,"block":1,"trial_type":"audio-keyboard-response","trial_index":200,"time_elapsed":4104538,"internal_node_id":"0.0-13.0-0.37","match_key":"a","participant_id":"COGS219_2020_02"},{"rt":null,"stimulus":"<p style=\"font-size: 48px;\">+</p>","key_press":null,"block":1,"trial_type":"html-keyboard-response","trial_index":201,"time_elapsed":4105536,"internal_node_id":"0.0-13.0-1.37","match_key":"a","participant_id":"COGS219_2020_02"},{"rt":621.5950000332668,"stimulus":"Images/train_3.png","key_press":76,"stim_onset":1581203628091,"block":1,"match_type":"non-match","image_category":"train","sound_category":"rooster","audio_type":"sound","phase":"test","trial_type":"image-keyboard-response","trial_index":202,"time_elapsed":4106159,"internal_node_id":"0.0-13.0-2.37","match_key":"a","participant_id":"COGS219_2020_02","correct":true},{"rt":null,"stimulus":"Sounds/correct.wav","key_press":null,"block":1,"trial_type":"audio-keyboard-response","trial_index":203,"time_elapsed":4108172,"internal_node_id":"0.0-13.0-3.37","match_key":"a","participant_id":"COGS219_2020_02"},{"rt":null,"stimulus":"Sounds/dog_sound.wav","key_press":null,"block":1,"trial_type":"audio-keyboard-response","trial_index":204,"time_elapsed":4108858,"internal_node_id":"0.0-13.0-0.38","match_key":"a","participant_id":"COGS219_2020_02"},{"rt":null,"stimulus":"<p style=\"font-size: 48px;\">+</p>","key_press":null,"block":1,"trial_type":"html-keyboard-response","trial_index":205,"time_elapsed":4109853,"internal_node_id":"0.0-13.0-1.38","match_key":"a","participant_id":"COGS219_2020_02"},{"rt":504.8500000266358,"stimulus":"Images/rooster_3.png","key_press":76,"stim_onset":1581203632407,"block":1,"match_type":"non-match","image_category":"rooster","sound_category":"dog","audio_type":"sound","phase":"test","trial_type":"image-keyboard-response","trial_index":206,"time_elapsed":4110359,"internal_node_id":"0.0-13.0-2.38","match_key":"a","participant_id":"COGS219_2020_02","correct":true},{"rt":null,"stimulus":"Sounds/correct.wav","key_press":null,"block":1,"trial_type":"audio-keyboard-response","trial_index":207,"time_elapsed":4112364,"internal_node_id":"0.0-13.0-3.38","match_key":"a","participant_id":"COGS219_2020_02"},{"rt":null,"stimulus":"Sounds/rooster_sound.wav","key_press":null,"block":1,"trial_type":"audio-keyboard-response","trial_index":208,"time_elapsed":4113038,"internal_node_id":"0.0-13.0-0.39","match_key":"a","participant_id":"COGS219_2020_02"},{"rt":null,"stimulus":"<p style=\"font-size: 48px;\">+</p>","key_press":null,"block":1,"trial_type":"html-keyboard-response","trial_index":209,"time_elapsed":4114036,"internal_node_id":"0.0-13.0-1.39","match_key":"a","participant_id":"COGS219_2020_02"},{"rt":737.9400000208989,"stimulus":"Images/whistle_1.png","key_press":76,"stim_onset":1581203636591,"block":1,"match_type":"non-match","image_category":"whistle","sound_category":"rooster","audio_type":"sound","phase":"test","trial_type":"image-keyboard-response","trial_index":210,"time_elapsed":4114775,"internal_node_id":"0.0-13.0-2.39","match_key":"a","participant_id":"COGS219_2020_02","correct":true},{"rt":null,"stimulus":"Sounds/correct.wav","key_press":null,"block":1,"trial_type":"audio-keyboard-response","trial_index":211,"time_elapsed":4116784,"internal_node_id":"0.0-13.0-3.39","match_key":"a","participant_id":"COGS219_2020_02"},{"rt":null,"stimulus":"Sounds/train_sound.wav","key_press":null,"block":1,"trial_type":"audio-keyboard-response","trial_index":212,"time_elapsed":4118083,"internal_node_id":"0.0-13.0-0.40","match_key":"a","participant_id":"COGS219_2020_02"},{"rt":null,"stimulus":"<p style=\"font-size: 48px;\">+</p>","key_press":null,"block":1,"trial_type":"html-keyboard-response","trial_index":213,"time_elapsed":4119074,"internal_node_id":"0.0-13.0-1.40","match_key":"a","participant_id":"COGS219_2020_02"},{"rt":824.2099999915808,"stimulus":"Images/train_orig.png","key_press":65,"stim_onset":1581203641628,"block":1,"match_type":"match","image_category":"train","sound_category":"train","audio_type":"sound","phase":"test","trial_type":"image-keyboard-response","trial_index":214,"time_elapsed":4119899,"internal_node_id":"0.0-13.0-2.40","match_key":"a","participant_id":"COGS219_2020_02","correct":true},{"rt":null,"stimulus":"Sounds/correct.wav","key_press":null,"block":1,"trial_type":"audio-keyboard-response","trial_index":215,"time_elapsed":4121914,"internal_node_id":"0.0-13.0-3.40","match_key":"a","participant_id":"COGS219_2020_02"},{"rt":null,"stimulus":"Sounds/frog_label.wav","key_press":null,"block":1,"trial_type":"audio-keyboard-response","trial_index":216,"time_elapsed":4122823,"internal_node_id":"0.0-13.0-0.41","match_key":"a","participant_id":"COGS219_2020_02"},{"rt":null,"stimulus":"<p style=\"font-size: 48px;\">+</p>","key_press":null,"block":1,"trial_type":"html-keyboard-response","trial_index":217,"time_elapsed":4123841,"internal_node_id":"0.0-13.0-1.41","match_key":"a","participant_id":"COGS219_2020_02"},{"rt":457.4649999849498,"stimulus":"Images/frog_orig.png","key_press":65,"stim_onset":1581203646395,"block":1,"match_type":"match","image_category":"frog","sound_category":"frog","audio_type":"label","phase":"test","trial_type":"image-keyboard-response","trial_index":218,"time_elapsed":4124299,"internal_node_id":"0.0-13.0-2.41","match_key":"a","participant_id":"COGS219_2020_02","correct":true},{"rt":null,"stimulus":"Sounds/correct.wav","key_press":null,"block":1,"trial_type":"audio-keyboard-response","trial_index":219,"time_elapsed":4126307,"internal_node_id":"0.0-13.0-3.41","match_key":"a","participant_id":"COGS219_2020_02"},{"rt":null,"stimulus":"Sounds/cow_sound.wav","key_press":null,"block":1,"trial_type":"audio-keyboard-response","trial_index":220,"time_elapsed":4127323,"internal_node_id":"0.0-13.0-0.42","match_key":"a","participant_id":"COGS219_2020_02"},{"rt":null,"stimulus":"<p style=\"font-size: 48px;\">+</p>","key_press":null,"block":1,"trial_type":"html-keyboard-response","trial_index":221,"time_elapsed":4128341,"internal_node_id":"0.0-13.0-1.42","match_key":"a","participant_id":"COGS219_2020_02"},{"rt":509.8800000268966,"stimulus":"Images/cow_cartoon.png","key_press":65,"stim_onset":1581203650895,"block":1,"match_type":"match","image_category":"cow","sound_category":"cow","audio_type":"sound","phase":"test","trial_type":"image-keyboard-response","trial_index":222,"time_elapsed":4128851,"internal_node_id":"0.0-13.0-2.42","match_key":"a","participant_id":"COGS219_2020_02","correct":true},{"rt":null,"stimulus":"Sounds/correct.wav","key_press":null,"block":1,"trial_type":"audio-keyboard-response","trial_index":223,"time_elapsed":4130854,"internal_node_id":"0.0-13.0-3.42","match_key":"a","participant_id":"COGS219_2020_02"},{"rt":null,"stimulus":"Sounds/cat_label.wav","key_press":null,"block":1,"trial_type":"audio-keyboard-response","trial_index":224,"time_elapsed":4131683,"internal_node_id":"0.0-13.0-0.43","match_key":"a","participant_id":"COGS219_2020_02"},{"rt":null,"stimulus":"<p style=\"font-size: 48px;\">+</p>","key_press":null,"block":1,"trial_type":"html-keyboard-response","trial_index":225,"time_elapsed":4132674,"internal_node_id":"0.0-13.0-1.43","match_key":"a","participant_id":"COGS219_2020_02"},{"rt":544.1250000149012,"stimulus":"Images/cow_orig.png","key_press":76,"stim_onset":1581203655228,"block":1,"match_type":"non-match","image_category":"cow","sound_category":"cat","audio_type":"label","phase":"test","trial_type":"image-keyboard-response","trial_index":226,"time_elapsed":4133219,"internal_node_id":"0.0-13.0-2.43","match_key":"a","participant_id":"COGS219_2020_02","correct":true},{"rt":null,"stimulus":"Sounds/correct.wav","key_press":null,"block":1,"trial_type":"audio-keyboard-response","trial_index":227,"time_elapsed":4135235,"internal_node_id":"0.0-13.0-3.43","match_key":"a","participant_id":"COGS219_2020_02"},{"rt":null,"stimulus":"Sounds/whistle_sound.wav","key_press":null,"block":1,"trial_type":"audio-keyboard-response","trial_index":228,"time_elapsed":4135923,"internal_node_id":"0.0-13.0-0.44","match_key":"a","participant_id":"COGS219_2020_02"},{"rt":null,"stimulus":"<p style=\"font-size: 48px;\">+</p>","key_press":null,"block":1,"trial_type":"html-keyboard-response","trial_index":229,"time_elapsed":4136941,"internal_node_id":"0.0-13.0-1.44","match_key":"a","participant_id":"COGS219_2020_02"},{"rt":620.9900000249036,"stimulus":"Images/whistle_orig.png","key_press":65,"stim_onset":1581203659495,"block":1,"match_type":"match","image_category":"whistle","sound_category":"whistle","audio_type":"sound","phase":"test","trial_type":"image-keyboard-response","trial_index":230,"time_elapsed":4137563,"internal_node_id":"0.0-13.0-2.44","match_key":"a","participant_id":"COGS219_2020_02","correct":true},{"rt":null,"stimulus":"Sounds/correct.wav","key_press":null,"block":1,"trial_type":"audio-keyboard-response","trial_index":231,"time_elapsed":4139576,"internal_node_id":"0.0-13.0-3.44","match_key":"a","participant_id":"COGS219_2020_02"},{"rt":null,"stimulus":"Sounds/car_label.wav","key_press":null,"block":1,"trial_type":"audio-keyboard-response","trial_index":232,"time_elapsed":4140663,"internal_node_id":"0.0-13.0-0.45","match_key":"a","participant_id":"COGS219_2020_02"},{"rt":null,"stimulus":"<p style=\"font-size: 48px;\">+</p>","key_press":null,"block":1,"trial_type":"html-keyboard-response","trial_index":233,"time_elapsed":4141658,"internal_node_id":"0.0-13.0-1.45","match_key":"a","participant_id":"COGS219_2020_02"},{"rt":1016.5999999735504,"stimulus":"Images/car_2.png","key_press":65,"stim_onset":1581203664212,"block":1,"match_type":"match","image_category":"car","sound_category":"car","audio_type":"label","phase":"test","trial_type":"image-keyboard-response","trial_index":234,"time_elapsed":4142675,"internal_node_id":"0.0-13.0-2.45","match_key":"a","participant_id":"COGS219_2020_02","correct":true},{"rt":null,"stimulus":"Sounds/correct.wav","key_press":null,"block":1,"trial_type":"audio-keyboard-response","trial_index":235,"time_elapsed":4144683,"internal_node_id":"0.0-13.0-3.45","match_key":"a","participant_id":"COGS219_2020_02"},{"rt":null,"stimulus":"Sounds/cow_label.wav","key_press":null,"block":1,"trial_type":"audio-keyboard-response","trial_index":236,"time_elapsed":4145703,"internal_node_id":"0.0-13.0-0.46","match_key":"a","participant_id":"COGS219_2020_02"},{"rt":null,"stimulus":"<p style=\"font-size: 48px;\">+</p>","key_press":null,"block":1,"trial_type":"html-keyboard-response","trial_index":237,"time_elapsed":4146708,"internal_node_id":"0.0-13.0-1.46","match_key":"a","participant_id":"COGS219_2020_02"},{"rt":510.34499995876104,"stimulus":"Images/motorcycle_1.png","key_press":76,"stim_onset":1581203669262,"block":1,"match_type":"non-match","image_category":"motorcycle","sound_category":"cow","audio_type":"label","phase":"test","trial_type":"image-keyboard-response","trial_index":238,"time_elapsed":4147219,"internal_node_id":"0.0-13.0-2.46","match_key":"a","participant_id":"COGS219_2020_02","correct":true},{"rt":null,"stimulus":"Sounds/correct.wav","key_press":null,"block":1,"trial_type":"audio-keyboard-response","trial_index":239,"time_elapsed":4149235,"internal_node_id":"0.0-13.0-3.46","match_key":"a","participant_id":"COGS219_2020_02"},{"rt":null,"stimulus":"Sounds/train_sound.wav","key_press":null,"block":1,"trial_type":"audio-keyboard-response","trial_index":240,"time_elapsed":4150543,"internal_node_id":"0.0-13.0-0.47","match_key":"a","participant_id":"COGS219_2020_02"},{"rt":null,"stimulus":"<p style=\"font-size: 48px;\">+</p>","key_press":null,"block":1,"trial_type":"html-keyboard-response","trial_index":241,"time_elapsed":4151541,"internal_node_id":"0.0-13.0-1.47","match_key":"a","participant_id":"COGS219_2020_02"},{"rt":533.2349999807775,"stimulus":"Images/dog_orig.png","key_press":76,"stim_onset":1581203674095,"block":1,"match_type":"non-match","image_category":"dog","sound_category":"train","audio_type":"sound","phase":"test","trial_type":"image-keyboard-response","trial_index":242,"time_elapsed":4152075,"internal_node_id":"0.0-13.0-2.47","match_key":"a","participant_id":"COGS219_2020_02","correct":true},{"rt":null,"stimulus":"Sounds/correct.wav","key_press":null,"block":1,"trial_type":"audio-keyboard-response","trial_index":243,"time_elapsed":4154082,"internal_node_id":"0.0-13.0-3.47","match_key":"a","participant_id":"COGS219_2020_02"},{"rt":null,"stimulus":"Sounds/car_sound.wav","key_press":null,"block":1,"trial_type":"audio-keyboard-response","trial_index":244,"time_elapsed":4155163,"internal_node_id":"0.0-13.0-0.48","match_key":"a","participant_id":"COGS219_2020_02"},{"rt":null,"stimulus":"<p style=\"font-size: 48px;\">+</p>","key_press":null,"block":1,"trial_type":"html-keyboard-response","trial_index":245,"time_elapsed":4156158,"internal_node_id":"0.0-13.0-1.48","match_key":"a","participant_id":"COGS219_2020_02"},{"rt":876.9750000210479,"stimulus":"Images/train_1.png","key_press":76,"stim_onset":1581203678712,"block":1,"match_type":"non-match","image_category":"train","sound_category":"car","audio_type":"sound","phase":"test","trial_type":"image-keyboard-response","trial_index":246,"time_elapsed":4157036,"internal_node_id":"0.0-13.0-2.48","match_key":"a","participant_id":"COGS219_2020_02","correct":true},{"rt":null,"stimulus":"Sounds/correct.wav","key_press":null,"block":1,"trial_type":"audio-keyboard-response","trial_index":247,"time_elapsed":4159046,"internal_node_id":"0.0-13.0-3.48","match_key":"a","participant_id":"COGS219_2020_02"},{"rt":null,"stimulus":"Sounds/car_label.wav","key_press":null,"block":1,"trial_type":"audio-keyboard-response","trial_index":248,"time_elapsed":4160123,"internal_node_id":"0.0-13.0-0.49","match_key":"a","participant_id":"COGS219_2020_02"},{"rt":null,"stimulus":"<p style=\"font-size: 48px;\">+</p>","key_press":null,"block":1,"trial_type":"html-keyboard-response","trial_index":249,"time_elapsed":4161141,"internal_node_id":"0.0-13.0-1.49","match_key":"a","participant_id":"COGS219_2020_02"},{"rt":1092.9049999685958,"stimulus":"Images/car_cartoon.png","key_press":65,"stim_onset":1581203683695,"block":1,"match_type":"match","image_category":"car","sound_category":"car","audio_type":"label","phase":"test","trial_type":"image-keyboard-response","trial_index":250,"time_elapsed":4162235,"internal_node_id":"0.0-13.0-2.49","match_key":"a","participant_id":"COGS219_2020_02","correct":true},{"rt":null,"stimulus":"Sounds/correct.wav","key_press":null,"block":1,"trial_type":"audio-keyboard-response","trial_index":251,"time_elapsed":4164241,"internal_node_id":"0.0-13.0-3.49","match_key":"a","participant_id":"COGS219_2020_02"},{"rt":null,"stimulus":"Sounds/motorcycle_label.wav","key_press":null,"block":1,"trial_type":"audio-keyboard-response","trial_index":252,"time_elapsed":4165383,"internal_node_id":"0.0-13.0-0.50","match_key":"a","participant_id":"COGS219_2020_02"},{"rt":null,"stimulus":"<p style=\"font-size: 48px;\">+</p>","key_press":null,"block":1,"trial_type":"html-keyboard-response","trial_index":253,"time_elapsed":4166374,"internal_node_id":"0.0-13.0-1.50","match_key":"a","participant_id":"COGS219_2020_02"},{"rt":587.824999995064,"stimulus":"Images/whistle_orig.png","key_press":76,"stim_onset":1581203688929,"block":1,"match_type":"non-match","image_category":"whistle","sound_category":"motorcycle","audio_type":"label","phase":"test","trial_type":"image-keyboard-response","trial_index":254,"time_elapsed":4166963,"internal_node_id":"0.0-13.0-2.50","match_key":"a","participant_id":"COGS219_2020_02","correct":true},{"rt":null,"stimulus":"Sounds/correct.wav","key_press":null,"block":1,"trial_type":"audio-keyboard-response","trial_index":255,"time_elapsed":4168981,"internal_node_id":"0.0-13.0-3.50","match_key":"a","participant_id":"COGS219_2020_02"},{"rt":null,"stimulus":"Sounds/dog_sound.wav","key_press":null,"block":1,"trial_type":"audio-keyboard-response","trial_index":256,"time_elapsed":4169683,"internal_node_id":"0.0-13.0-0.51","match_key":"a","participant_id":"COGS219_2020_02"},{"rt":null,"stimulus":"<p style=\"font-size: 48px;\">+</p>","key_press":null,"block":1,"trial_type":"html-keyboard-response","trial_index":257,"time_elapsed":4170675,"internal_node_id":"0.0-13.0-1.51","match_key":"a","participant_id":"COGS219_2020_02"},{"rt":559.6249999944121,"stimulus":"Images/cat_cartoon.png","key_press":76,"stim_onset":1581203693229,"block":1,"match_type":"non-match","image_category":"cat","sound_category":"dog","audio_type":"sound","phase":"test","trial_type":"image-keyboard-response","trial_index":258,"time_elapsed":4171235,"internal_node_id":"0.0-13.0-2.51","match_key":"a","participant_id":"COGS219_2020_02","correct":true},{"rt":null,"stimulus":"Sounds/correct.wav","key_press":null,"block":1,"trial_type":"audio-keyboard-response","trial_index":259,"time_elapsed":4173250,"internal_node_id":"0.0-13.0-3.51","match_key":"a","participant_id":"COGS219_2020_02"},{"rt":null,"stimulus":"Sounds/motorcycle_sound.wav","key_press":null,"block":1,"trial_type":"audio-keyboard-response","trial_index":260,"time_elapsed":4174363,"internal_node_id":"0.0-13.0-0.52","match_key":"a","participant_id":"COGS219_2020_02"},{"rt":null,"stimulus":"<p style=\"font-size: 48px;\">+</p>","key_press":null,"block":1,"trial_type":"html-keyboard-response","trial_index":261,"time_elapsed":4175358,"internal_node_id":"0.0-13.0-1.52","match_key":"a","participant_id":"COGS219_2020_02"},{"rt":996.1650000186637,"stimulus":"Images/motorcycle_orig.png","key_press":65,"stim_onset":1581203697912,"block":1,"match_type":"match","image_category":"motorcycle","sound_category":"motorcycle","audio_type":"sound","phase":"test","trial_type":"image-keyboard-response","trial_index":262,"time_elapsed":4176355,"internal_node_id":"0.0-13.0-2.52","match_key":"a","participant_id":"COGS219_2020_02","correct":true},{"rt":null,"stimulus":"Sounds/correct.wav","key_press":null,"block":1,"trial_type":"audio-keyboard-response","trial_index":263,"time_elapsed":4178372,"internal_node_id":"0.0-13.0-3.52","match_key":"a","participant_id":"COGS219_2020_02"},{"rt":null,"stimulus":"Sounds/dog_label.wav","key_press":null,"block":1,"trial_type":"audio-keyboard-response","trial_index":264,"time_elapsed":4179028,"internal_node_id":"0.0-13.0-0.53","match_key":"a","participant_id":"COGS219_2020_02"},{"rt":null,"stimulus":"<p style=\"font-size: 48px;\">+</p>","key_press":null,"block":1,"trial_type":"html-keyboard-response","trial_index":265,"time_elapsed":4180029,"internal_node_id":"0.0-13.0-1.53","match_key":"a","participant_id":"COGS219_2020_02"},{"rt":569.5549999945797,"stimulus":"Images/dog_2.png","key_press":65,"stim_onset":1581203702584,"block":1,"match_type":"match","image_category":"dog","sound_category":"dog","audio_type":"label","phase":"test","trial_type":"image-keyboard-response","trial_index":266,"time_elapsed":4180600,"internal_node_id":"0.0-13.0-2.53","match_key":"a","participant_id":"COGS219_2020_02","correct":true},{"rt":null,"stimulus":"Sounds/correct.wav","key_press":null,"block":1,"trial_type":"audio-keyboard-response","trial_index":267,"time_elapsed":4182605,"internal_node_id":"0.0-13.0-3.53","match_key":"a","participant_id":"COGS219_2020_02"},{"rt":null,"stimulus":"Sounds/train_label.wav","key_press":null,"block":1,"trial_type":"audio-keyboard-response","trial_index":268,"time_elapsed":4183888,"internal_node_id":"0.0-13.0-0.54","match_key":"a","participant_id":"COGS219_2020_02"},{"rt":null,"stimulus":"<p style=\"font-size: 48px;\">+</p>","key_press":null,"block":1,"trial_type":"html-keyboard-response","trial_index":269,"time_elapsed":4184880,"internal_node_id":"0.0-13.0-1.54","match_key":"a","participant_id":"COGS219_2020_02"},{"rt":623.6349999671802,"stimulus":"Images/whistle_2.png","key_press":76,"stim_onset":1581203707434,"block":1,"match_type":"non-match","image_category":"whistle","sound_category":"train","audio_type":"label","phase":"test","trial_type":"image-keyboard-response","trial_index":270,"time_elapsed":4185504,"internal_node_id":"0.0-13.0-2.54","match_key":"a","participant_id":"COGS219_2020_02","correct":true},{"rt":null,"stimulus":"Sounds/correct.wav","key_press":null,"block":1,"trial_type":"audio-keyboard-response","trial_index":271,"time_elapsed":4187517,"internal_node_id":"0.0-13.0-3.54","match_key":"a","participant_id":"COGS219_2020_02"},{"rt":null,"stimulus":"Sounds/gun_sound.wav","key_press":null,"block":1,"trial_type":"audio-keyboard-response","trial_index":272,"time_elapsed":4188088,"internal_node_id":"0.0-13.0-0.55","match_key":"a","participant_id":"COGS219_2020_02"},{"rt":null,"stimulus":"<p style=\"font-size: 48px;\">+</p>","key_press":null,"block":1,"trial_type":"html-keyboard-response","trial_index":273,"time_elapsed":4189080,"internal_node_id":"0.0-13.0-1.55","match_key":"a","participant_id":"COGS219_2020_02"},{"rt":679.2799999821,"stimulus":"Images/gun_1.png","key_press":65,"stim_onset":1581203711634,"block":1,"match_type":"match","image_category":"gun","sound_category":"gun","audio_type":"sound","phase":"test","trial_type":"image-keyboard-response","trial_index":274,"time_elapsed":4189760,"internal_node_id":"0.0-13.0-2.55","match_key":"a","participant_id":"COGS219_2020_02","correct":true},{"rt":null,"stimulus":"Sounds/correct.wav","key_press":null,"block":1,"trial_type":"audio-keyboard-response","trial_index":275,"time_elapsed":4191763,"internal_node_id":"0.0-13.0-3.55","match_key":"a","participant_id":"COGS219_2020_02"},{"rt":null,"stimulus":"Sounds/gun_sound.wav","key_press":null,"block":1,"trial_type":"audio-keyboard-response","trial_index":276,"time_elapsed":4192308,"internal_node_id":"0.0-13.0-0.56","match_key":"a","participant_id":"COGS219_2020_02"},{"rt":null,"stimulus":"<p style=\"font-size: 48px;\">+</p>","key_press":null,"block":1,"trial_type":"html-keyboard-response","trial_index":277,"time_elapsed":4193296,"internal_node_id":"0.0-13.0-1.56","match_key":"a","participant_id":"COGS219_2020_02"},{"rt":590.8150000032037,"stimulus":"Images/gun_2.png","key_press":65,"stim_onset":1581203715850,"block":1,"match_type":"match","image_category":"gun","sound_category":"gun","audio_type":"sound","phase":"test","trial_type":"image-keyboard-response","trial_index":278,"time_elapsed":4193888,"internal_node_id":"0.0-13.0-2.56","match_key":"a","participant_id":"COGS219_2020_02","correct":true},{"rt":null,"stimulus":"Sounds/correct.wav","key_press":null,"block":1,"trial_type":"audio-keyboard-response","trial_index":279,"time_elapsed":4195903,"internal_node_id":"0.0-13.0-3.56","match_key":"a","participant_id":"COGS219_2020_02"},{"rt":null,"stimulus":"Sounds/whistle_sound.wav","key_press":null,"block":1,"trial_type":"audio-keyboard-response","trial_index":280,"time_elapsed":4196608,"internal_node_id":"0.0-13.0-0.57","match_key":"a","participant_id":"COGS219_2020_02"},{"rt":null,"stimulus":"<p style=\"font-size: 48px;\">+</p>","key_press":null,"block":1,"trial_type":"html-keyboard-response","trial_index":281,"time_elapsed":4197597,"internal_node_id":"0.0-13.0-1.57","match_key":"a","participant_id":"COGS219_2020_02"},{"rt":578.6799999773502,"stimulus":"Images/whistle_cartoon.png","key_press":65,"stim_onset":1581203720151,"block":1,"match_type":"match","image_category":"whistle","sound_category":"whistle","audio_type":"sound","phase":"test","trial_type":"image-keyboard-response","trial_index":282,"time_elapsed":4198176,"internal_node_id":"0.0-13.0-2.57","match_key":"a","participant_id":"COGS219_2020_02","correct":true},{"rt":null,"stimulus":"Sounds/correct.wav","key_press":null,"block":1,"trial_type":"audio-keyboard-response","trial_index":283,"time_elapsed":4200192,"internal_node_id":"0.0-13.0-3.57","match_key":"a","participant_id":"COGS219_2020_02"},{"rt":null,"stimulus":"Sounds/frog_label.wav","key_press":null,"block":1,"trial_type":"audio-keyboard-response","trial_index":284,"time_elapsed":4201088,"internal_node_id":"0.0-13.0-0.58","match_key":"a","participant_id":"COGS219_2020_02"},{"rt":null,"stimulus":"<p style=\"font-size: 48px;\">+</p>","key_press":null,"block":1,"trial_type":"html-keyboard-response","trial_index":285,"time_elapsed":4202080,"internal_node_id":"0.0-13.0-1.58","match_key":"a","participant_id":"COGS219_2020_02"},{"rt":551.3900000359863,"stimulus":"Images/cat_3.png","key_press":76,"stim_onset":1581203724634,"block":1,"match_type":"non-match","image_category":"cat","sound_category":"frog","audio_type":"label","phase":"test","trial_type":"image-keyboard-response","trial_index":286,"time_elapsed":4202632,"internal_node_id":"0.0-13.0-2.58","match_key":"a","participant_id":"COGS219_2020_02","correct":true},{"rt":null,"stimulus":"Sounds/correct.wav","key_press":null,"block":1,"trial_type":"audio-keyboard-response","trial_index":287,"time_elapsed":4204640,"internal_node_id":"0.0-13.0-3.58","match_key":"a","participant_id":"COGS219_2020_02"},{"rt":null,"stimulus":"Sounds/gun_label.wav","key_press":null,"block":1,"trial_type":"audio-keyboard-response","trial_index":288,"time_elapsed":4205208,"internal_node_id":"0.0-13.0-0.59","match_key":"a","participant_id":"COGS219_2020_02"},{"rt":null,"stimulus":"<p style=\"font-size: 48px;\">+</p>","key_press":null,"block":1,"trial_type":"html-keyboard-response","trial_index":289,"time_elapsed":4206196,"internal_node_id":"0.0-13.0-1.59","match_key":"a","participant_id":"COGS219_2020_02"},{"rt":482.34500002488494,"stimulus":"Images/gun_cartoon.png","key_press":65,"stim_onset":1581203728751,"block":1,"match_type":"match","image_category":"gun","sound_category":"gun","audio_type":"label","phase":"test","trial_type":"image-keyboard-response","trial_index":290,"time_elapsed":4206680,"internal_node_id":"0.0-13.0-2.59","match_key":"a","participant_id":"COGS219_2020_02","correct":true},{"rt":null,"stimulus":"Sounds/correct.wav","key_press":null,"block":1,"trial_type":"audio-keyboard-response","trial_index":291,"time_elapsed":4208694,"internal_node_id":"0.0-13.0-3.59","match_key":"a","participant_id":"COGS219_2020_02"},{"rt":null,"stimulus":"Sounds/car_label.wav","key_press":null,"block":1,"trial_type":"audio-keyboard-response","trial_index":292,"time_elapsed":4209768,"internal_node_id":"0.0-13.0-0.60","match_key":"a","participant_id":"COGS219_2020_02"},{"rt":null,"stimulus":"<p style=\"font-size: 48px;\">+</p>","key_press":null,"block":1,"trial_type":"html-keyboard-response","trial_index":293,"time_elapsed":4210763,"internal_node_id":"0.0-13.0-1.60","match_key":"a","participant_id":"COGS219_2020_02"},{"rt":812.2200000211596,"stimulus":"Images/whistle_3.png","key_press":76,"stim_onset":1581203733317,"block":1,"match_type":"non-match","image_category":"whistle","sound_category":"car","audio_type":"label","phase":"test","trial_type":"image-keyboard-response","trial_index":294,"time_elapsed":4211576,"internal_node_id":"0.0-13.0-2.60","match_key":"a","participant_id":"COGS219_2020_02","correct":true},{"rt":null,"stimulus":"Sounds/correct.wav","key_press":null,"block":1,"trial_type":"audio-keyboard-response","trial_index":295,"time_elapsed":4213588,"internal_node_id":"0.0-13.0-3.60","match_key":"a","participant_id":"COGS219_2020_02"},{"rt":null,"stimulus":"Sounds/cat_label.wav","key_press":null,"block":1,"trial_type":"audio-keyboard-response","trial_index":296,"time_elapsed":4214428,"internal_node_id":"0.0-13.0-0.61","match_key":"a","participant_id":"COGS219_2020_02"},{"rt":null,"stimulus":"<p style=\"font-size: 48px;\">+</p>","key_press":null,"block":1,"trial_type":"html-keyboard-response","trial_index":297,"time_elapsed":4215430,"internal_node_id":"0.0-13.0-1.61","match_key":"a","participant_id":"COGS219_2020_02"},{"rt":561.2150000529364,"stimulus":"Images/cat_2.png","key_press":65,"stim_onset":1581203737984,"block":1,"match_type":"match","image_category":"cat","sound_category":"cat","audio_type":"label","phase":"test","trial_type":"image-keyboard-response","trial_index":298,"time_elapsed":4215992,"internal_node_id":"0.0-13.0-2.61","match_key":"a","participant_id":"COGS219_2020_02","correct":true},{"rt":null,"stimulus":"Sounds/correct.wav","key_press":null,"block":1,"trial_type":"audio-keyboard-response","trial_index":299,"time_elapsed":4218006,"internal_node_id":"0.0-13.0-3.61","match_key":"a","participant_id":"COGS219_2020_02"},{"rt":null,"stimulus":"Sounds/dog_sound.wav","key_press":null,"block":1,"trial_type":"audio-keyboard-response","trial_index":300,"time_elapsed":4218708,"internal_node_id":"0.0-13.0-0.62","match_key":"a","participant_id":"COGS219_2020_02"},{"rt":null,"stimulus":"<p style=\"font-size: 48px;\">+</p>","key_press":null,"block":1,"trial_type":"html-keyboard-response","trial_index":301,"time_elapsed":4219696,"internal_node_id":"0.0-13.0-1.62","match_key":"a","participant_id":"COGS219_2020_02"},{"rt":638.609999964945,"stimulus":"Images/dog_orig.png","key_press":65,"stim_onset":1581203742251,"block":1,"match_type":"match","image_category":"dog","sound_category":"dog","audio_type":"sound","phase":"test","trial_type":"image-keyboard-response","trial_index":302,"time_elapsed":4220336,"internal_node_id":"0.0-13.0-2.62","match_key":"a","participant_id":"COGS219_2020_02","correct":true},{"rt":null,"stimulus":"Sounds/correct.wav","key_press":null,"block":1,"trial_type":"audio-keyboard-response","trial_index":303,"time_elapsed":4222349,"internal_node_id":"0.0-13.0-3.62","match_key":"a","participant_id":"COGS219_2020_02"},{"rt":null,"stimulus":"Sounds/motorcycle_sound.wav","key_press":null,"block":1,"trial_type":"audio-keyboard-response","trial_index":304,"time_elapsed":4223468,"internal_node_id":"0.0-13.0-0.63","match_key":"a","participant_id":"COGS219_2020_02"},{"rt":null,"stimulus":"<p style=\"font-size: 48px;\">+</p>","key_press":null,"block":1,"trial_type":"html-keyboard-response","trial_index":305,"time_elapsed":4224463,"internal_node_id":"0.0-13.0-1.63","match_key":"a","participant_id":"COGS219_2020_02"},{"rt":655.8700000168756,"stimulus":"Images/train_2.png","key_press":76,"stim_onset":1581203747017,"block":1,"match_type":"non-match","image_category":"train","sound_category":"motorcycle","audio_type":"sound","phase":"test","trial_type":"image-keyboard-response","trial_index":306,"time_elapsed":4225120,"internal_node_id":"0.0-13.0-2.63","match_key":"a","participant_id":"COGS219_2020_02","correct":true},{"rt":null,"stimulus":"Sounds/correct.wav","key_press":null,"block":1,"trial_type":"audio-keyboard-response","trial_index":307,"time_elapsed":4227132,"internal_node_id":"0.0-13.0-3.63","match_key":"a","participant_id":"COGS219_2020_02"},{"rt":null,"stimulus":"Sounds/motorcycle_label.wav","key_press":null,"block":1,"trial_type":"audio-keyboard-response","trial_index":308,"time_elapsed":4228268,"internal_node_id":"0.0-13.0-0.64","match_key":"a","participant_id":"COGS219_2020_02"},{"rt":null,"stimulus":"<p style=\"font-size: 48px;\">+</p>","key_press":null,"block":1,"trial_type":"html-keyboard-response","trial_index":309,"time_elapsed":4229263,"internal_node_id":"0.0-13.0-1.64","match_key":"a","participant_id":"COGS219_2020_02"},{"rt":423.72499999962747,"stimulus":"Images/motorcycle_3.png","key_press":65,"stim_onset":1581203751817,"block":1,"match_type":"match","image_category":"motorcycle","sound_category":"motorcycle","audio_type":"label","phase":"test","trial_type":"image-keyboard-response","trial_index":310,"time_elapsed":4229688,"internal_node_id":"0.0-13.0-2.64","match_key":"a","participant_id":"COGS219_2020_02","correct":true},{"rt":null,"stimulus":"Sounds/correct.wav","key_press":null,"block":1,"trial_type":"audio-keyboard-response","trial_index":311,"time_elapsed":4231698,"internal_node_id":"0.0-13.0-3.64","match_key":"a","participant_id":"COGS219_2020_02"},{"rt":null,"stimulus":"Sounds/frog_label.wav","key_press":null,"block":1,"trial_type":"audio-keyboard-response","trial_index":312,"time_elapsed":4232588,"internal_node_id":"0.0-13.0-0.65","match_key":"a","participant_id":"COGS219_2020_02"},{"rt":null,"stimulus":"<p style=\"font-size: 48px;\">+</p>","key_press":null,"block":1,"trial_type":"html-keyboard-response","trial_index":313,"time_elapsed":4233580,"internal_node_id":"0.0-13.0-1.65","match_key":"a","participant_id":"COGS219_2020_02"},{"rt":410.7799999760464,"stimulus":"Images/frog_1.png","key_press":65,"stim_onset":1581203756134,"block":1,"match_type":"match","image_category":"frog","sound_category":"frog","audio_type":"label","phase":"test","trial_type":"image-keyboard-response","trial_index":314,"time_elapsed":4233992,"internal_node_id":"0.0-13.0-2.65","match_key":"a","participant_id":"COGS219_2020_02","correct":true},{"rt":null,"stimulus":"Sounds/correct.wav","key_press":null,"block":1,"trial_type":"audio-keyboard-response","trial_index":315,"time_elapsed":4236001,"internal_node_id":"0.0-13.0-3.65","match_key":"a","participant_id":"COGS219_2020_02"},{"rt":null,"stimulus":"Sounds/rooster_sound.wav","key_press":null,"block":1,"trial_type":"audio-keyboard-response","trial_index":316,"time_elapsed":4236688,"internal_node_id":"0.0-13.0-0.66","match_key":"a","participant_id":"COGS219_2020_02"},{"rt":null,"stimulus":"<p style=\"font-size: 48px;\">+</p>","key_press":null,"block":1,"trial_type":"html-keyboard-response","trial_index":317,"time_elapsed":4237680,"internal_node_id":"0.0-13.0-1.66","match_key":"a","participant_id":"COGS219_2020_02"},{"rt":431.0949999494478,"stimulus":"Images/rooster_1.png","key_press":65,"stim_onset":1581203760234,"block":1,"match_type":"match","image_category":"rooster","sound_category":"rooster","audio_type":"sound","phase":"test","trial_type":"image-keyboard-response","trial_index":318,"time_elapsed":4238112,"internal_node_id":"0.0-13.0-2.66","match_key":"a","participant_id":"COGS219_2020_02","correct":true},{"rt":null,"stimulus":"Sounds/correct.wav","key_press":null,"block":1,"trial_type":"audio-keyboard-response","trial_index":319,"time_elapsed":4240120,"internal_node_id":"0.0-13.0-3.66","match_key":"a","participant_id":"COGS219_2020_02"},{"rt":null,"stimulus":"Sounds/car_label.wav","key_press":null,"block":1,"trial_type":"audio-keyboard-response","trial_index":320,"time_elapsed":4241192,"internal_node_id":"0.0-13.0-0.67","match_key":"a","participant_id":"COGS219_2020_02"},{"rt":null,"stimulus":"<p style=\"font-size: 48px;\">+</p>","key_press":null,"block":1,"trial_type":"html-keyboard-response","trial_index":321,"time_elapsed":4242185,"internal_node_id":"0.0-13.0-1.67","match_key":"a","participant_id":"COGS219_2020_02"},{"rt":434.71000000089407,"stimulus":"Images/cat_orig.png","key_press":76,"stim_onset":1581203764739,"block":1,"match_type":"non-match","image_category":"cat","sound_category":"car","audio_type":"label","phase":"test","trial_type":"image-keyboard-response","trial_index":322,"time_elapsed":4242621,"internal_node_id":"0.0-13.0-2.67","match_key":"a","participant_id":"COGS219_2020_02","correct":true},{"rt":null,"stimulus":"Sounds/correct.wav","key_press":null,"block":1,"trial_type":"audio-keyboard-response","trial_index":323,"time_elapsed":4244637,"internal_node_id":"0.0-13.0-3.67","match_key":"a","participant_id":"COGS219_2020_02"},{"rt":null,"stimulus":"Sounds/rooster_label.wav","key_press":null,"block":1,"trial_type":"audio-keyboard-response","trial_index":324,"time_elapsed":4245332,"internal_node_id":"0.0-13.0-0.68","match_key":"a","participant_id":"COGS219_2020_02"},{"rt":null,"stimulus":"<p style=\"font-size: 48px;\">+</p>","key_press":null,"block":1,"trial_type":"html-keyboard-response","trial_index":325,"time_elapsed":4246335,"internal_node_id":"0.0-13.0-1.68","match_key":"a","participant_id":"COGS219_2020_02"},{"rt":372.6100000208244,"stimulus":"Images/rooster_orig.png","key_press":65,"stim_onset":1581203768889,"block":1,"match_type":"match","image_category":"rooster","sound_category":"rooster","audio_type":"label","phase":"test","trial_type":"image-keyboard-response","trial_index":326,"time_elapsed":4246709,"internal_node_id":"0.0-13.0-2.68","match_key":"a","participant_id":"COGS219_2020_02","correct":true},{"rt":null,"stimulus":"Sounds/correct.wav","key_press":null,"block":1,"trial_type":"audio-keyboard-response","trial_index":327,"time_elapsed":4248724,"internal_node_id":"0.0-13.0-3.68","match_key":"a","participant_id":"COGS219_2020_02"},{"rt":null,"stimulus":"Sounds/train_sound.wav","key_press":null,"block":1,"trial_type":"audio-keyboard-response","trial_index":328,"time_elapsed":4250012,"internal_node_id":"0.0-13.0-0.69","match_key":"a","participant_id":"COGS219_2020_02"},{"rt":null,"stimulus":"<p style=\"font-size: 48px;\">+</p>","key_press":null,"block":1,"trial_type":"html-keyboard-response","trial_index":329,"time_elapsed":4251002,"internal_node_id":"0.0-13.0-1.69","match_key":"a","participant_id":"COGS219_2020_02"},{"rt":1130.170000018552,"stimulus":"Images/train_3.png","key_press":65,"stim_onset":1581203773556,"block":1,"match_type":"match","image_category":"train","sound_category":"train","audio_type":"sound","phase":"test","trial_type":"image-keyboard-response","trial_index":330,"time_elapsed":4252133,"internal_node_id":"0.0-13.0-2.69","match_key":"a","participant_id":"COGS219_2020_02","correct":true},{"rt":null,"stimulus":"Sounds/correct.wav","key_press":null,"block":1,"trial_type":"audio-keyboard-response","trial_index":331,"time_elapsed":4254135,"internal_node_id":"0.0-13.0-3.69","match_key":"a","participant_id":"COGS219_2020_02"},{"rt":null,"stimulus":"Sounds/frog_label.wav","key_press":null,"block":1,"trial_type":"audio-keyboard-response","trial_index":332,"time_elapsed":4255032,"internal_node_id":"0.0-13.0-0.70","match_key":"a","participant_id":"COGS219_2020_02"},{"rt":null,"stimulus":"<p style=\"font-size: 48px;\">+</p>","key_press":null,"block":1,"trial_type":"html-keyboard-response","trial_index":333,"time_elapsed":4256035,"internal_node_id":"0.0-13.0-1.70","match_key":"a","participant_id":"COGS219_2020_02"},{"rt":1168.5000000298023,"stimulus":"Images/car_cartoon.png","key_press":76,"stim_onset":1581203778589,"block":1,"match_type":"non-match","image_category":"car","sound_category":"frog","audio_type":"label","phase":"test","trial_type":"image-keyboard-response","trial_index":334,"time_elapsed":4257205,"internal_node_id":"0.0-13.0-2.70","match_key":"a","participant_id":"COGS219_2020_02","correct":true},{"rt":null,"stimulus":"Sounds/correct.wav","key_press":null,"block":1,"trial_type":"audio-keyboard-response","trial_index":335,"time_elapsed":4259213,"internal_node_id":"0.0-13.0-3.70","match_key":"a","participant_id":"COGS219_2020_02"},{"rt":null,"stimulus":"Sounds/cow_sound.wav","key_press":null,"block":1,"trial_type":"audio-keyboard-response","trial_index":336,"time_elapsed":4260232,"internal_node_id":"0.0-13.0-0.71","match_key":"a","participant_id":"COGS219_2020_02"},{"rt":null,"stimulus":"<p style=\"font-size: 48px;\">+</p>","key_press":null,"block":1,"trial_type":"html-keyboard-response","trial_index":337,"time_elapsed":4261235,"internal_node_id":"0.0-13.0-1.71","match_key":"a","participant_id":"COGS219_2020_02"},{"rt":584.8700000206009,"stimulus":"Images/cow_2.png","key_press":65,"stim_onset":1581203783789,"block":1,"match_type":"match","image_category":"cow","sound_category":"cow","audio_type":"sound","phase":"test","trial_type":"image-keyboard-response","trial_index":338,"time_elapsed":4261821,"internal_node_id":"0.0-13.0-2.71","match_key":"a","participant_id":"COGS219_2020_02","correct":true},{"rt":null,"stimulus":"Sounds/correct.wav","key_press":null,"block":1,"trial_type":"audio-keyboard-response","trial_index":339,"time_elapsed":4263826,"internal_node_id":"0.0-13.0-3.71","match_key":"a","participant_id":"COGS219_2020_02"},{"rt":null,"stimulus":"Sounds/gun_sound.wav","key_press":null,"block":1,"trial_type":"audio-keyboard-response","trial_index":340,"time_elapsed":4264412,"internal_node_id":"0.0-13.0-0.72","match_key":"a","participant_id":"COGS219_2020_02"},{"rt":null,"stimulus":"<p style=\"font-size: 48px;\">+</p>","key_press":null,"block":1,"trial_type":"html-keyboard-response","trial_index":341,"time_elapsed":4265402,"internal_node_id":"0.0-13.0-1.72","match_key":"a","participant_id":"COGS219_2020_02"},{"rt":746.1250000055879,"stimulus":"Images/train_cartoon.png","key_press":65,"stim_onset":1581203787956,"block":1,"match_type":"non-match","image_category":"train","sound_category":"gun","audio_type":"sound","phase":"test","trial_type":"image-keyboard-response","trial_index":342,"time_elapsed":4266149,"internal_node_id":"0.0-13.0-2.72","match_key":"a","participant_id":"COGS219_2020_02","correct":false},{"rt":null,"stimulus":"Sounds/incorrect.wav","key_press":null,"block":1,"trial_type":"audio-keyboard-response","trial_index":343,"time_elapsed":4268165,"internal_node_id":"0.0-13.0-3.72","match_key":"a","participant_id":"COGS219_2020_02"},{"rt":null,"stimulus":"Sounds/train_label.wav","key_press":null,"block":1,"trial_type":"audio-keyboard-response","trial_index":344,"time_elapsed":4269432,"internal_node_id":"0.0-13.0-0.73","match_key":"a","participant_id":"COGS219_2020_02"},{"rt":null,"stimulus":"<p style=\"font-size: 48px;\">+</p>","key_press":null,"block":1,"trial_type":"html-keyboard-response","trial_index":345,"time_elapsed":4270435,"internal_node_id":"0.0-13.0-1.73","match_key":"a","participant_id":"COGS219_2020_02"},{"rt":560.605000006035,"stimulus":"Images/train_1.png","key_press":65,"stim_onset":1581203792989,"block":1,"match_type":"match","image_category":"train","sound_category":"train","audio_type":"label","phase":"test","trial_type":"image-keyboard-response","trial_index":346,"time_elapsed":4270997,"internal_node_id":"0.0-13.0-2.73","match_key":"a","participant_id":"COGS219_2020_02","correct":true},{"rt":null,"stimulus":"Sounds/correct.wav","key_press":null,"block":1,"trial_type":"audio-keyboard-response","trial_index":347,"time_elapsed":4273010,"internal_node_id":"0.0-13.0-3.73","match_key":"a","participant_id":"COGS219_2020_02"},{"rt":null,"stimulus":"Sounds/frog_label.wav","key_press":null,"block":1,"trial_type":"audio-keyboard-response","trial_index":348,"time_elapsed":4273892,"internal_node_id":"0.0-13.0-0.74","match_key":"a","participant_id":"COGS219_2020_02"},{"rt":null,"stimulus":"<p style=\"font-size: 48px;\">+</p>","key_press":null,"block":1,"trial_type":"html-keyboard-response","