"rt","responses","trial_type","trial_index","time_elapsed","internal_node_id","match_key","participant_id","stimulus","key_press","block","stim_onset","match_type","image_category","sound_category","audio_type","phase","correct"
"62231.47500003688","{""Q0"":""COGS219_2020_36""}","survey-text","0","62261","0.0-0.0","l","COGS219_2020_36","","","","","","","","","",""
"53847.234999993816","","html-keyboard-response","1","116107","0.0-1.0","l","COGS219_2020_36","<p>Use KEYBOARD 1 (match RIGHT)</p><p>Press MATCH to continue.</p>","76","","","","","","","",""
"1898269.1499998327","","html-keyboard-response","2","2014496","0.0-2.0","l","COGS219_2020_36","<p>Welcome to the experiment.</p>","32","","","","","","","",""
"10985.675000119954","","html-keyboard-response","3","2025487","0.0-3.0","l","COGS219_2020_36","<p>Thank you for agreeing to participate in this study.</p><p>If during any part of the procedure you must stop for any reason, please inform the researcher that you do not wish to continue.</p>","32","","","","","","","",""
"18702.739999862388","","html-keyboard-response","4","2044191","0.0-4.0","l","COGS219_2020_36","<p>In this experiment, you will hear various words or sounds and see pictures of various animals and objects.</p><p>Most of the images will be of common everyday objects, such as cars, cats, cows, firearms, frogs, chickens, whistles, trains, motorcycles, and dogs.</p><p>Some of the images will be real-life stills, while others will be cartoons.</p>","32","","","","","","","",""
"14927.159999962896","","html-keyboard-response","5","2059120","0.0-5.0","l","COGS219_2020_36","<p>Sometimes, the word/sound will match the picture, for example you'll hear a meowing sound and see a cat.</p><p>Other times, the picture will not match the sound or word.</p><p>Your task is to decide as quickly as possible if the word/sound matches the picture or not. </p>","32","","","","","","","",""
"13758.515000110492","","html-keyboard-response","6","2072880","0.0-6.0","l","COGS219_2020_36","<p>For example, if you hear the word ""cat"" or hear a meowing sound, and then see a picture of a cat, you should press the MATCH key.</p><p> If the sound and image do not match, press the NOT-MATCH key to indicate that there is not a match.</p>","32","","","","","","","",""
"12062.720000045374","","html-keyboard-response","7","2084944","0.0-7.0","l","COGS219_2020_36","<p>If you make a mistake, you will hear a buzzing sound instead of a more pleasant sound.</p><p> Try to respond as quickly as possible, while making as few errors as possible. If you are making mistakes, you are probably rushing.</p>","32","","","","","","","",""
"11342.740000225604","","html-keyboard-response","8","2096288","0.0-8.0","l","COGS219_2020_36","<p>Please try to not move or blink your eyes during the presentation of the images. You can move and blink between images.</p><p>During the experiment there will be some breaks during which you can rest your eyes.</p>","32","","","","","","","",""
"9182.539999950677","","html-keyboard-response","9","2105472","0.0-9.0","l","COGS219_2020_36","<p>We will begin with 10 practice trials. Please let the experimenter know if you have any questions.</p>","32","","","","","","","",""
"null","","audio-keyboard-response","10","2106391","0.0-10.0-0.0","l","COGS219_2020_36","Sounds/cat_label.wav","null","0","","","","","","",""
"null","","html-keyboard-response","11","2107391","0.0-10.0-1.0","l","COGS219_2020_36","<p style=""font-size: 48px;"">+</p>","null","0","","","","","","",""
"2799.0099999587983","","image-keyboard-response","12","2110192","0.0-10.0-2.0","l","COGS219_2020_36","Images/cat_1.png","76","0","1583102611314","match","cat","cat","label","practice","true"
"null","","audio-keyboard-response","13","2112200","0.0-10.0-3.0","l","COGS219_2020_36","Sounds/correct.wav","null","0","","","","","","",""
"null","","audio-keyboard-response","14","2113111","0.0-10.0-0.1","l","COGS219_2020_36","Sounds/frog_label.wav","null","0","","","","","","",""
"null","","html-keyboard-response","15","2114107","0.0-10.0-1.1","l","COGS219_2020_36","<p style=""font-size: 48px;"">+</p>","null","0","","","","","","",""
"1746.925000101328","","image-keyboard-response","16","2115856","0.0-10.0-2.1","l","COGS219_2020_36","Images/rooster_orig.png","65","0","1583102618031","non-match","rooster","frog","label","practice","true"
"null","","audio-keyboard-response","17","2117865","0.0-10.0-3.1","l","COGS219_2020_36","Sounds/correct.wav","null","0","","","","","","",""
"null","","audio-keyboard-response","18","2118571","0.0-10.0-0.2","l","COGS219_2020_36","Sounds/whistle_sound.wav","null","0","","","","","","",""
"null","","html-keyboard-response","19","2119576","0.0-10.0-1.2","l","COGS219_2020_36","<p style=""font-size: 48px;"">+</p>","null","0","","","","","","",""
"2040.2499998454005","","image-keyboard-response","20","2121617","0.0-10.0-2.2","l","COGS219_2020_36","Images/whistle_2.png","76","0","1583102623499","match","whistle","whistle","sound","practice","true"
"null","","audio-keyboard-response","21","2123634","0.0-10.0-3.2","l","COGS219_2020_36","Sounds/correct.wav","null","0","","","","","","",""
"null","","audio-keyboard-response","22","2124712","0.0-10.0-0.3","l","COGS219_2020_36","Sounds/car_sound.wav","null","0","","","","","","",""
"null","","html-keyboard-response","23","2125709","0.0-10.0-1.3","l","COGS219_2020_36","<p style=""font-size: 48px;"">+</p>","null","0","","","","","","",""
"4674.809999996796","","image-keyboard-response","24","2130385","0.0-10.0-2.3","l","COGS219_2020_36","Images/train_orig.png","76","0","1583102629632","non-match","train","car","sound","practice","false"
"null","","audio-keyboard-response","25","2132401","0.0-10.0-3.3","l","COGS219_2020_36","Sounds/incorrect.wav","null","0","","","","","","",""
"null","","audio-keyboard-response","26","2133412","0.0-10.0-0.4","l","COGS219_2020_36","Sounds/cow_sound.wav","null","0","","","","","","",""
"null","","html-keyboard-response","27","2134409","0.0-10.0-1.4","l","COGS219_2020_36","<p style=""font-size: 48px;"">+</p>","null","0","","","","","","",""
"1735.3900000452995","","image-keyboard-response","28","2136146","0.0-10.0-2.4","l","COGS219_2020_36","Images/whistle_1.png","65","0","1583102638332","non-match","whistle","cow","sound","practice","true"
"null","","audio-keyboard-response","29","2138152","0.0-10.0-3.4","l","COGS219_2020_36","Sounds/correct.wav","null","0","","","","","","",""
"null","","audio-keyboard-response","30","2138992","0.0-10.0-0.5","l","COGS219_2020_36","Sounds/cat_label.wav","null","0","","","","","","",""
"null","","html-keyboard-response","31","2139992","0.0-10.0-1.5","l","COGS219_2020_36","<p style=""font-size: 48px;"">+</p>","null","0","","","","","","",""
"2135.3799998760223","","image-keyboard-response","32","2142129","0.0-10.0-2.5","l","COGS219_2020_36","Images/motorcycle_2.png","65","0","1583102643916","non-match","motorcycle","cat","label","practice","true"
"null","","audio-keyboard-response","33","2144135","0.0-10.0-3.5","l","COGS219_2020_36","Sounds/correct.wav","null","0","","","","","","",""
"null","","audio-keyboard-response","34","2145252","0.0-10.0-0.6","l","COGS219_2020_36","Sounds/motorcycle_sound.wav","null","0","","","","","","",""
"null","","html-keyboard-response","35","2146243","0.0-10.0-1.6","l","COGS219_2020_36","<p style=""font-size: 48px;"">+</p>","null","0","","","","","","",""
"3629.3750000186265","","image-keyboard-response","36","2149873","0.0-10.0-2.6","l","COGS219_2020_36","Images/train_2.png","76","0","1583102650166","non-match","train","motorcycle","sound","practice","false"
"null","","audio-keyboard-response","37","2151882","0.0-10.0-3.6","l","COGS219_2020_36","Sounds/incorrect.wav","null","0","","","","","","",""
"null","","audio-keyboard-response","38","2152552","0.0-10.0-0.7","l","COGS219_2020_36","Sounds/dog_label.wav","null","0","","","","","","",""
"null","","html-keyboard-response","39","2153543","0.0-10.0-1.7","l","COGS219_2020_36","<p style=""font-size: 48px;"">+</p>","null","0","","","","","","",""
"2089.0699999872595","","image-keyboard-response","40","2155633","0.0-10.0-2.7","l","COGS219_2020_36","Images/dog_1.png","76","0","1583102657466","match","dog","dog","label","practice","true"
"null","","audio-keyboard-response","41","2157649","0.0-10.0-3.7","l","COGS219_2020_36","Sounds/correct.wav","null","0","","","","","","",""
"null","","audio-keyboard-response","42","2158472","0.0-10.0-0.8","l","COGS219_2020_36","Sounds/cat_label.wav","null","0","","","","","","",""
"null","","html-keyboard-response","43","2159476","0.0-10.0-1.8","l","COGS219_2020_36","<p style=""font-size: 48px;"">+</p>","null","0","","","","","","",""
"1707.7399999834597","","image-keyboard-response","44","2161185","0.0-10.0-2.8","l","COGS219_2020_36","Images/whistle_cartoon.png","65","0","1583102663399","non-match","whistle","cat","label","practice","true"
"null","","audio-keyboard-response","45","2163195","0.0-10.0-3.8","l","COGS219_2020_36","Sounds/correct.wav","null","0","","","","","","",""
"null","","audio-keyboard-response","46","2163832","0.0-10.0-0.9","l","COGS219_2020_36","Sounds/dog_label.wav","null","0","","","","","","",""
"null","","html-keyboard-response","47","2164826","0.0-10.0-1.9","l","COGS219_2020_36","<p style=""font-size: 48px;"">+</p>","null","0","","","","","","",""
"1653.6550000309944","","image-keyboard-response","48","2166481","0.0-10.0-2.9","l","COGS219_2020_36","Images/dog_cartoon.png","76","0","1583102668749","match","dog","dog","label","practice","true"
"null","","audio-keyboard-response","49","2168485","0.0-10.0-3.9","l","COGS219_2020_36","Sounds/correct.wav","null","0","","","","","","",""
"26635.784999933094","","html-keyboard-response","50","2195122","0.0-11.0","l","COGS219_2020_36","<p>The rest of the experiment is divided into five blocks with 100 trials in each block. It will take about 45 minutes to complete.</p><p>The experimenter will be in the outer room and you can communicate with them through the monitor if you have any questions or wish to stop the experiment.</p>","32","","","","","","","",""
"22878.625000128523","","html-keyboard-response","51","2218002","0.0-12.0","l","COGS219_2020_36","<p>Remember, please try not to move or blink your eyes during the presentation of the images. </p><p>At the end of the experiment, we will show you your scores on the task so you can see how you did.</p><p>The experiment will start on the next screen.</p>","32","","","","","","","",""
"null","","audio-keyboard-response","52","2221049","0.0-13.0-0.0","l","COGS219_2020_36","Sounds/cow_sound.wav","null","1","","","","","","",""
"null","","html-keyboard-response","53","2222044","0.0-13.0-1.0","l","COGS219_2020_36","<p style=""font-size: 48px;"">+</p>","null","1","","","","","","",""
"2372.4249999504536","","image-keyboard-response","54","2224418","0.0-13.0-2.0","l","COGS219_2020_36","Images/rooster_cartoon.png","65","1","1583102725967","non-match","rooster","cow","sound","test","true"
"null","","audio-keyboard-response","55","2226433","0.0-13.0-3.0","l","COGS219_2020_36","Sounds/correct.wav","null","1","","","","","","",""
"null","","audio-keyboard-response","56","2227009","0.0-13.0-0.1","l","COGS219_2020_36","Sounds/gun_sound.wav","null","1","","","","","","",""
"null","","html-keyboard-response","57","2228011","0.0-13.0-1.1","l","COGS219_2020_36","<p style=""font-size: 48px;"">+</p>","null","1","","","","","","",""
"1685.6800001114607","","image-keyboard-response","58","2229698","0.0-13.0-2.1","l","COGS219_2020_36","Images/gun_orig.png","76","1","1583102731934","match","gun","gun","sound","test","true"
"null","","audio-keyboard-response","59","2231702","0.0-13.0-3.1","l","COGS219_2020_36","Sounds/correct.wav","null","1","","","","","","",""
"null","","audio-keyboard-response","60","2232288","0.0-13.0-0.2","l","COGS219_2020_36","Sounds/gun_label.wav","null","1","","","","","","",""
"null","","html-keyboard-response","61","2233294","0.0-13.0-1.2","l","COGS219_2020_36","<p style=""font-size: 48px;"">+</p>","null","1","","","","","","",""
"1986.2200000789016","","image-keyboard-response","62","2235282","0.0-13.0-2.2","l","COGS219_2020_36","Images/whistle_1.png","65","1","1583102737218","non-match","whistle","gun","label","test","true"
"null","","audio-keyboard-response","63","2237286","0.0-13.0-3.2","l","COGS219_2020_36","Sounds/correct.wav","null","1","","","","","","",""
"null","","audio-keyboard-response","64","2237988","0.0-13.0-0.3","l","COGS219_2020_36","Sounds/rooster_sound.wav","null","1","","","","","","",""
"null","","html-keyboard-response","65","2238977","0.0-13.0-1.3","l","COGS219_2020_36","<p style=""font-size: 48px;"">+</p>","null","1","","","","","","",""
"1294.7450000792742","","image-keyboard-response","66","2240274","0.0-13.0-2.3","l","COGS219_2020_36","Images/rooster_cartoon.png","76","1","1583102742901","match","rooster","rooster","sound","test","true"
"null","","audio-keyboard-response","67","2242288","0.0-13.0-3.3","l","COGS219_2020_36","Sounds/correct.wav","null","1","","","","","","",""
"null","","audio-keyboard-response","68","2242988","0.0-13.0-0.4","l","COGS219_2020_36","Sounds/rooster_label.wav","null","1","","","","","","",""
"null","","html-keyboard-response","69","2243994","0.0-13.0-1.4","l","COGS219_2020_36","<p style=""font-size: 48px;"">+</p>","null","1","","","","","","",""
"1478.5250001586974","","image-keyboard-response","70","2245474","0.0-13.0-2.4","l","COGS219_2020_36","Images/rooster_2.png","76","1","1583102747917","match","rooster","rooster","label","test","true"
"null","","audio-keyboard-response","71","2247484","0.0-13.0-3.4","l","COGS219_2020_36","Sounds/correct.wav","null","1","","","","","","",""
"null","","audio-keyboard-response","72","2248189","0.0-13.0-0.5","l","COGS219_2020_36","Sounds/dog_sound.wav","null","1","","","","","","",""
"null","","html-keyboard-response","73","2249178","0.0-13.0-1.5","l","COGS219_2020_36","<p style=""font-size: 48px;"">+</p>","null","1","","","","","","",""
"1447.0049999654293","","image-keyboard-response","74","2250627","0.0-13.0-2.5","l","COGS219_2020_36","Images/dog_3.png","76","1","1583102753102","match","dog","dog","sound","test","true"
"null","","audio-keyboard-response","75","2252638","0.0-13.0-3.5","l","COGS219_2020_36","Sounds/correct.wav","null","1","","","","","","",""
"null","","audio-keyboard-response","76","2253469","0.0-13.0-0.6","l","COGS219_2020_36","Sounds/cat_label.wav","null","1","","","","","","",""
"null","","html-keyboard-response","77","2254462","0.0-13.0-1.6","l","COGS219_2020_36","<p style=""font-size: 48px;"">+</p>","null","1","","","","","","",""
"1251.5100000891834","","image-keyboard-response","78","2255714","0.0-13.0-2.6","l","COGS219_2020_36","Images/dog_1.png","65","1","1583102758385","non-match","dog","cat","label","test","true"
"null","","audio-keyboard-response","79","2257719","0.0-13.0-3.6","l","COGS219_2020_36","Sounds/correct.wav","null","1","","","","","","",""
"null","","audio-keyboard-response","80","2258430","0.0-13.0-0.7","l","COGS219_2020_36","Sounds/whistle_sound.wav","null","1","","","","","","",""
"null","","html-keyboard-response","81","2259429","0.0-13.0-1.7","l","COGS219_2020_36","<p style=""font-size: 48px;"">+</p>","null","1","","","","","","",""
"1469.0400001127273","","image-keyboard-response","82","2260899","0.0-13.0-2.7","l","COGS219_2020_36","Images/whistle_2.png","76","1","1583102763352","match","whistle","whistle","sound","test","true"
"null","","audio-keyboard-response","83","2262905","0.0-13.0-3.7","l","COGS219_2020_36","Sounds/correct.wav","null","1","","","","","","",""
"null","","audio-keyboard-response","84","2264049","0.0-13.0-0.8","l","COGS219_2020_36","Sounds/motorcycle_label.wav","null","1","","","","","","",""
"null","","html-keyboard-response","85","2265045","0.0-13.0-1.8","l","COGS219_2020_36","<p style=""font-size: 48px;"">+</p>","null","1","","","","","","",""
"1260.054999962449","","image-keyboard-response","86","2266306","0.0-13.0-2.8","l","COGS219_2020_36","Images/motorcycle_3.png","76","1","1583102768968","match","motorcycle","motorcycle","label","test","true"
"null","","audio-keyboard-response","87","2268318","0.0-13.0-3.8","l","COGS219_2020_36","Sounds/correct.wav","null","1","","","","","","",""
"null","","audio-keyboard-response","88","2269009","0.0-13.0-0.9","l","COGS219_2020_36","Sounds/rooster_label.wav","null","1","","","","","","",""
"null","","html-keyboard-response","89","2270012","0.0-13.0-1.9","l","COGS219_2020_36","<p style=""font-size: 48px;"">+</p>","null","1","","","","","","",""
"1621.5349999256432","","image-keyboard-response","90","2271635","0.0-13.0-2.9","l","COGS219_2020_36","Images/car_orig.png","65","1","1583102773935","non-match","car","rooster","label","test","true"
"null","","audio-keyboard-response","91","2273637","0.0-13.0-3.9","l","COGS219_2020_36","Sounds/correct.wav","null","1","","","","","","",""
"null","","audio-keyboard-response","92","2274669","0.0-13.0-0.10","l","COGS219_2020_36","Sounds/cow_sound.wav","null","1","","","","","","",""
"null","","html-keyboard-response","93","2275662","0.0-13.0-1.10","l","COGS219_2020_36","<p style=""font-size: 48px;"">+</p>","null","1","","","","","","",""
"1491.3850000593811","","image-keyboard-response","94","2277154","0.0-13.0-2.10","l","COGS219_2020_36","Images/dog_orig.png","65","1","1583102779585","non-match","dog","cow","sound","test","true"
"null","","audio-keyboard-response","95","2279171","0.0-13.0-3.10","l","COGS219_2020_36","Sounds/correct.wav","null","1","","","","","","",""
"null","","audio-keyboard-response","96","2279749","0.0-13.0-0.11","l","COGS219_2020_36","Sounds/gun_label.wav","null","1","","","","","","",""
"null","","html-keyboard-response","97","2280745","0.0-13.0-1.11","l","COGS219_2020_36","<p style=""font-size: 48px;"">+</p>","null","1","","","","","","",""
"1160.3099999483675","","image-keyboard-response","98","2281907","0.0-13.0-2.11","l","COGS219_2020_36","Images/dog_3.png","65","1","1583102784669","non-match","dog","gun","label","test","true"
"null","","audio-keyboard-response","99","2283915","0.0-13.0-3.11","l","COGS219_2020_36","Sounds/correct.wav","null","1","","","","","","",""
"null","","audio-keyboard-response","100","2285189","0.0-13.0-0.12","l","COGS219_2020_36","Sounds/train_label.wav","null","1","","","","","","",""
"null","","html-keyboard-response","101","2286196","0.0-13.0-1.12","l","COGS219_2020_36","<p style=""font-size: 48px;"">+</p>","null","1","","","","","","",""
"1645.6249998882413","","image-keyboard-response","102","2287843","0.0-13.0-2.12","l","COGS219_2020_36","Images/train_3.png","76","1","1583102790119","match","train","train","label","test","true"
"null","","audio-keyboard-response","103","2289853","0.0-13.0-3.12","l","COGS219_2020_36","Sounds/correct.wav","null","1","","","","","","",""
"null","","audio-keyboard-response","104","2290549","0.0-13.0-0.13","l","COGS219_2020_36","Sounds/rooster_label.wav","null","1","","","","","","",""
"null","","html-keyboard-response","105","2291546","0.0-13.0-1.13","l","COGS219_2020_36","<p style=""font-size: 48px;"">+</p>","null","1","","","","","","",""
"1240.0350000243634","","image-keyboard-response","106","2292787","0.0-13.0-2.13","l","COGS219_2020_36","Images/gun_orig.png","65","1","1583102795469","non-match","gun","rooster","label","test","true"
"null","","audio-keyboard-response","107","2294790","0.0-13.0-3.13","l","COGS219_2020_36","Sounds/correct.wav","null","1","","","","","","",""
"null","","audio-keyboard-response","108","2295929","0.0-13.0-0.14","l","COGS219_2020_36","Sounds/motorcycle_label.wav","null","1","","","","","","",""
"null","","html-keyboard-response","109","2296929","0.0-13.0-1.14","l","COGS219_2020_36","<p style=""font-size: 48px;"">+</p>","null","1","","","","","","",""
"1200.3099999856204","","image-keyboard-response","110","2298130","0.0-13.0-2.14","l","COGS219_2020_36","Images/cat_1.png","65","1","1583102800852","non-match","cat","motorcycle","label","test","true"
"null","","audio-keyboard-response","111","2300137","0.0-13.0-3.14","l","COGS219_2020_36","Sounds/correct.wav","null","1","","","","","","",""
"null","","audio-keyboard-response","112","2300829","0.0-13.0-0.15","l","COGS219_2020_36","Sounds/whistle_label.wav","null","1","","","","","","",""
"null","","html-keyboard-response","113","2301829","0.0-13.0-1.15","l","COGS219_2020_36","<p style=""font-size: 48px;"">+</p>","null","1","","","","","","",""
"1244.715000037104","","image-keyboard-response","114","2303074","0.0-13.0-2.15","l","COGS219_2020_36","Images/whistle_orig.png","76","1","1583102805752","match","whistle","whistle","label","test","true"
"null","","audio-keyboard-response","115","2305087","0.0-13.0-3.15","l","COGS219_2020_36","Sounds/correct.wav","null","1","","","","","","",""
"null","","audio-keyboard-response","116","2306189","0.0-13.0-0.16","l","COGS219_2020_36","Sounds/motorcycle_label.wav","null","1","","","","","","",""
"null","","html-keyboard-response","117","2307179","0.0-13.0-1.16","l","COGS219_2020_36","<p style=""font-size: 48px;"">+</p>","null","1","","","","","","",""
"1222.70999988541","","image-keyboard-response","118","2308403","0.0-13.0-2.16","l","COGS219_2020_36","Images/frog_3.png","65","1","1583102811102","non-match","frog","motorcycle","label","test","true"
"null","","audio-keyboard-response","119","2310420","0.0-13.0-3.16","l","COGS219_2020_36","Sounds/correct.wav","null","1","","","","","","",""
"null","","audio-keyboard-response","120","2311130","0.0-13.0-0.17","l","COGS219_2020_36","Sounds/dog_sound.wav","null","1","","","","","","",""
"null","","html-keyboard-response","121","2312130","0.0-13.0-1.17","l","COGS219_2020_36","<p style=""font-size: 48px;"">+</p>","null","1","","","","","","",""
"992.6849999465048","","image-keyboard-response","122","2313123","0.0-13.0-2.17","l","COGS219_2020_36","Images/dog_2.png","76","1","1583102816053","match","dog","dog","sound","test","true"
"null","","audio-keyboard-response","123","2315133","0.0-13.0-3.17","l","COGS219_2020_36","Sounds/correct.wav","null","1","","","","","","",""
"null","","audio-keyboard-response","124","2315970","0.0-13.0-0.18","l","COGS219_2020_36","Sounds/cat_label.wav","null","1","","","","","","",""
"null","","html-keyboard-response","125","2316963","0.0-13.0-1.18","l","COGS219_2020_36","<p style=""font-size: 48px;"">+</p>","null","1","","","","","","",""
"1102.9700001236051","","image-keyboard-response","126","2318067","0.0-13.0-2.18","l","COGS219_2020_36","Images/cat_cartoon.png","76","1","1583102820887","match","cat","cat","label","test","true"
"null","","audio-keyboard-response","127","2320084","0.0-13.0-3.18","l","COGS219_2020_36","Sounds/correct.wav","null","1","","","","","","",""
"null","","audio-keyboard-response","128","2321170","0.0-13.0-0.19","l","COGS219_2020_36","Sounds/car_label.wav","null","1","","","","","","",""
"null","","html-keyboard-response","129","2322163","0.0-13.0-1.19","l","COGS219_2020_36","<p style=""font-size: 48px;"">+</p>","null","1","","","","","","",""
"1199.3299999739975","","image-keyboard-response","130","2323364","0.0-13.0-2.19","l","COGS219_2020_36","Images/whistle_orig.png","65","1","1583102826086","non-match","whistle","car","label","test","true"
"null","","audio-keyboard-response","131","2325369","0.0-13.0-3.19","l","COGS219_2020_36","Sounds/correct.wav","null","1","","","","","","",""
"null","","audio-keyboard-response","132","2326650","0.0-13.0-0.20","l","COGS219_2020_36","Sounds/train_label.wav","null","1","","","","","","",""
"null","","html-keyboard-response","133","2327647","0.0-13.0-1.20","l","COGS219_2020_36","<p style=""font-size: 48px;"">+</p>","null","1","","","","","","",""
"1091.4349998347461","","image-keyboard-response","134","2328739","0.0-13.0-2.20","l","COGS219_2020_36","Images/train_orig.png","76","1","1583102831570","match","train","train","label","test","true"
"null","","audio-keyboard-response","135","2330750","0.0-13.0-3.20","l","COGS219_2020_36","Sounds/correct.wav","null","1","","","","","","",""
"null","","audio-keyboard-response","136","2331650","0.0-13.0-0.21","l","COGS219_2020_36","Sounds/frog_label.wav","null","1","","","","","","",""
"null","","html-keyboard-response","137","2332647","0.0-13.0-1.21","l","COGS219_2020_36","<p style=""font-size: 48px;"">+</p>","null","1","","","","","","",""
"1083.6300000082701","","image-keyboard-response","138","2333731","0.0-13.0-2.21","l","COGS219_2020_36","Images/cow_cartoon.png","65","1","1583102836570","non-match","cow","frog","label","test","true"
"null","","audio-keyboard-response","139","2335736","0.0-13.0-3.21","l","COGS219_2020_36","Sounds/correct.wav","null","1","","","","","","",""
"null","","audio-keyboard-response","140","2336870","0.0-13.0-0.22","l","COGS219_2020_36","Sounds/motorcycle_label.wav","null","1","","","","","","",""
"null","","html-keyboard-response","141","2337863","0.0-13.0-1.22","l","COGS219_2020_36","<p style=""font-size: 48px;"">+</p>","null","1","","","","","","",""
"1802.7250000741333","","image-keyboard-response","142","2339667","0.0-13.0-2.22","l","COGS219_2020_36","Images/whistle_3.png","65","1","1583102841787","non-match","whistle","motorcycle","label","test","true"
"null","","audio-keyboard-response","143","2341670","0.0-13.0-3.22","l","COGS219_2020_36","Sounds/correct.wav","null","1","","","","","","",""
"null","","audio-keyboard-response","144","2342510","0.0-13.0-0.23","l","COGS219_2020_36","Sounds/cat_sound.wav","null","1","","","","","","",""
"null","","html-keyboard-response","145","2343514","0.0-13.0-1.23","l","COGS219_2020_36","<p style=""font-size: 48px;"">+</p>","null","1","","","","","","",""
"1176.865000044927","","image-keyboard-response","146","2344692","0.0-13.0-2.23","l","COGS219_2020_36","Images/cat_orig.png","76","1","1583102847437","match","cat","cat","sound","test","true"
"null","","audio-keyboard-response","147","2346701","0.0-13.0-3.23","l","COGS219_2020_36","Sounds/correct.wav","null","1","","","","","","",""
"null","","audio-keyboard-response","148","2347390","0.0-13.0-0.24","l","COGS219_2020_36","Sounds/rooster_label.wav","null","1","","","","","","",""
"null","","html-keyboard-response","149","2348380","0.0-13.0-1.24","l","COGS219_2020_36","<p style=""font-size: 48px;"">+</p>","null","1","","","","","","",""
"1589.8899999447167","","image-keyboard-response","150","2349971","0.0-13.0-2.24","l","COGS219_2020_36","Images/rooster_3.png","76","1","1583102852304","match","rooster","rooster","label","test","true"
"null","","audio-keyboard-response","151","2351987","0.0-13.0-3.24","l","COGS219_2020_36","Sounds/correct.wav","null","1","","","","","","",""
"null","","audio-keyboard-response","152","2352690","0.0-13.0-0.25","l","COGS219_2020_36","Sounds/dog_sound.wav","null","1","","","","","","",""
"null","","html-keyboard-response","153","2353680","0.0-13.0-1.25","l","COGS219_2020_36","<p style=""font-size: 48px;"">+</p>","null","1","","","","","","",""
"1281.9850000087172","","image-keyboard-response","154","2354963","0.0-13.0-2.25","l","COGS219_2020_36","Images/cow_orig.png","65","1","1583102857604","non-match","cow","dog","sound","test","true"
"null","","audio-keyboard-response","155","2356972","0.0-13.0-3.25","l","COGS219_2020_36","Sounds/correct.wav","null","1","","","","","","",""
"null","","audio-keyboard-response","156","2357790","0.0-13.0-0.26","l","COGS219_2020_36","Sounds/cat_sound.wav","null","1","","","","","","",""
"null","","html-keyboard-response","157","2358780","0.0-13.0-1.26","l","COGS219_2020_36","<p style=""font-size: 48px;"">+</p>","null","1","","","","","","",""
"1061.805000063032","","image-keyboard-response","158","2359843","0.0-13.0-2.26","l","COGS219_2020_36","Images/frog_2.png","65","1","1583102862704","non-match","frog","cat","sound","test","true"
"null","","audio-keyboard-response","159","2361853","0.0-13.0-3.26","l","COGS219_2020_36","Sounds/correct.wav","null","1","","","","","","",""
"null","","audio-keyboard-response","160","2362750","0.0-13.0-0.27","l","COGS219_2020_36","Sounds/frog_label.wav","null","1","","","","","","",""
"null","","html-keyboard-response","161","2363747","0.0-13.0-1.27","l","COGS219_2020_36","<p style=""font-size: 48px;"">+</p>","null","1","","","","","","",""
"1263.3449998684227","","image-keyboard-response","162","2365011","0.0-13.0-2.27","l","COGS219_2020_36","Images/rooster_1.png","65","1","1583102867670","non-match","rooster","frog","label","test","true"
"null","","audio-keyboard-response","163","2367020","0.0-13.0-3.27","l","COGS219_2020_36","Sounds/correct.wav","null","1","","","","","","",""
"null","","audio-keyboard-response","164","2367850","0.0-13.0-0.28","l","COGS219_2020_36","Sounds/cat_label.wav","null","1","","","","","","",""
"null","","html-keyboard-response","165","2368848","0.0-13.0-1.28","l","COGS219_2020_36","<p style=""font-size: 48px;"">+</p>","null","1","","","","","","",""
"915.1200000196695","","image-keyboard-response","166","2369764","0.0-13.0-2.28","l","COGS219_2020_36","Images/car_cartoon.png","65","1","1583102872771","non-match","car","cat","label","test","true"
"null","","audio-keyboard-response","167","2371770","0.0-13.0-3.28","l","COGS219_2020_36","Sounds/correct.wav","null","1","","","","","","",""
"null","","audio-keyboard-response","168","2372471","0.0-13.0-0.29","l","COGS219_2020_36","Sounds/rooster_sound.wav","null","1","","","","","","",""
"null","","html-keyboard-response","169","2373465","0.0-13.0-1.29","l","COGS219_2020_36","<p style=""font-size: 48px;"">+</p>","null","1","","","","","","",""
"1034.4000000040978","","image-keyboard-response","170","2374500","0.0-13.0-2.29","l","COGS219_2020_36","Images/motorcycle_1.png","65","1","1583102877388","non-match","motorcycle","rooster","sound","test","true"
"null","","audio-keyboard-response","171","2376503","0.0-13.0-3.29","l","COGS219_2020_36","Sounds/correct.wav","null","1","","","","","","",""
"null","","audio-keyboard-response","172","2377531","0.0-13.0-0.30","l","COGS219_2020_36","Sounds/cow_label.wav","null","1","","","","","","",""
"null","","html-keyboard-response","173","2378531","0.0-13.0-1.30","l","COGS219_2020_36","<p style=""font-size: 48px;"">+</p>","null","1","","","","","","",""
"1983.8700001128018","","image-keyboard-response","174","2380516","0.0-13.0-2.30","l","COGS219_2020_36","Images/cow_3.png","65","1","1583102882455","match","cow","cow","label","test","false"
"null","","audio-keyboard-response","175","2382523","0.0-13.0-3.30","l","COGS219_2020_36","Sounds/incorrect.wav","null","1","","","","","","",""
"null","","audio-keyboard-response","176","2383411","0.0-13.0-0.31","l","COGS219_2020_36","Sounds/frog_label.wav","null","1","","","","","","",""
"null","","html-keyboard-response","177","2384415","0.0-13.0-1.31","l","COGS219_2020_36","<p style=""font-size: 48px;"">+</p>","null","1","","","","","","",""
"1204.1549999266863","","image-keyboard-response","178","2385620","0.0-13.0-2.31","l","COGS219_2020_36","Images/frog_orig.png","76","1","1583102888338","match","frog","frog","label","test","true"
"null","","audio-keyboard-response","179","2387624","0.0-13.0-3.31","l","COGS219_2020_36","Sounds/correct.wav","null","1","","","","","","",""
"null","","audio-keyboard-response","180","2388211","0.0-13.0-0.32","l","COGS219_2020_36","Sounds/gun_sound.wav","null","1","","","","","","",""
"null","","html-keyboard-response","181","2389215","0.0-13.0-1.32","l","COGS219_2020_36","<p style=""font-size: 48px;"">+</p>","null","1","","","","","","",""
"1508.159999968484","","image-keyboard-response","182","2390724","0.0-13.0-2.32","l","COGS219_2020_36","Images/gun_1.png","76","1","1583102893138","match","gun","gun","sound","test","true"
"null","","audio-keyboard-response","183","2392739","0.0-13.0-3.32","l","COGS219_2020_36","Sounds/correct.wav","null","1","","","","","","",""
"null","","audio-keyboard-response","184","2393291","0.0-13.0-0.33","l","COGS219_2020_36","Sounds/gun_sound.wav","null","1","","","","","","",""
"null","","html-keyboard-response","185","2394282","0.0-13.0-1.33","l","COGS219_2020_36","<p style=""font-size: 48px;"">+</p>","null","1","","","","","","",""
"1177.5400000624359","","image-keyboard-response","186","2395460","0.0-13.0-2.33","l","COGS219_2020_36","Images/motorcycle_3.png","65","1","1583102898205","non-match","motorcycle","gun","sound","test","true"
"null","","audio-keyboard-response","187","2397468","0.0-13.0-3.33","l","COGS219_2020_36","Sounds/correct.wav","null","1","","","","","","",""
"null","","audio-keyboard-response","188","2398751","0.0-13.0-0.34","l","COGS219_2020_36","Sounds/train_label.wav","null","1","","","","","","",""
"null","","html-keyboard-response","189","2399748","0.0-13.0-1.34","l","COGS219_2020_36","<p style=""font-size: 48px;"">+</p>","null","1","","","","","","",""
"1134.9049999844283","","image-keyboard-response","190","2400884","0.0-13.0-2.34","l","COGS219_2020_36","Images/train_2.png","76","1","1583102903672","match","train","train","label","test","true"
"null","","audio-keyboard-response","191","2402888","0.0-13.0-3.34","l","COGS219_2020_36","Sounds/correct.wav","null","1","","","","","","",""
"null","","audio-keyboard-response","192","2403591","0.0-13.0-0.35","l","COGS219_2020_36","Sounds/dog_sound.wav","null","1","","","","","","",""
"null","","html-keyboard-response","193","2404582","0.0-13.0-1.35","l","COGS219_2020_36","<p style=""font-size: 48px;"">+</p>","null","1","","","","","","",""
"1469.3550001829863","","image-keyboard-response","194","2406052","0.0-13.0-2.35","l","COGS219_2020_36","Images/train_1.png","65","1","1583102908505","non-match","train","dog","sound","test","true"
"null","","audio-keyboard-response","195","2408059","0.0-13.0-3.35","l","COGS219_2020_36","Sounds/correct.wav","null","1","","","","","","",""
"null","","audio-keyboard-response","196","2408751","0.0-13.0-0.36","l","COGS219_2020_36","Sounds/rooster_label.wav","null","1","","","","","","",""
"null","","html-keyboard-response","197","2409748","0.0-13.0-1.36","l","COGS219_2020_36","<p style=""font-size: 48px;"">+</p>","null","1","","","","","","",""
"1054.5799999963492","","image-keyboard-response","198","2410804","0.0-13.0-2.36","l","COGS219_2020_36","Images/rooster_orig.png","76","1","1583102913672","match","rooster","rooster","label","test","true"
"null","","audio-keyboard-response","199","2412819","0.0-13.0-3.36","l","COGS219_2020_36","Sounds/correct.wav","null","1","","","","","","",""
"null","","audio-keyboard-response","200","2413511","0.0-13.0-0.37","l","COGS219_2020_36","Sounds/dog_sound.wav","null","1","","","","","","",""
"null","","html-keyboard-response","201","2414515","0.0-13.0-1.37","l","COGS219_2020_36","<p style=""font-size: 48px;"">+</p>","null","1","","","","","","",""
"1136.1349998041987","","image-keyboard-response","202","2415652","0.0-13.0-2.37","l","COGS219_2020_36","Images/dog_1.png","76","1","1583102918438","match","dog","dog","sound","test","true"
"null","","audio-keyboard-response","203","2417669","0.0-13.0-3.37","l","COGS219_2020_36","Sounds/correct.wav","null","1","","","","","","",""
"null","","audio-keyboard-response","204","2418371","0.0-13.0-0.38","l","COGS219_2020_36","Sounds/whistle_label.wav","null","1","","","","","","",""
"null","","html-keyboard-response","205","2419365","0.0-13.0-1.38","l","COGS219_2020_36","<p style=""font-size: 48px;"">+</p>","null","1","","","","","","",""
"813.8049999251962","","image-keyboard-response","206","2420180","0.0-13.0-2.38","l","COGS219_2020_36","Images/whistle_1.png","76","1","1583102923288","match","whistle","whistle","label","test","true"
"null","","audio-keyboard-response","207","2422188","0.0-13.0-3.38","l","COGS219_2020_36","Sounds/correct.wav","null","1","","","","","","",""
"null","","audio-keyboard-response","208","2423211","0.0-13.0-0.39","l","COGS219_2020_36","Sounds/cow_sound.wav","null","1","","","","","","",""
"null","","html-keyboard-response","209","2424215","0.0-13.0-1.39","l","COGS219_2020_36","<p style=""font-size: 48px;"">+</p>","null","1","","","","","","",""
"971.9249999616295","","image-keyboard-response","210","2425188","0.0-13.0-2.39","l","COGS219_2020_36","Images/train_cartoon.png","65","1","1583102928139","non-match","train","cow","sound","test","true"
"null","","audio-keyboard-response","211","2427204","0.0-13.0-3.39","l","COGS219_2020_36","Sounds/correct.wav","null","1","","","","","","",""
"null","","audio-keyboard-response","212","2428111","0.0-13.0-0.40","l","COGS219_2020_36","Sounds/frog_sound.wav","null","1","","","","","","",""
"null","","html-keyboard-response","213","2429116","0.0-13.0-1.40","l","COGS219_2020_36","<p style=""font-size: 48px;"">+</p>","null","1","","","","","","",""
"1015.8849998842925","","image-keyboard-response","214","2430133","0.0-13.0-2.40","l","COGS219_2020_36","Images/frog_3.png","76","1","1583102933040","match","frog","frog","sound","test","true"
"null","","audio-keyboard-response","215","2432139","0.0-13.0-3.40","l","COGS219_2020_36","Sounds/correct.wav","null","1","","","","","","",""
"null","","audio-keyboard-response","216","2433032","0.0-13.0-0.41","l","COGS219_2020_36","Sounds/frog_sound.wav","null","1","","","","","","",""
"null","","html-keyboard-response","217","2434050","0.0-13.0-1.41","l","COGS219_2020_36","<p style=""font-size: 48px;"">+</p>","null","1","","","","","","",""
"978.3999999053776","","image-keyboard-response","218","2435029","0.0-13.0-2.41","l","COGS219_2020_36","Images/frog_cartoon.png","76","1","1583102937973","match","frog","frog","sound","test","true"
"null","","audio-keyboard-response","219","2437038","0.0-13.0-3.41","l","COGS219_2020_36","Sounds/correct.wav","null","1","","","","","","",""
"null","","audio-keyboard-response","220","2438172","0.0-13.0-0.42","l","COGS219_2020_36","Sounds/motorcycle_label.wav","null","1","","","","","","",""
"null","","html-keyboard-response","221","2439166","0.0-13.0-1.42","l","COGS219_2020_36","<p style=""font-size: 48px;"">+</p>","null","1","","","","","","",""
"1205.7499999646097","","image-keyboard-response","222","2440373","0.0-13.0-2.42","l","COGS219_2020_36","Images/cow_3.png","65","1","1583102943090","non-match","cow","motorcycle","label","test","true"
"null","","audio-keyboard-response","223","2442391","0.0-13.0-3.42","l","COGS219_2020_36","Sounds/correct.wav","null","1","","","","","","",""
"null","","audio-keyboard-response","224","2443512","0.0-13.0-0.43","l","COGS219_2020_36","Sounds/motorcycle_sound.wav","null","1","","","","","","",""
"null","","html-keyboard-response","225","2444516","0.0-13.0-1.43","l","COGS219_2020_36","<p style=""font-size: 48px;"">+</p>","null","1","","","","","","",""
"1023.5399999655783","","image-keyboard-response","226","2445541","0.0-13.0-2.43","l","COGS219_2020_36","Images/motorcycle_orig.png","76","1","1583102948440","match","motorcycle","motorcycle","sound","test","true"
"null","","audio-keyboard-response","227","2447553","0.0-13.0-3.43","l","COGS219_2020_36","Sounds/correct.wav","null","1","","","","","","",""
"null","","audio-keyboard-response","228","2448392","0.0-13.0-0.44","l","COGS219_2020_36","Sounds/cat_sound.wav","null","1","","","","","","",""
"null","","html-keyboard-response","229","2449383","0.0-13.0-1.44","l","COGS219_2020_36","<p style=""font-size: 48px;"">+</p>","null","1","","","","","","",""
"1212.9850001074374","","image-keyboard-response","230","2450597","0.0-13.0-2.44","l","COGS219_2020_36","Images/motorcycle_2.png","65","1","1583102953306","non-match","motorcycle","cat","sound","test","true"
"null","","audio-keyboard-response","231","2452606","0.0-13.0-3.44","l","COGS219_2020_36","Sounds/correct.wav","null","1","","","","","","",""
"null","","audio-keyboard-response","232","2453632","0.0-13.0-0.45","l","COGS219_2020_36","Sounds/cow_sound.wav","null","1","","","","","","",""
"null","","html-keyboard-response","233","2454650","0.0-13.0-1.45","l","COGS219_2020_36","<p style=""font-size: 48px;"">+</p>","null","1","","","","","","",""
"2234.0450000483543","","image-keyboard-response","234","2456885","0.0-13.0-2.45","l","COGS219_2020_36","Images/cow_orig.png","76","1","1583102958573","match","cow","cow","sound","test","true"
"null","","audio-keyboard-response","235","2458891","0.0-13.0-3.45","l","COGS219_2020_36","Sounds/correct.wav","null","1","","","","","","",""
"null","","audio-keyboard-response","236","2459612","0.0-13.0-0.46","l","COGS219_2020_36","Sounds/dog_sound.wav","null","1","","","","","","",""
"null","","html-keyboard-response","237","2460617","0.0-13.0-1.46","l","COGS219_2020_36","<p style=""font-size: 48px;"">+</p>","null","1","","","","","","",""
"1275.2750001382083","","image-keyboard-response","238","2461893","0.0-13.0-2.46","l","COGS219_2020_36","Images/frog_cartoon.png","65","1","1583102964540","non-match","frog","dog","sound","test","true"
"null","","audio-keyboard-response","239","2463909","0.0-13.0-3.46","l","COGS219_2020_36","Sounds/correct.wav","null","1","","","","","","",""
"null","","audio-keyboard-response","240","2464492","0.0-13.0-0.47","l","COGS219_2020_36","Sounds/gun_sound.wav","null","1","","","","","","",""
"null","","html-keyboard-response","241","2465483","0.0-13.0-1.47","l","COGS219_2020_36","<p style=""font-size: 48px;"">+</p>","null","1","","","","","","",""
"1288.8050000183284","","image-keyboard-response","242","2466773","0.0-13.0-2.47","l","COGS219_2020_36","Images/frog_orig.png","65","1","1583102969407","non-match","frog","gun","sound","test","true"
"null","","audio-keyboard-response","243","2468791","0.0-13.0-3.47","l","COGS219_2020_36","Sounds/correct.wav","null","1","","","","","","",""
"null","","audio-keyboard-response","244","2469692","0.0-13.0-0.48","l","COGS219_2020_36","Sounds/frog_label.wav","null","1","","","","","","",""
"null","","html-keyboard-response","245","2470683","0.0-13.0-1.48","l","COGS219_2020_36","<p style=""font-size: 48px;"">+</p>","null","1","","","","","","",""
"1080.745000159368","","image-keyboard-response","246","2471765","0.0-13.0-2.48","l","COGS219_2020_36","Images/motorcycle_cartoon.png","65","1","1583102974607","non-match","motorcycle","frog","label","test","true"
"null","","audio-keyboard-response","247","2473772","0.0-13.0-3.48","l","COGS219_2020_36","Sounds/correct.wav","null","1","","","","","","",""
"null","","audio-keyboard-response","248","2474472","0.0-13.0-0.49","l","COGS219_2020_36","Sounds/rooster_label.wav","null","1","","","","","","",""
"null","","html-keyboard-response","249","2475467","0.0-13.0-1.49","l","COGS219_2020_36","<p style=""font-size: 48px;"">+</p>","null","1","","","","","","",""
"857.5249998830259","","image-keyboard-response","250","2476325","0.0-13.0-2.49","l","COGS219_2020_36","Images/rooster_1.png","76","1","1583102979390","match","rooster","rooster","label","test","true"
"null","","audio-keyboard-response","251","2478337","0.0-13.0-3.49","l","COGS219_2020_36","Sounds/correct.wav","null","1","","","","","","",""
"null","","audio-keyboard-response","252","2479032","0.0-13.0-0.50","l","COGS219_2020_36","Sounds/whistle_label.wav","null","1","","","","","","",""
"null","","html-keyboard-response","253","2480050","0.0-13.0-1.50","l","COGS219_2020_36","<p style=""font-size: 48px;"">+</p>","null","1","","","","","","",""
"770.0600000098348","","image-keyboard-response","254","2480821","0.0-13.0-2.50","l","COGS219_2020_36","Images/whistle_cartoon.png","76","1","1583102983973","match","whistle","whistle","label","test","true"
"null","","audio-keyboard-response","255","2482838","0.0-13.0-3.50","l","COGS219_2020_36","Sounds/correct.wav","null","1","","","","","","",""
"null","","audio-keyboard-response","256","2483552","0.0-13.0-0.51","l","COGS219_2020_36","Sounds/dog_sound.wav","null","1","","","","","","",""
"null","","html-keyboard-response","257","2484550","0.0-13.0-1.51","l","COGS219_2020_36","<p style=""font-size: 48px;"">+</p>","null","1","","","","","","",""
"1117.890000110492","","image-keyboard-response","258","2485669","0.0-13.0-2.51","l","COGS219_2020_36","Images/cat_orig.png","65","1","1583102988473","non-match","cat","dog","sound","test","true"
"null","","audio-keyboard-response","259","2487673","0.0-13.0-3.51","l","COGS219_2020_36","Sounds/correct.wav","null","1","","","","","","",""
"null","","audio-keyboard-response","260","2488512","0.0-13.0-0.52","l","COGS219_2020_36","Sounds/cat_sound.wav","null","1","","","","","","",""
"null","","html-keyboard-response","261","2489501","0.0-13.0-1.52","l","COGS219_2020_36","<p style=""font-size: 48px;"">+</p>","null","1","","","","","","",""
"888.099999865517","","image-keyboard-response","262","2490390","0.0-13.0-2.52","l","COGS219_2020_36","Images/cat_1.png","76","1","1583102993424","match","cat","cat","sound","test","true"
"null","","audio-keyboard-response","263","2492405","0.0-13.0-3.52","l","COGS219_2020_36","Sounds/correct.wav","null","1","","","","","","",""
"null","","audio-keyboard-response","264","2493713","0.0-13.0-0.53","l","COGS219_2020_36","Sounds/train_sound.wav","null","1","","","","","","",""
"null","","html-keyboard-response","265","2494718","0.0-13.0-1.53","l","COGS219_2020_36","<p style=""font-size: 48px;"">+</p>","null","1","","","","","","",""
"1142.689999891445","","image-keyboard-response","266","2495862","0.0-13.0-2.53","l","COGS219_2020_36","Images/rooster_3.png","65","1","1583102998641","non-match","rooster","train","sound","test","true"
"null","","audio-keyboard-response","267","2497871","0.0-13.0-3.53","l","COGS219_2020_36","Sounds/correct.wav","null","1","","","","","","",""
"null","","audio-keyboard-response","268","2498953","0.0-13.0-0.54","l","COGS219_2020_36","Sounds/car_sound.wav","null","1","","","","","","",""
"null","","html-keyboard-response","269","2499951","0.0-13.0-1.54","l","COGS219_2020_36","<p style=""font-size: 48px;"">+</p>","null","1","","","","","","",""
"1109.730000142008","","image-keyboard-response","270","2501062","0.0-13.0-2.54","l","COGS219_2020_36","Images/car_2.png","76","1","1583103003874","match","car","car","sound","test","true"
"null","","audio-keyboard-response","271","2503071","0.0-13.0-3.54","l","COGS219_2020_36","Sounds/correct.wav","null","1","","","","","","",""
"null","","audio-keyboard-response","272","2504353","0.0-13.0-0.55","l","COGS219_2020_36","Sounds/train_sound.wav","null","1","","","","","","",""
"null","","html-keyboard-response","273","2505351","0.0-13.0-1.55","l","COGS219_2020_36","<p style=""font-size: 48px;"">+</p>","null","1","","","","","","",""
"1213.6199998203665","","image-keyboard-response","274","2506566","0.0-13.0-2.55","l","COGS219_2020_36","Images/cow_2.png","65","1","1583103009274","non-match","cow","train","sound","test","true"
"null","","audio-keyboard-response","275","2508573","0.0-13.0-3.55","l","COGS219_2020_36","Sounds/correct.wav","null","1","","","","","","",""
"null","","audio-keyboard-response","276","2509853","0.0-13.0-0.56","l","COGS219_2020_36","Sounds/train_sound.wav","null","1","","","","","","",""
"null","","html-keyboard-response","277","2510851","0.0-13.0-1.56","l","COGS219_2020_36","<p style=""font-size: 48px;"">+</p>","null","1","","","","","","",""
"1089.6749999374151","","image-keyboard-response","278","2511942","0.0-13.0-2.56","l","COGS219_2020_36","Images/whistle_2.png","65","1","1583103014774","non-match","whistle","train","sound","test","true"
"null","","audio-keyboard-response","279","2513955","0.0-13.0-3.56","l","COGS219_2020_36","Sounds/correct.wav","null","1","","","","","","",""
"null","","audio-keyboard-response","280","2515093","0.0-13.0-0.57","l","COGS219_2020_36","Sounds/motorcycle_label.wav","null","1","","","","","","",""
"null","","html-keyboard-response","281","2516084","0.0-13.0-1.57","l","COGS219_2020_36","<p style=""font-size: 48px;"">+</p>","null","1","","","","","","",""
"1248.1999997980893","","image-keyboard-response","282","2517334","0.0-13.0-2.57","l","COGS219_2020_36","Images/motorcycle_1.png","76","1","1583103020008","match","motorcycle","motorcycle","label","test","true"
"null","","audio-keyboard-response","283","2519345","0.0-13.0-3.57","l","COGS219_2020_36","Sounds/correct.wav","null","1","","","","","","",""
"null","","audio-keyboard-response","284","2520193","0.0-13.0-0.58","l","COGS219_2020_36","Sounds/cat_sound.wav","null","1","","","","","","",""
"null","","html-keyboard-response","285","2521185","0.0-13.0-1.58","l","COGS219_2020_36","<p style=""font-size: 48px;"">+</p>","null","1","","","","","","",""
"1108.1600000616163","","image-keyboard-response","286","2522294","0.0-13.0-2.58","l","COGS219_2020_36","Images/cat_3.png","76","1","1583103025108","match","cat","cat","sound","test","true"
"null","","audio-keyboard-response","287","2524306","0.0-13.0-3.58","l","COGS219_2020_36","Sounds/correct.wav","null","1","","","","","","",""
"null","","audio-keyboard-response","288","2525333","0.0-13.0-0.59","l","COGS219_2020_36","Sounds/cow_sound.wav","null","1","","","","","","",""
"null","","html-keyboard-response","289","2526335","0.0-13.0-1.59","l","COGS219_2020_36","<p style=""font-size: 48px;"">+</p>","null","1","","","","","","",""
"805.7399999815971","","image-keyboard-response","290","2527142","0.0-13.0-2.59","l","COGS219_2020_36","Images/cow_2.png","76","1","1583103030258","match","cow","cow","sound","test","true"
"null","","audio-keyboard-response","291","2529157","0.0-13.0-3.59","l","COGS219_2020_36","Sounds/correct.wav","null","1","","","","","","",""
"null","","audio-keyboard-response","292","2529733","0.0-13.0-0.60","l","COGS219_2020_36","Sounds/gun_label.wav","null","1","","","","","","",""
"null","","html-keyboard-response","293","2530735","0.0-13.0-1.60","l","COGS219_2020_36","<p style=""font-size: 48px;"">+</p>","null","1","","","","","","",""
"1350.0000000931323","","image-keyboard-response","294","2532086","0.0-13.0-2.60","l","COGS219_2020_36","Images/car_1.png","65","1","1583103034658","non-match","car","gun","label","test","true"
"null","","audio-keyboard-response","295","2534093","0.0-13.0-3.60","l","COGS219_2020_36","Sounds/correct.wav","null","1","","","","","","",""
"null","","audio-keyboard-response","296","2534993","0.0-13.0-0.61","l","COGS219_2020_36","Sounds/frog_sound.wav","null","1","","","","","","",""
"null","","html-keyboard-response","297","2535985","0.0-13.0-1.61","l","COGS219_2020_36","<p style=""font-size: 48px;"">+</p>","null","1","","","","","","",""
"676.1649998370558","","image-keyboard-response","298","2536662","0.0-13.0-2.61","l","COGS219_2020_36","Images/frog_1.png","76","1","1583103039908","match","frog","frog","sound","test","true"
"null","","audio-keyboard-response","299","2538673","0.0-13.0-3.61","l","COGS219_2020_36","Sounds/correct.wav","null","1","","","","","","",""
"null","","audio-keyboard-response","300","2539673","0.0-13.0-0.62","l","COGS219_2020_36","Sounds/cow_sound.wav","null","1","","","","","","",""
"null","","html-keyboard-response","301","2540668","0.0-13.0-1.62","l","COGS219_2020_36","<p style=""font-size: 48px;"">+</p>","null","1","","","","","","",""
"904.7900000587106","","image-keyboard-response","302","2541574","0.0-13.0-2.62","l","COGS219_2020_36","Images/cow_cartoon.png","76","1","1583103044591","match","cow","cow","sound","test","true"
"null","","audio-keyboard-response","303","2543589","0.0-13.0-3.62","l","COGS219_2020_36","Sounds/correct.wav","null","1","","","","","","",""
"null","","audio-keyboard-response","304","2544573","0.0-13.0-0.63","l","COGS219_2020_36","Sounds/cow_sound.wav","null","1","","","","","","",""
"null","","html-keyboard-response","305","2545568","0.0-13.0-1.63","l","COGS219_2020_36","<p style=""font-size: 48px;"">+</p>","null","1","","","","","","",""
"868.650000076741","","image-keyboard-response","306","2546438","0.0-13.0-2.63","l","COGS219_2020_36","Images/car_2.png","65","1","1583103049491","non-match","car","cow","sound","test","true"
"null","","audio-keyboard-response","307","2548440","0.0-13.0-3.63","l","COGS219_2020_36","Sounds/correct.wav","null","1","","","","","","",""
"null","","audio-keyboard-response","308","2549133","0.0-13.0-0.64","l","COGS219_2020_36","Sounds/whistle_label.wav","null","1","","","","","","",""
"null","","html-keyboard-response","309","2550136","0.0-13.0-1.64","l","COGS219_2020_36","<p style=""font-size: 48px;"">+</p>","null","1","","","","","","",""
"1022.0600001048297","","image-keyboard-response","310","2551159","0.0-13.0-2.64","l","COGS219_2020_36","Images/gun_1.png","65","1","1583103054059","non-match","gun","whistle","label","test","true"
"null","","audio-keyboard-response","311","2553173","0.0-13.0-3.64","l","COGS219_2020_36","Sounds/correct.wav","null","1","","","","","","",""
"null","","audio-keyboard-response","312","2554013","0.0-13.0-0.65","l","COGS219_2020_36","Sounds/cat_label.wav","null","1","","","","","","",""
"null","","html-keyboard-response","313","2555019","0.0-13.0-1.65","l","COGS219_2020_36","<p style=""font-size: 48px;"">+</p>","null","1","","","","","","",""
"712.6850001513958","","image-keyboard-response","314","2555735","0.0-13.0-2.65","l","COGS219_2020_36","Images/cat_2.png","76","1","1583103058942","match","cat","cat","label","test","true"
"null","","audio-keyboard-response","315","2557750","0.0-13.0-3.65","l","COGS219_2020_36","Sounds/correct.wav","null","1","","","","","","",""
"null","","audio-keyboard-response","316","2558833","0.0-13.0-0.66","l","COGS219_2020_36","Sounds/car_label.wav","null","1","","","","","","",""
"null","","html-keyboard-response","317","2559836","0.0-13.0-1.66","l","COGS219_2020_36","<p style=""font-size: 48px;"">+</p>","null","1","","","","","","",""
"810.1150000002235","","image-keyboard-response","318","2560647","0.0-13.0-2.66","l","COGS219_2020_36","Images/car_1.png","76","1","1583103063759","match","car","car","label","test","true"
"null","","audio-keyboard-response","319","2562656","0.0-13.0-3.66","l","COGS219_2020_36","Sounds/correct.wav","null","1","","","","","","",""
"null","","audio-keyboard-response","320","2563354","0.0-13.0-0.67","l","COGS219_2020_36","Sounds/rooster_label.wav","null","1","","","","","","",""
"null","","html-keyboard-response","321","2564352","0.0-13.0-1.67","l","COGS219_2020_36","<p style=""font-size: 48px;"">+</p>","null","1","","","","","","",""
"773.1600000988692","","image-keyboard-response","322","2565127","0.0-13.0-2.67","l","COGS219_2020_36","Images/cow_1.png","65","1","1583103068276","non-match","cow","rooster","label","test","true"
"null","","audio-keyboard-response","323","2567140","0.0-13.0-3.67","l","COGS219_2020_36","Sounds/correct.wav","null","1","","","","","","",""
"null","","audio-keyboard-response","324","2568253","0.0-13.0-0.68","l","COGS219_2020_36","Sounds/motorcycle_sound.wav","null","1","","","","","","",""
"null","","html-keyboard-response","325","2569252","0.0-13.0-1.68","l","COGS219_2020_36","<p style=""font-size: 48px;"">+</p>","null","1","","","","","","",""
"1056.8250000942498","","image-keyboard-response","326","2570310","0.0-13.0-2.68","l","COGS219_2020_36","Images/motorcycle_2.png","76","1","1583103073176","match","motorcycle","motorcycle","sound","test","true"
"null","","audio-keyboard-response","327","2572323","0.0-13.0-3.68","l","COGS219_2020_36","Sounds/correct.wav","null","1","","","","","","",""
"null","","audio-keyboard-response","328","2573633","0.0-13.0-0.69","l","COGS219_2020_36","Sounds/train_sound.wav","null","1","","","","","","",""
"null","","html-keyboard-response","329","2574636","0.0-13.0-1.69","l","COGS219_2020_36","<p style=""font-size: 48px;"">+</p>","null","1","","","","","","",""
"1577.8149999678135","","image-keyboard-response","330","2576215","0.0-13.0-2.69","l","COGS219_2020_36","Images/car_3.png","65","1","1583103078559","non-match","car","train","sound","test","true"
"null","","audio-keyboard-response","331","2578226","0.0-13.0-3.69","l","COGS219_2020_36","Sounds/correct.wav","null","1","","","","","","",""
"null","","audio-keyboard-response","332","2578933","0.0-13.0-0.70","l","COGS219_2020_36","Sounds/whistle_sound.wav","null","1","","","","","","",""
"null","","html-keyboard-response","333","2579936","0.0-13.0-1.70","l","COGS219_2020_36","<p style=""font-size: 48px;"">+</p>","null","1","","","","","","",""
"2997.674999991432","","image-keyboard-response","334","2582935","0.0-13.0-2.70","l","COGS219_2020_36","Images/dog_cartoon.png","65","1","1583103083859","non-match","dog","whistle","sound","test","true"
"null","","audio-keyboard-response","335","2584941","0.0-13.0-3.70","l","COGS219_2020_36","Sounds/correct.wav","null","1","","","","","","",""
"null","","audio-keyboard-response","336","2586013","0.0-13.0-0.71","l","COGS219_2020_36","Sounds/car_label.wav","null","1","","","","","","",""
"null","","html-keyboard-response","337","2587020","0.0-13.0-1.71","l","COGS219_2020_36","<p style=""font-size: 48px;"">+</p>","null","1","","","","","","",""
"1402.1350000984967","","image-keyboard-response","338","2588423","0.0-13.0-2.71","l","COGS219_2020_36","Images/car_cartoon.png","76","1","1583103090943","match","car","car","label","test","true"
"null","","audio-keyboard-response","339","2590427","0.0-13.0-3.71","l","COGS219_2020_36","Sounds/correct.wav","null","1","","","","","","",""
"null","","audio-keyboard-response","340","2591334","0.0-13.0-0.72","l","COGS219_2020_36","Sounds/frog_sound.wav","null","1","","","","","","",""
"null","","html-keyboard-response","341","2592336","0.0-13.0-1.72","l","COGS219_2020_36","<p style=""font-size: 48px;"">+</p>","null","1","","","","","","",""
"853.364999871701","","image-keyboard-response","342","2593191","0.0-13.0-2.72","l","COGS219_2020_36","Images/gun_2.png","65","1","1583103096259","non-match","gun","frog","sound","test","true"
"null","","audio-keyboard-response","343","2595208","0.0-13.0-3.72","l","COGS219_2020_36","Sounds/correct.wav","null","1","","","","","","",""
"null","","audio-keyboard-response","344","2596293","0.0-13.0-0.73","l","COGS219_2020_36","Sounds/car_sound.wav","null","1","","","","","","",""
"null","","html-keyboard-response","345","2597286","0.0-13.0-1.73","l","COGS219_2020_36","<p style=""font-size: 48px;"">+</p>","null","1","","","","","","",""
"927.3050001356751","","image-keyboard-response","346","2598215","0.0-13.0-2.73","l","COGS219_2020_36","Images/rooster_2.png","65","1","1583103101209","non-match","rooster","car","sound","test","true"
"null","","audio-keyboard-response","347","2600223","0.0-13.0-3.73","l","COGS219_2020_36","Sounds/correct.wav","null","1","","","","","","",""
"null","","audio-keyboard-response","348","2601074","0.0-13.0-0.74","l","COGS219_2020_36","Sounds/cat_sound.wav","null","1","","","","","","",""
"null","","html-keyboard-response","349","2602069","0.0-13.0-1.74","l","COGS219_2020_36","<p style=""font-size: 48px;"">+</p>","null","1","","","","","","",""
"720.2649998944253","","image-keyboard-response","350","2602791","0.0-13.0-2.74","l","COGS219_2020_36","Images/train_3.png","65","1","1583103105993","non-match","train","cat","sound","test","true"
"null","","audio-keyboard-response","351","2604807","0.0-13.0-3.74","l","COGS219_2020_36","Sounds/correct.wav","null","1","","","","","","",""
"null","","audio-keyboard-response","352","2605833","0.0-13.0-0.75","l","COGS219_2020_36","Sounds/cow_sound.wav","null","1","","","","","","",""
"null","","html-keyboard-response","353","2606836","0.0-13.0-1.75","l","COGS219_2020_36","<p style=""font-size: 48px;"">+</p>","null","1","","","","","","",""
"801.2249998282641","","image-keyboard-response","354","2607639","0.0-13.0-2.75","l","COGS219_2020_36","Images/gun_cartoon.png","65","1","1583103110760","non-match","gun","cow","sound","test","true"
"null","","audio-keyboard-response","355","2609657","0.0-13.0-3.75","l","COGS219_2020_36","Sounds/correct.wav","null","1","","","","","","",""
"null","","audio-keyboard-response","356","2610734","0.0-13.0-0.76","l","COGS219_2020_36","Sounds/car_label.wav","null","1","","","","","","",""
"null","","html-keyboard-response","357","2611737","0.0-13.0-1.76","l","COGS219_2020_36","<p style=""font-size: 48px;"">+</p>","null","1","","","","","","",""
"669.264999916777","","image-keyboard-response","358","2612407","0.0-13.0-2.76","l","COGS219_2020_36","Images/cat_2.png","65","1","1583103115660","non-match","cat","car","label","test","true"
"null","","audio-keyboard-response","359","2614410","0.0-13.0-3.76","l","COGS219_2020_36","Sounds/correct.wav","null","1","","","","","","",""
"null","","audio-keyboard-response","360","2615114","0.0-13.0-0.77","l","COGS219_2020_36","Sounds/whistle_label.wav","null","1","","","","","","",""
"null","","html-keyboard-response","361","2616104","0.0-13.0-1.77","l","COGS219_2020_36","<p style=""font-size: 48px;"">+</p>","null","1","","","","","","",""
"1582.2550000157207","","image-keyboard-response","362","2617687","0.0-13.0-2.77","l","COGS219_2020_36","Images/cat_3.png","65","1","1583103120027","non-match","cat","whistle","label","test","true"
"null","","audio-keyboard-response","363","2619695","0.0-13.0-3.77","l","COGS219_2020_36","Sounds/correct.wav","null","1","","","","","","",""
"null","","audio-keyboard-response","364","2620594","0.0-13.0-0.78","l","COGS219_2020_36","Sounds/frog_label.wav","null","1","","","","","","",""
"null","","html-keyboard-response","365","2621587","0.0-13.0-1.78","l","COGS219_2020_36","<p style=""font-size: 48px;"">+</p>","null","1","","","","","","",""
"578.9799999911338","","image-keyboard-response","366","2622167","0.0-13.0-2.78","l","COGS219_2020_36","Images/cat_cartoon.png","65","1","1583103125510","non-match","cat","frog","label","test","true"
"null","","audio-keyboard-response","367","2624177","0.0-13.0-3.78","l","COGS219_2020_36","Sounds/correct.wav","null","1","","","","","","",""
"null","","audio-keyboard-response","368","2625234","0.0-13.0-0.79","l","COGS219_2020_36","Sounds/car_label.wav","null","1","","","","","","",""
"null","","html-keyboard-response","369","2626237","0.0-13.0-1.79","l","COGS219_2020_36","<p style=""font-size: 48px;"">+</p>","null","1","","","","","","",""
"841.0800001583993","","image-keyboard-response","370","2627079","0.0-13.0-2.79","l","COGS219_2020_36","Images/train_orig.png","76","1","1583103130160","non-match","train","car","label","test","false"
"null","","audio-keyboard-response","371","2629084","0.0-13.0-3.79","l","COGS219_2020_36","Sounds/incorrect.wav","null","1","","","","","","",""
"null","","audio-keyboard-response","372","2629734","0.0-13.0-0.80","l","COGS219_2020_36","Sounds/dog_label.wav","null","1","","","","","","",""
"null","","html-keyboard-response","373","2630737","0.0-13.0-1.80","l","COGS219_2020_36","<p style=""font-size: 48px;"">+</p>","null","1","","","","","","",""
"1701.1750000528991","","image-keyboard-response","374","2632439","0.0-13.0-2.80","l","COGS219_2020_36","Images/dog_orig.png","76","1","1583103134660","match","dog","dog","label","test","true"
"null","","audio-keyboard-response","375","2634447","0.0-13.0-3.80","l","COGS219_2020_36","Sounds/correct.wav","null","1","","","","","","",""
"null","","audio-keyboard-response","376","2635034","0.0-13.0-0.81","l","COGS219_2020_36","Sounds/gun_sound.wav","null","1","","","","","","",""
"null","","html-keyboard-response","377","2636037","0.0-13.0-1.81","l","COGS219_2020_36","<p style=""font-size: 48px;"">+</p>","null","1","","","","","","",""
"832.2600000537932","","image-keyboard-response","378","2636871","0.0-13.0-2.81","l","COGS219_2020_36","Images/gun_2.png","76","1","1583103139960","match","gun","gun","sound","test","true"
"null","","audio-keyboard-response","379","2638877","0.0-13.0-3.81","l","COGS219_2020_36","Sounds/correct.wav","null","1","","","","","","",""
"null","","audio-keyboard-response","380","2640154","0.0-13.0-0.82","l","COGS219_2020_36","Sounds/train_label.wav","null","1","","","","","","",""
"null","","html-keyboard-response","381","2641153","0.0-13.0-1.82","l","COGS219_2020_36","<p style=""font-size: 48px;"">+</p>","null","1","","","","","","",""
"772.3550000227988","","image-keyboard-response","382","2641927","0.0-13.0-2.82","l","COGS219_2020_36","Images/train_1.png","76","1","1583103145077","match","train","train","label","test","true"
"null","","audio-keyboard-response","383","2643943","0.0-13.0-3.82","l","COGS219_2020_36","Sounds/correct.wav","null","1","","","","","","",""
"null","","audio-keyboard-response","384","2644654","0.0-13.0-0.83","l","COGS219_2020_36","Sounds/rooster_sound.wav","null","1","","","","","","",""
"null","","html-keyboard-response","385","2645654","0.0-13.0-1.83","l","COGS219_2020_36","<p style=""font-size: 48px;"">+</p>","null","1","","","","","","",""
"976.8300000578165","","image-keyboard-response","386","2646632","0.0-13.0-2.83","l","COGS219_2020_36","Images/whistle_cartoon.png","65","1","1583103149577","non-match","whistle","rooster","sound","test","true"
"null","","audio-keyboard-response","387","2648648","0.0-13.0-3.83","l","COGS219_2020_36","Sounds/correct.wav","null","1","","","","","","",""
"null","","audio-keyboard-response","388","2649354","0.0-13.0-0.84","l","COGS219_2020_36","Sounds/whistle_label.wav","null","1","","","","","","",""
"null","","html-keyboard-response","389","2650354","0.0-13.0-1.84","l","COGS219_2020_36","<p style=""font-size: 48px;"">+</p>","null","1","","","","","","",""
"2132.230000104755","","image-keyboard-response","390","2652487","0.0-13.0-2.84","l","COGS219_2020_36","Images/motorcycle_orig.png","65","1","1583103154277","non-match","motorcycle","whistle","label","test","true"
"null","","audio-keyboard-response","391","2654491","0.0-13.0-3.84","l","COGS219_2020_36","Sounds/correct.wav","null","1","","","","","","",""
"null","","audio-keyboard-response","392","2655554","0.0-13.0-0.85","l","COGS219_2020_36","Sounds/car_label.wav","null","1","","","","","","",""
"null","","html-keyboard-response","393","2656554","0.0-13.0-1.85","l","COGS219_2020_36","<p style=""font-size: 48px;"">+</p>","null","1","","","","","","",""
"874.2550001479685","","image-keyboard-response","394","2657431","0.0-13.0-2.85","l","COGS219_2020_36","Images/car_3.png","76","1","1583103160477","match","car","car","label","test","true"
"null","","audio-keyboard-response","395","2659440","0.0-13.0-3.85","l","COGS219_2020_36","Sounds/correct.wav","null","1","","","","","","",""
"null","","audio-keyboard-response","396","2660014","0.0-13.0-0.86","l","COGS219_2020_36","Sounds/gun_sound.wav","null","1","","","","","","",""
"null","","html-keyboard-response","397","2661004","0.0-13.0-1.86","l","COGS219_2020_36","<p style=""font-size: 48px;"">+</p>","null","1","","","","","","",""
"954.0500000584871","","image-keyboard-response","398","2661959","0.0-13.0-2.86","l","COGS219_2020_36","Images/gun_cartoon.png","76","1","1583103164927","match","gun","gun","sound","test","true"
"null","","audio-keyboard-response","399","2663976","0.0-13.0-3.86","l","COGS219_2020_36","Sounds/correct.wav","null","1","","","","","","",""
"null","","audio-keyboard-response","400","2665254","0.0-13.0-0.87","l","COGS219_2020_36","Sounds/train_label.wav","null","1","","","","","","",""
"null","","html-keyboard-response","401","2666254","0.0-13.0-1.87","l","COGS219_2020_36","<p style=""font-size: 48px;"">+</p>","null","1","","","","","","",""
"1111.879999982193","","image-keyboard-response","402","2667367","0.0-13.0-2.87","l","COGS219_2020_36","Images/gun_3.png","65","1","1583103170177","non-match","gun","train","label","test","true"
"null","","audio-keyboard-response","403","2669378","0.0-13.0-3.87","l","COGS219_2020_36","Sounds/correct.wav","null","1","","","","","","",""
"null","","audio-keyboard-response","404","2670514","0.0-13.0-0.88","l","COGS219_2020_36","Sounds/motorcycle_label.wav","null","1","","","","","","",""
"null","","html-keyboard-response","405","2671504","0.0-13.0-1.88","l","COGS219_2020_36","<p style=""font-size: 48px;"">+</p>","null","1","","","","","","",""
"1350.1150000374764","","image-keyboard-response","406","2672856","0.0-13.0-2.88","l","COGS219_2020_36","Images/train_2.png","65","1","1583103175428","non-match","train","motorcycle","label","test","true"
"null","","audio-keyboard-response","407","2674863","0.0-13.0-3.88","l","COGS219_2020_36","Sounds/correct.wav","null","1","","","","","","",""
"null","","audio-keyboard-response","408","2676154","0.0-13.0-0.89","l","COGS219_2020_36","Sounds/train_sound.wav","null","1","","","","","","",""
"null","","html-keyboard-response","409","2677154","0.0-13.0-1.89","l","COGS219_2020_36","<p style=""font-size: 48px;"">+</p>","null","1","","","","","","",""
"883.689999813214","","image-keyboard-response","410","2678039","0.0-13.0-2.89","l","COGS219_2020_36","Images/train_cartoon.png","76","1","1583103181078","match","train","train","sound","test","true"
"null","","audio-keyboard-response","411","2680043","0.0-13.0-3.89","l","COGS219_2020_36","Sounds/correct.wav","null","1","","","","","","",""
"null","","audio-keyboard-response","412","2681114","0.0-13.0-0.90","l","COGS219_2020_36","Sounds/car_sound.wav","null","1","","","","","","",""
"null","","html-keyboard-response","413","2682105","0.0-13.0-1.90","l","COGS219_2020_36","<p style=""font-size: 48px;"">+</p>","null","1","","","","","","",""
"894.0000000875443","","image-keyboard-response","414","2683000","0.0-13.0-2.90","l","COGS219_2020_36","Images/dog_2.png","65","1","1583103186028","non-match","dog","car","sound","test","true"
"null","","audio-keyboard-response","415","2685008","0.0-13.0-3.90","l","COGS219_2020_36","Sounds/correct.wav","null","1","","","","","","",""
"null","","audio-keyboard-response","416","2685674","0.0-13.0-0.91","l","COGS219_2020_36","Sounds/dog_label.wav","null","1","","","","","","",""
"null","","html-keyboard-response","417","2686671","0.0-13.0-1.91","l","COGS219_2020_36","<p style=""font-size: 48px;"">+</p>","null","1","","","","","","",""
"1030.955000082031","","image-keyboard-response","418","2687703","0.0-13.0-2.91","l","COGS219_2020_36","Images/rooster_orig.png","65","1","1583103190594","non-match","rooster","dog","label","test","true"
"null","","audio-keyboard-response","419","2689711","0.0-13.0-3.91","l","COGS219_2020_36","Sounds/correct.wav","null","1","","","","","","",""
"null","","audio-keyboard-response","420","2690334","0.0-13.0-0.92","l","COGS219_2020_36","Sounds/dog_label.wav","null","1","","","","","","",""
"null","","html-keyboard-response","421","2691338","0.0-13.0-1.92","l","COGS219_2020_36","<p style=""font-size: 48px;"">+</p>","null","1","","","","","","",""
"1004.4700000435114","","image-keyboard-response","422","2692343","0.0-13.0-2.92","l","COGS219_2020_36","Images/dog_cartoon.png","76","1","1583103195261","match","dog","dog","label","test","true"
"null","","audio-keyboard-response","423","2694359","0.0-13.0-3.92","l","COGS219_2020_36","Sounds/correct.wav","null","1","","","","","","",""
"null","","audio-keyboard-response","424","2695414","0.0-13.0-0.93","l","COGS219_2020_36","Sounds/car_sound.wav","null","1","","","","","","",""
"null","","html-keyboard-response","425","2696405","0.0-13.0-1.93","l","COGS219_2020_36","<p style=""font-size: 48px;"">+</p>","null","1","","","","","","",""
"1009.8749999888241","","image-keyboard-response","426","2697416","0.0-13.0-2.93","l","COGS219_2020_36","Images/frog_1.png","65","1","1583103200328","non-match","frog","car","sound","test","true"
"null","","audio-keyboard-response","427","2699424","0.0-13.0-3.93","l","COGS219_2020_36","Sounds/correct.wav","null","1","","","","","","",""
"null","","audio-keyboard-response","428","2700494","0.0-13.0-0.94","l","COGS219_2020_36","Sounds/car_label.wav","null","1","","","","","","",""
"null","","html-keyboard-response","429","2701488","0.0-13.0-1.94","l","COGS219_2020_36","<p style=""font-size: 48px;"">+</p>","null","1","","","","","","",""
"1525.3550000488758","","image-keyboard-response","430","2703015","0.0-13.0-2.94","l","COGS219_2020_36","Images/car_orig.png","76","1","1583103205411","match","car","car","label","test","true"
"null","","audio-keyboard-response","431","2705027","0.0-13.0-3.94","l","COGS219_2020_36","Sounds/correct.wav","null","1","","","","","","",""
"null","","audio-keyboard-response","432","2705934","0.0-13.0-0.95","l","COGS219_2020_36","Sounds/frog_sound.wav","null","1","","","","","","",""
"null","","html-keyboard-response","433","2706938","0.0-13.0-1.95","l","COGS219_2020_36","<p style=""font-size: 48px;"">+</p>","null","1","","","","","","",""
"619.3599998950958","","image-keyboard-response","434","2707560","0.0-13.0-2.95","l","COGS219_2020_36","Images/frog_2.png","76","1","1583103210861","match","frog","frog","sound","test","true"
"null","","audio-keyboard-response","435","2709576","0.0-13.0-3.95","l","COGS219_2020_36","Sounds/correct.wav","null","1","","","","","","",""
"null","","audio-keyboard-response","436","2710154","0.0-13.0-0.96","l","COGS219_2020_36","Sounds/gun_sound.wav","null","1","","","","","","",""
"null","","html-keyboard-response","437","2711155","0.0-13.0-1.96","l","COGS219_2020_36","<p style=""font-size: 48px;"">+</p>","null","1","","","","","","",""
"739.4900000654161","","image-keyboard-response","438","2711895","0.0-13.0-2.96","l","COGS219_2020_36","Images/gun_3.png","76","1","1583103215078","match","gun","gun","sound","test","true"
"null","","audio-keyboard-response","439","2713909","0.0-13.0-3.96","l","COGS219_2020_36","Sounds/correct.wav","null","1","","","","","","",""
"null","","audio-keyboard-response","440","2714614","0.0-13.0-0.97","l","COGS219_2020_36","Sounds/whistle_sound.wav","null","1","","","","","","",""
"null","","html-keyboard-response","441","2715605","0.0-13.0-1.97","l","COGS219_2020_36","<p style=""font-size: 48px;"">+</p>","null","1","","","","","","",""
"1937.0649999473244","","image-keyboard-response","442","2717543","0.0-13.0-2.97","l","COGS219_2020_36","Images/whistle_3.png","76","1","1583103219528","match","whistle","whistle","sound","test","true"
"null","","audio-keyboard-response","443","2719560","0.0-13.0-3.97","l","COGS219_2020_36","Sounds/correct.wav","null","1","","","","","","",""
"null","","audio-keyboard-response","444","2720575","0.0-13.0-0.98","l","COGS219_2020_36","Sounds/cow_label.wav","null","1","","","","","","",""
"null","","html-keyboard-response","445","2721572","0.0-13.0-1.98","l","COGS219_2020_36","<p style=""font-size: 48px;"">+</p>","null","1","","","","","","",""
"610.2899999823421","","image-keyboard-response","446","2722184","0.0-13.0-2.98","l","COGS219_2020_36","Images/cow_1.png","76","1","1583103225495","match","cow","cow","label","test","true"
"null","","audio-keyboard-response","447","2724193","0.0-13.0-3.98","l","COGS219_2020_36","Sounds/correct.wav","null","1","","","","","","",""
"null","","audio-keyboard-response","448","2725335","0.0-13.0-0.99","l","COGS219_2020_36","Sounds/motorcycle_label.wav","null","1","","","","","","",""
"null","","html-keyboard-response","449","2726338","0.0-13.0-1.99","l","COGS219_2020_36","<p style=""font-size: 48px;"">+</p>","null","1","","","","","","",""
"724.0100000053644","","image-keyboard-response","450","2727063","0.0-13.0-2.99","l","COGS219_2020_36","Images/motorcycle_cartoon.png","76","1","1583103230262","match","motorcycle","motorcycle","label","test","true"
"null","","audio-keyboard-response","451","2729075","0.0-13.0-3.99","l","COGS219_2020_36","Sounds/correct.wav","null","1","","","","","","",""
"35379.87000006251","","html-keyboard-response","452","2764456","0.0-14.0","l","COGS219_2020_36","<p>Please take this opportunity to rest your eyes before proceeding.</p><p>When ready, press the enter key to continue to the next set of trials.</p>","32","","","","","","","",""
"null","","audio-keyboard-response","453","2767490","0.0-15.0-0.0","l","COGS219_2020_36","Sounds/cow_label.wav","null","2","","","","","","",""
"null","","html-keyboard-response","454","2768489","0.0-15.0-1.0","l","COGS219_2020_36","<p style=""font-size: 48px;"">+</p>","null","2","","","","","","",""
"1437.4649999663234","","image-keyboard-response","455","2769927","0.0-15.0-2.0","l","COGS219_2020_36","Images/cow_3.png","76","2","1583103272412","match","cow","cow","label","test","true"
"null","","audio-keyboard-response","456","2771944","0.0-15.0-3.0","l","COGS219_2020_36","Sounds/correct.wav","null","2","","","","","","",""
"null","","audio-keyboard-response","457","2772650","0.0-15.0-0.1","l","COGS219_2020_36","Sounds/rooster_sound.wav","null","2","","","","","","",""
"null","","html-keyboard-response","458","2773639","0.0-15.0-1.1","l","COGS219_2020_36","<p style=""font-size: 48px;"">+</p>","null","2","","","","","","",""
"1295.6300000660121","","image-keyboard-response","459","2774936","0.0-15.0-2.1","l","COGS219_2020_36","Images/rooster_orig.png","76","2","1583103277562","match","rooster","rooster","sound","test","true"
"null","","audio-keyboard-response","460","2776945","0.0-15.0-3.1","l","COGS219_2020_36","Sounds/correct.wav","null","2","","","","","","",""
"null","","audio-keyboard-response","461","2778230","0.0-15.0-0.2","l","COGS219_2020_36","Sounds/train_label.wav","null","2","","","","","","",""
"null","","html-keyboard-response","462","2779222","0.0-15.0-1.2","l","COGS219_2020_36","<p style=""font-size: 48px;"">+</p>","null","2","","","","","","",""
"1440.0400000158697","","image-keyboard-response","463","2780663","0.0-15.0-2.2","l","COGS219_2020_36","Images/train_2.png","76","2","1583103283146","match","train","train","label","test","true"
"null","","audio-keyboard-response","464","2782680","0.0-15.0-3.2","l","COGS219_2020_36","Sounds/correct.wav","null","2","","","","","","",""
"null","","audio-keyboard-response","465","2783770","0.0-15.0-0.3","l","COGS219_2020_36","Sounds/car_label.wav","null","2","","","","","","",""
"null","","html-keyboard-response","466","2784772","0.0-15.0-1.3","l","COGS219_2020_36","<p style=""font-size: 48px;"">+</p>","null","2","","","","","","",""
"578.2749999780208","","image-keyboard-response","467","2785352","0.0-15.0-2.3","l","COGS219_2020_36","Images/car_orig.png","76","2","1583103288696","match","car","car","label","test","true"
"null","","audio-keyboard-response","468","2787362","0.0-15.0-3.3","l","COGS219_2020_36","Sounds/correct.wav","null","2","","","","","","",""
"null","","audio-keyboard-response","469","2788490","0.0-15.0-0.4","l","COGS219_2020_36","Sounds/motorcycle_sound.wav","null","2","","","","","","",""
"null","","html-keyboard-response","470","2789489","0.0-15.0-1.4","l","COGS219_2020_36","<p style=""font-size: 48px;"">+</p>","null","2","","","","","","",""
"1477.174999890849","","image-keyboard-response","471","2790967","0.0-15.0-2.4","l","COGS219_2020_36","Images/car_orig.png","65","2","1583103293412","non-match","car","motorcycle","sound","test","true"
"null","","audio-keyboard-response","472","2792979","0.0-15.0-3.4","l","COGS219_2020_36","Sounds/correct.wav","null","2","","","","","","",""
"null","","audio-keyboard-response","473","2793990","0.0-15.0-0.5","l","COGS219_2020_36","Sounds/cow_sound.wav","null","2","","","","","","",""
"null","","html-keyboard-response","474","2794989","0.0-15.0-1.5","l","COGS219_2020_36","<p style=""font-size: 48px;"">+</p>","null","2","","","","","","",""
"601.4399998821318","","image-keyboard-response","475","2795592","0.0-15.0-2.5","l","COGS219_2020_36","Images/dog_1.png","65","2","1583103298912","non-match","dog","cow","sound","test","true"
"null","","audio-keyboard-response","476","2797595","0.0-15.0-3.5","l","COGS219_2020_36","Sounds/correct.wav","null","2","","","","","","",""
"null","","audio-keyboard-response","477","2798290","0.0-15.0-0.6","l","COGS219_2020_36","Sounds/rooster_label.wav","null","2","","","","","","",""
"null","","html-keyboard-response","478","2799290","0.0-15.0-1.6","l","COGS219_2020_36","<p style=""font-size: 48px;"">+</p>","null","2","","","","","","",""
"701.2749998830259","","image-keyboard-response","479","2799992","0.0-15.0-2.6","l","COGS219_2020_36","Images/rooster_cartoon.png","76","2","1583103303213","match","rooster","rooster","label","test","true"
"null","","audio-keyboard-response","480","2801995","0.0-15.0-3.6","l","COGS219_2020_36","Sounds/correct.wav","null","2","","","","","","",""
"null","","audio-keyboard-response","481","2803130","0.0-15.0-0.7","l","COGS219_2020_36","Sounds/motorcycle_label.wav","null","2","","","","","","",""
"null","","html-keyboard-response","482","2804123","0.0-15.0-1.7","l","COGS219_2020_36","<p style=""font-size: 48px;"">+</p>","null","2","","","","","","",""
"1836.3749999552965","","image-keyboard-response","483","2805961","0.0-15.0-2.7","l","COGS219_2020_36","Images/train_3.png","65","2","1583103308047","non-match","train","motorcycle","label","test","true"
"null","","audio-keyboard-response","484","2807964","0.0-15.0-3.7","l","COGS219_2020_36","Sounds/correct.wav","null","2","","","","","","",""
"null","","audio-keyboard-response","485","2808630","0.0-15.0-0.8","l","COGS219_2020_36","Sounds/dog_label.wav","null","2","","","","","","",""
"null","","html-keyboard-response","486","2809623","0.0-15.0-1.8","l","COGS219_2020_36","<p style=""font-size: 48px;"">+</p>","null","2","","","","","","",""
"927.9450001195073","","image-keyboard-response","487","2810552","0.0-15.0-2.8","l","COGS219_2020_36","Images/frog_orig.png","65","2","1583103313547","non-match","frog","dog","label","test","true"
"null","","audio-keyboard-response","488","2812564","0.0-15.0-3.8","l","COGS219_2020_36","Sounds/correct.wav","null","2","","","","","","",""
"null","","audio-keyboard-response","489","2813271","0.0-15.0-0.9","l","COGS219_2020_36","Sounds/dog_sound.wav","null","2","","","","","","",""
"null","","html-keyboard-response","490","2814273","0.0-15.0-1.9","l","COGS219_2020_36","<p style=""font-size: 48px;"">+</p>","null","2","","","","","","",""
"821.7450000811368","","image-keyboard-response","491","2815096","0.0-15.0-2.9","l","COGS219_2020_36","Images/whistle_orig.png","65","2","1583103318197","non-match","whistle","dog","sound","test","true"
"null","","audio-keyboard-response","492","2817112","0.0-15.0-3.9","l","COGS219_2020_36","Sounds/correct.wav","null","2","","","","","","",""
"null","","audio-keyboard-response","493","2818130","0.0-15.0-0.10","l","COGS219_2020_36","Sounds/cow_label.wav","null","2","","","","","","",""
"null","","html-keyboard-response","494","2819123","0.0-15.0-1.10","l","COGS219_2020_36","<p style=""font-size: 48px;"">+</p>","null","2","","","","","","",""
"612.0000001974404","","image-keyboard-response","495","2819737","0.0-15.0-2.10","l","COGS219_2020_36","Images/motorcycle_1.png","65","2","1583103323047","non-match","motorcycle","cow","label","test","true"
"null","","audio-keyboard-response","496","2821745","0.0-15.0-3.10","l","COGS219_2020_36","Sounds/correct.wav","null","2","","","","","","",""
"null","","audio-keyboard-response","497","2822330","0.0-15.0-0.11","l","COGS219_2020_36","Sounds/gun_sound.wav","null","2","","","","","","",""
"null","","html-keyboard-response","498","2823324","0.0-15.0-1.11","l","COGS219_2020_36","<p style=""font-size: 48px;"">+</p>","null","2","","","","","","",""
"571.2049999274313","","image-keyboard-response","499","2823896","0.0-15.0-2.11","l","COGS219_2020_36","Images/car_1.png","65","2","1583103327247","non-match","car","gun","sound","test","true"
"null","","audio-keyboard-response","500","2825911","0.0-15.0-3.11","l","COGS219_2020_36","Sounds/correct.wav","null","2","","","","","","",""
"null","","audio-keyboard-response","501","2826570","0.0-15.0-0.12","l","COGS219_2020_36","Sounds/dog_label.wav","null","2","","","","","","",""
"null","","html-keyboard-response","502","2827573","0.0-15.0-1.12","l","COGS219_2020_36","<p style=""font-size: 48px;"">+</p>","null","2","","","","","","",""
"625.5749999545515","","image-keyboard-response","503","2828200","0.0-15.0-2.12","l","COGS219_2020_36","Images/cat_2.png","65","2","1583103331497","non-match","cat","dog","label","test","true"
"null","","audio-keyboard-response","504","2830210","0.0-15.0-3.12","l","COGS219_2020_36","Sounds/correct.wav","null","2","","","","","","",""
"null","","audio-keyboard-response","505","2831230","0.0-15.0-0.13","l","COGS219_2020_36","Sounds/cow_sound.wav","null","2","","","","","","",""
"null","","html-keyboard-response","506","2832224","0.0-15.0-1.13","l","COGS219_2020_36","<p style=""font-size: 48px;"">+</p>","null","2","","","","","","",""
"647.5649999920279","","image-keyboard-response","507","2832872","0.0-15.0-2.13","l","COGS219_2020_36","Images/rooster_2.png","65","2","1583103336147","non-match","rooster","cow","sound","test","true"
"null","","audio-keyboard-response","508","2834880","0.0-15.0-3.13","l","COGS219_2020_36","Sounds/correct.wav","null","2","","","","","","",""
"null","","audio-keyboard-response","509","2835870","0.0-15.0-0.14","l","COGS219_2020_36","Sounds/cow_label.wav","null","2","","","","","","",""
"null","","html-keyboard-response","510","2836874","0.0-15.0-1.14","l","COGS219_2020_36","<p style=""font-size: 48px;"">+</p>","null","2","","","","","","",""
"637.2599999886006","","image-keyboard-response","511","2837512","0.0-15.0-2.14","l","COGS219_2020_36","Images/car_cartoon.png","65","2","1583103340797","non-match","car","cow","label","test","true"
"null","","audio-keyboard-response","512","2839529","0.0-15.0-3.14","l","COGS219_2020_36","Sounds/correct.wav","null","2","","","","","","",""
"null","","audio-keyboard-response","513","2840110","0.0-15.0-0.15","l","COGS219_2020_36","Sounds/gun_sound.wav","null","2","","","","","","",""
"null","","html-keyboard-response","514","2841107","0.0-15.0-1.15","l","COGS219_2020_36","<p style=""font-size: 48px;"">+</p>","null","2","","","","","","",""
"740.0499999057502","","image-keyboard-response","515","2841848","0.0-15.0-2.15","l","COGS219_2020_36","Images/rooster_3.png","65","2","1583103345030","non-match","rooster","gun","sound","test","true"
"null","","audio-keyboard-response","516","2843860","0.0-15.0-3.15","l","COGS219_2020_36","Sounds/correct.wav","null","2","","","","","","",""
"null","","audio-keyboard-response","517","2844550","0.0-15.0-0.16","l","COGS219_2020_36","Sounds/rooster_sound.wav","null","2","","","","","","",""
"null","","html-keyboard-response","518","2845540","0.0-15.0-1.16","l","COGS219_2020_36","<p style=""font-size: 48px;"">+</p>","null","2","","","","","","",""
"755.1899999380112","","image-keyboard-response","519","2846297","0.0-15.0-2.16","l","COGS219_2020_36","Images/dog_2.png","65","2","1583103349464","non-match","dog","rooster","sound","test","true"
"null","","audio-keyboard-response","520","2848311","0.0-15.0-3.16","l","COGS219_2020_36","Sounds/correct.wav","null","2","","","","","","",""
"null","","audio-keyboard-response","521","2849590","0.0-15.0-0.17","l","COGS219_2020_36","Sounds/train_label.wav","null","2","","","","","","",""
"null","","html-keyboard-response","522","2850590","0.0-15.0-1.17","l","COGS219_2020_36","<p style=""font-size: 48px;"">+</p>","null","2","","","","","","",""
"696.5649998746812","","image-keyboard-response","523","2851288","0.0-15.0-2.17","l","COGS219_2020_36","Images/train_cartoon.png","76","2","1583103354514","match","train","train","label","test","true"
"null","","audio-keyboard-response","524","2853301","0.0-15.0-3.17","l","COGS219_2020_36","Sounds/correct.wav","null","2","","","","","","",""
"null","","audio-keyboard-response","525","2854551","0.0-15.0-0.18","l","COGS219_2020_36","Sounds/train_label.wav","null","2","","","","","","",""
"null","","html-keyboard-response","526","2855541","0.0-15.0-1.18","l","COGS219_2020_36","<p style=""font-size: 48px;"">+</p>","null","2","","","","","","",""
"1666.7000001762062","","image-keyboard-response","527","2857208","0.0-15.0-2.18","l","COGS219_2020_36","Images/motorcycle_3.png","76","2","1583103359464","non-match","motorcycle","train","label","test","false"
"null","","audio-keyboard-response","528","2859216","0.0-15.0-3.18","l","COGS219_2020_36","Sounds/incorrect.wav","null","2","","","","","","",""
"null","","audio-keyboard-response","529","2859791","0.0-15.0-0.19","l","COGS219_2020_36","Sounds/gun_label.wav","null","2","","","","","","",""
"null","","html-keyboard-response","530","2860791","0.0-15.0-1.19","l","COGS219_2020_36","<p style=""font-size: 48px;"">+</p>","null","2","","","","","","",""
"1360.385000007227","","image-keyboard-response","531","2862152","0.0-15.0-2.19","l","COGS219_2020_36","Images/gun_1.png","76","2","1583103364714","match","gun","gun","label","test","true"
"null","","audio-keyboard-response","532","2864167","0.0-15.0-3.19","l","COGS219_2020_36","Sounds/correct.wav","null","2","","","","","","",""
"null","","audio-keyboard-response","533","2864751","0.0-15.0-0.20","l","COGS219_2020_36","Sounds/gun_sound.wav","null","2","","","","","","",""
"null","","html-keyboard-response","534","2865741","0.0-15.0-1.20","l","COGS219_2020_36","<p style=""font-size: 48px;"">+</p>","null","2","","","","","","",""
"634.4500000122935","","image-keyboard-response","535","2866377","0.0-15.0-2.20","l","COGS219_2020_36","Images/frog_1.png","65","2","1583103369664","non-match","frog","gun","sound","test","true"
"null","","audio-keyboard-response","536","2868394","0.0-15.0-3.20","l","COGS219_2020_36","Sounds/correct.wav","null","2","","","","","","",""
"null","","audio-keyboard-response","537","2869231","0.0-15.0-0.21","l","COGS219_2020_36","Sounds/cat_sound.wav","null","2","","","","","","",""
"null","","html-keyboard-response","538","2870224","0.0-15.0-1.21","l","COGS219_2020_36","<p style=""font-size: 48px;"">+</p>","null","2","","","","","","",""
"599.2350000888109","","image-keyboard-response","539","2870825","0.0-15.0-2.21","l","COGS219_2020_36","Images/cat_cartoon.png","76","2","1583103374147","match","cat","cat","sound","test","true"
"null","","audio-keyboard-response","540","2872829","0.0-15.0-3.21","l","COGS219_2020_36","Sounds/correct.wav","null","2","","","","","","",""
"null","","audio-keyboard-response","541","2873531","0.0-15.0-0.22","l","COGS219_2020_36","Sounds/whistle_sound.wav","null","2","","","","","","",""
"null","","html-keyboard-response","542","2874524","0.0-15.0-1.22","l","COGS219_2020_36","<p style=""font-size: 48px;"">+</p>","null","2","","","","","","",""
"538.9499999582767","","image-keyboard-response","543","2875064","0.0-15.0-2.22","l","COGS219_2020_36","Images/frog_3.png","65","2","1583103378447","non-match","frog","whistle","sound","test","true"
"null","","audio-keyboard-response","544","2877079","0.0-15.0-3.22","l","COGS219_2020_36","Sounds/correct.wav","null","2","","","","","","",""
"null","","audio-keyboard-response","545","2877751","0.0-15.0-0.23","l","COGS219_2020_36","Sounds/whistle_sound.wav","null","2","","","","","","",""
"null","","html-keyboard-response","546","2878741","0.0-15.0-1.23","l","COGS219_2020_36","<p style=""font-size: 48px;"">+</p>","null","2","","","","","","",""
"802.4649999570101","","image-keyboard-response","547","2879545","0.0-15.0-2.23","l","COGS219_2020_36","Images/train_1.png","65","2","1583103382664","non-match","train","whistle","sound","test","true"
"null","","audio-keyboard-response","548","2881548","0.0-15.0-3.23","l","COGS219_2020_36","Sounds/correct.wav","null","2","","","","","","",""
"null","","audio-keyboard-response","549","2882271","0.0-15.0-0.24","l","COGS219_2020_36","Sounds/dog_sound.wav","null","2","","","","","","",""
"null","","html-keyboard-response","550","2883274","0.0-15.0-1.24","l","COGS219_2020_36","<p style=""font-size: 48px;"">+</p>","null","2","","","","","","",""
"509.13000013679266","","image-keyboard-response","551","2883785","0.0-15.0-2.24","l","COGS219_2020_36","Images/dog_2.png","76","2","1583103387198","match","dog","dog","sound","test","true"
"null","","audio-keyboard-response","552","2885794","0.0-15.0-3.24","l","COGS219_2020_36","Sounds/correct.wav","null","2","","","","","","",""
"null","","audio-keyboard-response","553","2886491","0.0-15.0-0.25","l","COGS219_2020_36","Sounds/rooster_sound.wav","null","2","","","","","","",""
"null","","html-keyboard-response","554","2887491","0.0-15.0-1.25","l","COGS219_2020_36","<p style=""font-size: 48px;"">+</p>","null","2","","","","","","",""
"564.2099999822676","","image-keyboard-response","555","2888056","0.0-15.0-2.25","l","COGS219_2020_36","Images/cat_1.png","65","2","1583103391415","non-match","cat","rooster","sound","test","true"
"null","","audio-keyboard-response","556","2890064","0.0-15.0-3.25","l","COGS219_2020_36","Sounds/correct.wav","null","2","","","","","","",""
"null","","audio-keyboard-response","557","2890971","0.0-15.0-0.26","l","COGS219_2020_36","Sounds/frog_sound.wav","null","2","","","","","","",""
"null","","html-keyboard-response","558","2891974","0.0-15.0-1.26","l","COGS219_2020_36","<p style=""font-size: 48px;"">+</p>","null","2","","","","","","",""
"608.8999998755753","","image-keyboard-response","559","2892585","0.0-15.0-2.26","l","COGS219_2020_36","Images/frog_2.png","76","2","1583103395898","match","frog","frog","sound","test","true"
"null","","audio-keyboard-response","560","2894595","0.0-15.0-3.26","l","COGS219_2020_36","Sounds/correct.wav","null","2","","","","","","",""
"null","","audio-keyboard-response","561","2895611","0.0-15.0-0.27","l","COGS219_2020_36","Sounds/cow_sound.wav","null","2","","","","","","",""
"null","","html-keyboard-response","562","2896608","0.0-15.0-1.27","l","COGS219_2020_36","<p style=""font-size: 48px;"">+</p>","null","2","","","","","","",""
"1687.4949999619275","","image-keyboard-response","563","2898297","0.0-15.0-2.27","l","COGS219_2020_36","Images/cow_cartoon.png","76","2","1583103400531","match","cow","cow","sound","test","true"
"null","","audio-keyboard-response","564","2900303","0.0-15.0-3.27","l","COGS219_2020_36","Sounds/correct.wav","null","2","","","","","","",""
"null","","audio-keyboard-response","565","2901611","0.0-15.0-0.28","l","COGS219_2020_36","Sounds/train_sound.wav","null","2","","","","","","",""
"null","","html-keyboard-response","566","2902608","0.0-15.0-1.28","l","COGS219_2020_36","<p style=""font-size: 48px;"">+</p>","null","2","","","","","","",""
"967.5050000660121","","image-keyboard-response","567","2903577","0.0-15.0-2.28","l","COGS219_2020_36","Images/cat_cartoon.png","65","2","1583103406531","non-match","cat","train","sound","test","true"
"null","","audio-keyboard-response","568","2905579","0.0-15.0-3.28","l","COGS219_2020_36","Sounds/correct.wav","null","2","","","","","","",""
"null","","audio-keyboard-response","569","2906431","0.0-15.0-0.29","l","COGS219_2020_36","Sounds/cat_sound.wav","null","2","","","","","","",""
"null","","html-keyboard-response","570","2907425","0.0-15.0-1.29","l","COGS219_2020_36","<p style=""font-size: 48px;"">+</p>","null","2","","","","","","",""
"550.6850001402199","","image-keyboard-response","571","2907976","0.0-15.0-2.29","l","COGS219_2020_36","Images/cat_1.png","76","2","1583103411348","match","cat","cat","sound","test","true"
"null","","audio-keyboard-response","572","2909980","0.0-15.0-3.29","l","COGS219_2020_36","Sounds/correct.wav","null","2","","","","","","",""
"null","","audio-keyboard-response","573","2910811","0.0-15.0-0.30","l","COGS219_2020_36","Sounds/cat_label.wav","null","2","","","","","","",""
"null","","html-keyboard-response","574","2911808","0.0-15.0-1.30","l","COGS219_2020_36","<p style=""font-size: 48px;"">+</p>","null","2","","","","","","",""
"567.6549999043345","","image-keyboard-response","575","2912377","0.0-15.0-2.30","l","COGS219_2020_36","Images/cow_2.png","65","2","1583103415731","non-match","cow","cat","label","test","true"
"null","","audio-keyboard-response","576","2914381","0.0-15.0-3.30","l","COGS219_2020_36","Sounds/correct.wav","null","2","","","","","","",""
"null","","audio-keyboard-response","577","2915531","0.0-15.0-0.31","l","COGS219_2020_36","Sounds/motorcycle_label.wav","null","2","","","","","","",""
"null","","html-keyboard-response","578","2916525","0.0-15.0-1.31","l","COGS219_2020_36","<p style=""font-size: 48px;"">+</p>","null","2","","","","","","",""
"538.7750000227243","","image-keyboard-response","579","2917064","0.0-15.0-2.31","l","COGS219_2020_36","Images/whistle_1.png","65","2","1583103420448","non-match","whistle","motorcycle","label","test","true"
"null","","audio-keyboard-response","580","2919079","0.0-15.0-3.31","l","COGS219_2020_36","Sounds/correct.wav","null","2","","","","","","",""
"null","","audio-keyboard-response","581","2920191","0.0-15.0-0.32","l","COGS219_2020_36","Sounds/motorcycle_sound.wav","null","2","","","","","","",""
"null","","html-keyboard-response","582","2921209","0.0-15.0-1.32","l","COGS219_2020_36","<p style=""font-size: 48px;"">+</p>","null","2","","","","","","",""
"1151.0699999053031","","image-keyboard-response","583","2922361","0.0-15.0-2.32","l","COGS219_2020_36","Images/motorcycle_cartoon.png","76","2","1583103425132","match","motorcycle","motorcycle","sound","test","true"
"null","","audio-keyboard-response","584","2924364","0.0-15.0-3.32","l","COGS219_2020_36","Sounds/correct.wav","null","2","","","","","","",""
"null","","audio-keyboard-response","585","2925391","0.0-15.0-0.33","l","COGS219_2020_36","Sounds/cow_sound.wav","null","2","","","","","","",""
"null","","html-keyboard-response","586","2926409","0.0-15.0-1.33","l","COGS219_2020_36","<p style=""font-size: 48px;"">+</p>","null","2","","","","","","",""
"975.3499999642372","","image-keyboard-response","587","2927385","0.0-15.0-2.33","l","COGS219_2020_36","Images/cow_2.png","76","2","1583103430332","match","cow","cow","sound","test","true"
"null","","audio-keyboard-response","588","2929395","0.0-15.0-3.33","l","COGS219_2020_36","Sounds/correct.wav","null","2","","","","","","",""
"null","","audio-keyboard-response","589","2930511","0.0-15.0-0.34","l","COGS219_2020_36","Sounds/motorcycle_label.wav","null","2","","","","","","",""
"null","","html-keyboard-response","590","2931509","0.0-15.0-1.34","l","COGS219_2020_36","<p style=""font-size: 48px;"">+</p>","null","2","","","","","","",""
"563.2800001185387","","image-keyboard-response","591","2932073","0.0-15.0-2.34","l","COGS219_2020_36","Images/motorcycle_2.png","76","2","1583103435432","match","motorcycle","motorcycle","label","test","true"
"null","","audio-keyboard-response","592","2934081","0.0-15.0-3.34","l","COGS219_2020_36","Sounds/correct.wav","null","2","","","","","","",""
"null","","audio-keyboard-response","593","2934911","0.0-15.0-0.35","l","COGS219_2020_36","Sounds/cat_label.wav","null","2","","","","","","",""
"null","","html-keyboard-response","594","2935909","0.0-15.0-1.35","l","COGS219_2020_36","<p style=""font-size: 48px;"">+</p>","null","2","","","","","","",""
"626.7900001257658","","image-keyboard-response","595","2936537","0.0-15.0-2.35","l","COGS219_2020_36","Images/rooster_1.png","65","2","1583103439832","non-match","rooster","cat","label","test","true"
"null","","audio-keyboard-response","596","2938549","0.0-15.0-3.35","l","COGS219_2020_36","Sounds/correct.wav","null","2","","","","","","",""
"null","","audio-keyboard-response","597","2939851","0.0-15.0-0.36","l","COGS219_2020_36","Sounds/train_sound.wav","null","2","","","","","","",""
"null","","html-keyboard-response","598","2940842","0.0-15.0-1.36","l","COGS219_2020_36","<p style=""font-size: 48px;"">+</p>","null","2","","","","","","",""
"1117.9849999025464","","image-keyboard-response","599","2941961","0.0-15.0-2.36","l","COGS219_2020_36","Images/train_3.png","76","2","1583103444766","match","train","train","sound","test","true"
"null","","audio-keyboard-response","600","2943964","0.0-15.0-3.36","l","COGS219_2020_36","Sounds/correct.wav","null","2","","","","","","",""
"null","","audio-keyboard-response","601","2944871","0.0-15.0-0.37","l","COGS219_2020_36","Sounds/frog_label.wav","null","2","","","","","","",""
"null","","html-keyboard-response","602","2945876","0.0-15.0-1.37","l","COGS219_2020_36","<p style=""font-size: 48px;"">+</p>","null","2","","","","","","",""
"580.6549999397248","","image-keyboard-response","603","2946457","0.0-15.0-2.37","l","COGS219_2020_36","Images/cat_3.png","65","2","1583103449799","non-match","cat","frog","label","test","true"
"null","","audio-keyboard-response","604","2948464","0.0-15.0-3.37","l","COGS219_2020_36","Sounds/correct.wav","null","2","","","","","","",""
