"rt","responses","trial_type","trial_index","time_elapsed","internal_node_id","match_key","participant_id","stimulus","key_press","block","stim_onset","match_type","image_category","sound_category","audio_type","phase","correct"
"4530.935000046156","{""Q0"":""28""}","survey-text","0","4582","0.0-0.0","a","28","","","","","","","","","",""
"23313.439999939874","","html-keyboard-response","1","27905","0.0-1.0","a","28","<p>Use KEYBOARD 2 (match LEFT)</p><p>Press MATCH to continue.</p>","65","","","","","","","",""
"2069351.9449998857","","html-keyboard-response","2","2097261","0.0-2.0","a","28","<p>Welcome to the experiment.</p>","32","","","","","","","",""
"9328.330000047572","","html-keyboard-response","3","2106595","0.0-3.0","a","28","<p>Thank you for agreeing to participate in this study.</p><p>If during any part of the procedure you must stop for any reason, please inform the researcher that you do not wish to continue.</p>","32","","","","","","","",""
"21287.744999979623","","html-keyboard-response","4","2127884","0.0-4.0","a","28","<p>In this experiment, you will hear various words or sounds and see pictures of various animals and objects.</p><p>Most of the images will be of common everyday objects, such as cars, cats, cows, firearms, frogs, chickens, whistles, trains, motorcycles, and dogs.</p><p>Some of the images will be real-life stills, while others will be cartoons.</p>","32","","","","","","","",""
"15238.299999968149","","html-keyboard-response","5","2143123","0.0-5.0","a","28","<p>Sometimes, the word/sound will match the picture, for example you'll hear a meowing sound and see a cat.</p><p>Other times, the picture will not match the sound or word.</p><p>Your task is to decide as quickly as possible if the word/sound matches the picture or not. </p>","32","","","","","","","",""
"12758.32000002265","","html-keyboard-response","6","2155883","0.0-6.0","a","28","<p>For example, if you hear the word ""cat"" or hear a meowing sound, and then see a picture of a cat, you should press the MATCH key.</p><p> If the sound and image do not match, press the NOT-MATCH key to indicate that there is not a match.</p>","32","","","","","","","",""
"12159.164999960922","","html-keyboard-response","7","2168037","0.0-7.0","a","28","<p>If you make a mistake, you will hear a buzzing sound instead of a more pleasant sound.</p><p> Try to respond as quickly as possible, while making as few errors as possible. If you are making mistakes, you are probably rushing.</p>","32","","","","","","","",""
"11894.744999939576","","html-keyboard-response","8","2179932","0.0-8.0","a","28","<p>Please try to not move or blink your eyes during the presentation of the images. You can move and blink between images.</p><p>During the experiment there will be some breaks during which you can rest your eyes.</p>","32","","","","","","","",""
"6302.525000064634","","html-keyboard-response","9","2186236","0.0-9.0","a","28","<p>We will begin with 10 practice trials. Please let the experimenter know if you have any questions.</p>","32","","","","","","","",""
"null","","audio-keyboard-response","10","2187432","0.0-10.0-0.0","a","28","Sounds/motorcycle_sound.wav","null","0","","","","","","",""
"null","","html-keyboard-response","11","2188423","0.0-10.0-1.0","a","28","<p style=""font-size: 48px;"">+</p>","null","0","","","","","","",""
"7363.224999979138","","image-keyboard-response","12","2195789","0.0-10.0-2.0","a","28","Images/cat_cartoon.png","76","0","1582756907301","non-match","cat","motorcycle","sound","practice","true"
"null","","audio-keyboard-response","13","2197797","0.0-10.0-3.0","a","28","Sounds/correct.wav","null","0","","","","","","",""
"null","","audio-keyboard-response","14","2198691","0.0-10.0-0.1","a","28","Sounds/frog_label.wav","null","0","","","","","","",""
"null","","html-keyboard-response","15","2199690","0.0-10.0-1.1","a","28","<p style=""font-size: 48px;"">+</p>","null","0","","","","","","",""
"1168.790000025183","","image-keyboard-response","16","2200860","0.0-10.0-2.1","a","28","Images/frog_cartoon.png","65","0","1582756918568","match","frog","frog","label","practice","true"
"null","","audio-keyboard-response","17","2202877","0.0-10.0-3.1","a","28","Sounds/correct.wav","null","0","","","","","","",""
"null","","audio-keyboard-response","18","2203451","0.0-10.0-0.2","a","28","Sounds/gun_label.wav","null","0","","","","","","",""
"null","","html-keyboard-response","19","2204440","0.0-10.0-1.2","a","28","<p style=""font-size: 48px;"">+</p>","null","0","","","","","","",""
"570.7749999128282","","image-keyboard-response","20","2205012","0.0-10.0-2.2","a","28","Images/gun_orig.png","65","0","1582756923318","match","gun","gun","label","practice","true"
"null","","audio-keyboard-response","21","2207028","0.0-10.0-3.2","a","28","Sounds/correct.wav","null","0","","","","","","",""
"null","","audio-keyboard-response","22","2207871","0.0-10.0-0.3","a","28","Sounds/cat_sound.wav","null","0","","","","","","",""
"null","","html-keyboard-response","23","2208873","0.0-10.0-1.3","a","28","<p style=""font-size: 48px;"">+</p>","null","0","","","","","","",""
"961.6549999918789","","image-keyboard-response","24","2209836","0.0-10.0-2.3","a","28","Images/cat_orig.png","65","0","1582756927751","match","cat","cat","sound","practice","true"
"null","","audio-keyboard-response","25","2211845","0.0-10.0-3.3","a","28","Sounds/correct.wav","null","0","","","","","","",""
"null","","audio-keyboard-response","26","2212991","0.0-10.0-0.4","a","28","Sounds/motorcycle_label.wav","null","0","","","","","","",""
"null","","html-keyboard-response","27","2213990","0.0-10.0-1.4","a","28","<p style=""font-size: 48px;"">+</p>","null","0","","","","","","",""
"964.6149999462068","","image-keyboard-response","28","2214956","0.0-10.0-2.4","a","28","Images/frog_1.png","76","0","1582756932868","non-match","frog","motorcycle","label","practice","true"
"null","","audio-keyboard-response","29","2216963","0.0-10.0-3.4","a","28","Sounds/correct.wav","null","0","","","","","","",""
"null","","audio-keyboard-response","30","2217671","0.0-10.0-0.5","a","28","Sounds/whistle_label.wav","null","0","","","","","","",""
"null","","html-keyboard-response","31","2218673","0.0-10.0-1.5","a","28","<p style=""font-size: 48px;"">+</p>","null","0","","","","","","",""
"513.3050000295043","","image-keyboard-response","32","2219188","0.0-10.0-2.5","a","28","Images/whistle_cartoon.png","76","0","1582756937551","match","whistle","whistle","label","practice","false"
"null","","audio-keyboard-response","33","2221197","0.0-10.0-3.5","a","28","Sounds/incorrect.wav","null","0","","","","","","",""
"null","","audio-keyboard-response","34","2222271","0.0-10.0-0.6","a","28","Sounds/car_label.wav","null","0","","","","","","",""
"null","","html-keyboard-response","35","2223273","0.0-10.0-1.6","a","28","<p style=""font-size: 48px;"">+</p>","null","0","","","","","","",""
"497.620000038296","","image-keyboard-response","36","2223772","0.0-10.0-2.6","a","28","Images/car_2.png","76","0","1582756942152","match","car","car","label","practice","false"
"null","","audio-keyboard-response","37","2225780","0.0-10.0-3.6","a","28","Sounds/incorrect.wav","null","0","","","","","","",""
"null","","audio-keyboard-response","38","2226831","0.0-10.0-0.7","a","28","Sounds/car_label.wav","null","0","","","","","","",""
"null","","html-keyboard-response","39","2227823","0.0-10.0-1.7","a","28","<p style=""font-size: 48px;"">+</p>","null","0","","","","","","",""
"987.3549999902025","","image-keyboard-response","40","2228811","0.0-10.0-2.7","a","28","Images/cat_3.png","76","0","1582756946702","non-match","cat","car","label","practice","true"
"null","","audio-keyboard-response","41","2230828","0.0-10.0-3.7","a","28","Sounds/correct.wav","null","0","","","","","","",""
"null","","audio-keyboard-response","42","2232130","0.0-10.0-0.8","a","28","Sounds/train_sound.wav","null","0","","","","","","",""
"null","","html-keyboard-response","43","2233122","0.0-10.0-1.8","a","28","<p style=""font-size: 48px;"">+</p>","null","0","","","","","","",""
"1247.4200000287965","","image-keyboard-response","44","2234371","0.0-10.0-2.8","a","28","Images/rooster_cartoon.png","76","0","1582756952000","non-match","rooster","train","sound","practice","true"
"null","","audio-keyboard-response","45","2236385","0.0-10.0-3.8","a","28","Sounds/correct.wav","null","0","","","","","","",""
"null","","audio-keyboard-response","46","2237410","0.0-10.0-0.9","a","28","Sounds/cow_label.wav","null","0","","","","","","",""
"null","","html-keyboard-response","47","2238405","0.0-10.0-1.9","a","28","<p style=""font-size: 48px;"">+</p>","null","0","","","","","","",""
"835.9900000505149","","image-keyboard-response","48","2239243","0.0-10.0-2.9","a","28","Images/cow_2.png","65","0","1582756957284","match","cow","cow","label","practice","true"
"null","","audio-keyboard-response","49","2241260","0.0-10.0-3.9","a","28","Sounds/correct.wav","null","0","","","","","","",""
"16557.980000041425","","html-keyboard-response","50","2257819","0.0-11.0","a","28","<p>The rest of the experiment is divided into five blocks with 100 trials in each block. It will take about 45 minutes to complete.</p><p>The experimenter will be in the outer room and you can communicate with them through the monitor if you have any questions or wish to stop the experiment.</p>","32","","","","","","","",""
"11198.97500006482","","html-keyboard-response","51","2269019","0.0-12.0","a","28","<p>Remember, please try not to move or blink your eyes during the presentation of the images. </p><p>At the end of the experiment, we will show you your scores on the task so you can see how you did.</p><p>The experiment will start on the next screen.</p>","32","","","","","","","",""
"null","","audio-keyboard-response","52","2271746","0.0-13.0-0.0","a","28","Sounds/whistle_sound.wav","null","1","","","","","","",""
"null","","html-keyboard-response","53","2272739","0.0-13.0-1.0","a","28","<p style=""font-size: 48px;"">+</p>","null","1","","","","","","",""
"1038.2799999788404","","image-keyboard-response","54","2273779","0.0-13.0-2.0","a","28","Images/whistle_cartoon.png","65","1","1582756991617","match","whistle","whistle","sound","test","true"
"null","","audio-keyboard-response","55","2275793","0.0-13.0-3.0","a","28","Sounds/correct.wav","null","1","","","","","","",""
"null","","audio-keyboard-response","56","2276807","0.0-13.0-0.1","a","28","Sounds/cow_sound.wav","null","1","","","","","","",""
"null","","html-keyboard-response","57","2277806","0.0-13.0-1.1","a","28","<p style=""font-size: 48px;"">+</p>","null","1","","","","","","",""
"867.0599999604747","","image-keyboard-response","58","2278675","0.0-13.0-2.1","a","28","Images/cow_3.png","65","1","1582756996684","match","cow","cow","sound","test","true"
"null","","audio-keyboard-response","59","2280682","0.0-13.0-3.1","a","28","Sounds/correct.wav","null","1","","","","","","",""
"null","","audio-keyboard-response","60","2281586","0.0-13.0-0.2","a","28","Sounds/frog_label.wav","null","1","","","","","","",""
"null","","html-keyboard-response","61","2282589","0.0-13.0-1.2","a","28","<p style=""font-size: 48px;"">+</p>","null","1","","","","","","",""
"620.630000019446","","image-keyboard-response","62","2283211","0.0-13.0-2.2","a","28","Images/frog_2.png","65","1","1582757001467","match","frog","frog","label","test","true"
"null","","audio-keyboard-response","63","2285227","0.0-13.0-3.2","a","28","Sounds/correct.wav","null","1","","","","","","",""
"null","","audio-keyboard-response","64","2285926","0.0-13.0-0.3","a","28","Sounds/rooster_sound.wav","null","1","","","","","","",""
"null","","html-keyboard-response","65","2286923","0.0-13.0-1.3","a","28","<p style=""font-size: 48px;"">+</p>","null","1","","","","","","",""
"678.9799999678507","","image-keyboard-response","66","2287603","0.0-13.0-2.3","a","28","Images/rooster_3.png","65","1","1582757005801","match","rooster","rooster","sound","test","true"
"null","","audio-keyboard-response","67","2289609","0.0-13.0-3.3","a","28","Sounds/correct.wav","null","1","","","","","","",""
"null","","audio-keyboard-response","68","2290723","0.0-13.0-0.4","a","28","Sounds/motorcycle_sound.wav","null","1","","","","","","",""
"null","","html-keyboard-response","69","2291720","0.0-13.0-1.4","a","28","<p style=""font-size: 48px;"">+</p>","null","1","","","","","","",""
"1118.7549999449402","","image-keyboard-response","70","2292840","0.0-13.0-2.4","a","28","Images/motorcycle_1.png","65","1","1582757010598","match","motorcycle","motorcycle","sound","test","true"
"null","","audio-keyboard-response","71","2294842","0.0-13.0-3.4","a","28","Sounds/correct.wav","null","1","","","","","","",""
"null","","audio-keyboard-response","72","2295543","0.0-13.0-0.5","a","28","Sounds/rooster_label.wav","null","1","","","","","","",""
"null","","html-keyboard-response","73","2296537","0.0-13.0-1.5","a","28","<p style=""font-size: 48px;"">+</p>","null","1","","","","","","",""
"1046.3849999941885","","image-keyboard-response","74","2297584","0.0-13.0-2.5","a","28","Images/train_2.png","76","1","1582757015415","non-match","train","rooster","label","test","true"
"null","","audio-keyboard-response","75","2299592","0.0-13.0-3.5","a","28","Sounds/correct.wav","null","1","","","","","","",""
"null","","audio-keyboard-response","76","2300163","0.0-13.0-0.6","a","28","Sounds/gun_label.wav","null","1","","","","","","",""
"null","","html-keyboard-response","77","2301154","0.0-13.0-1.6","a","28","<p style=""font-size: 48px;"">+</p>","null","1","","","","","","",""
"557.2399999946356","","image-keyboard-response","78","2301712","0.0-13.0-2.6","a","28","Images/cow_1.png","76","1","1582757020032","non-match","cow","gun","label","test","true"
"null","","audio-keyboard-response","79","2303724","0.0-13.0-3.6","a","28","Sounds/correct.wav","null","1","","","","","","",""
"null","","audio-keyboard-response","80","2304623","0.0-13.0-0.7","a","28","Sounds/frog_sound.wav","null","1","","","","","","",""
"null","","html-keyboard-response","81","2305620","0.0-13.0-1.7","a","28","<p style=""font-size: 48px;"">+</p>","null","1","","","","","","",""
"586.600000038743","","image-keyboard-response","82","2306208","0.0-13.0-2.7","a","28","Images/frog_1.png","65","1","1582757024498","match","frog","frog","sound","test","true"
"null","","audio-keyboard-response","83","2308225","0.0-13.0-3.7","a","28","Sounds/correct.wav","null","1","","","","","","",""
"null","","audio-keyboard-response","84","2308923","0.0-13.0-0.8","a","28","Sounds/whistle_sound.wav","null","1","","","","","","",""
"null","","html-keyboard-response","85","2309920","0.0-13.0-1.8","a","28","<p style=""font-size: 48px;"">+</p>","null","1","","","","","","",""
"1446.7299999669194","","image-keyboard-response","86","2311368","0.0-13.0-2.8","a","28","Images/whistle_3.png","65","1","1582757028799","match","whistle","whistle","sound","test","true"
"null","","audio-keyboard-response","87","2313379","0.0-13.0-3.8","a","28","Sounds/correct.wav","null","1","","","","","","",""
"null","","audio-keyboard-response","88","2314283","0.0-13.0-0.9","a","28","Sounds/frog_label.wav","null","1","","","","","","",""
"null","","html-keyboard-response","89","2315287","0.0-13.0-1.9","a","28","<p style=""font-size: 48px;"">+</p>","null","1","","","","","","",""
"639.7049999795854","","image-keyboard-response","90","2315928","0.0-13.0-2.9","a","28","Images/frog_3.png","65","1","1582757034165","match","frog","frog","label","test","true"
"null","","audio-keyboard-response","91","2317942","0.0-13.0-3.9","a","28","Sounds/correct.wav","null","1","","","","","","",""
"null","","audio-keyboard-response","92","2318843","0.0-13.0-0.10","a","28","Sounds/frog_sound.wav","null","1","","","","","","",""
"null","","html-keyboard-response","93","2319837","0.0-13.0-1.10","a","28","<p style=""font-size: 48px;"">+</p>","null","1","","","","","","",""
"1121.7450000112876","","image-keyboard-response","94","2320960","0.0-13.0-2.10","a","28","Images/car_2.png","76","1","1582757038715","non-match","car","frog","sound","test","true"
"null","","audio-keyboard-response","95","2322976","0.0-13.0-3.10","a","28","Sounds/correct.wav","null","1","","","","","","",""
"null","","audio-keyboard-response","96","2324004","0.0-13.0-0.11","a","28","Sounds/cow_sound.wav","null","1","","","","","","",""
"null","","html-keyboard-response","97","2325004","0.0-13.0-1.11","a","28","<p style=""font-size: 48px;"">+</p>","null","1","","","","","","",""
"579.2749999091029","","image-keyboard-response","98","2325584","0.0-13.0-2.11","a","28","Images/cow_orig.png","65","1","1582757043882","match","cow","cow","sound","test","true"
"null","","audio-keyboard-response","99","2327592","0.0-13.0-3.11","a","28","Sounds/correct.wav","null","1","","","","","","",""
"null","","audio-keyboard-response","100","2328244","0.0-13.0-0.12","a","28","Sounds/dog_label.wav","null","1","","","","","","",""
"null","","html-keyboard-response","101","2329237","0.0-13.0-1.12","a","28","<p style=""font-size: 48px;"">+</p>","null","1","","","","","","",""
"833.7649999884889","","image-keyboard-response","102","2330072","0.0-13.0-2.12","a","28","Images/dog_orig.png","65","1","1582757048115","match","dog","dog","label","test","true"
"null","","audio-keyboard-response","103","2332078","0.0-13.0-3.12","a","28","Sounds/correct.wav","null","1","","","","","","",""
"null","","audio-keyboard-response","104","2332923","0.0-13.0-0.13","a","28","Sounds/cat_sound.wav","null","1","","","","","","",""
"null","","html-keyboard-response","105","2333921","0.0-13.0-1.13","a","28","<p style=""font-size: 48px;"">+</p>","null","1","","","","","","",""
"574.3549999315292","","image-keyboard-response","106","2334496","0.0-13.0-2.13","a","28","Images/cat_1.png","65","1","1582757052799","match","cat","cat","sound","test","true"
"null","","audio-keyboard-response","107","2336508","0.0-13.0-3.13","a","28","Sounds/correct.wav","null","1","","","","","","",""
"null","","audio-keyboard-response","108","2337083","0.0-13.0-0.14","a","28","Sounds/gun_sound.wav","null","1","","","","","","",""
"null","","html-keyboard-response","109","2338088","0.0-13.0-1.14","a","28","<p style=""font-size: 48px;"">+</p>","null","1","","","","","","",""
"1599.4700000155717","","image-keyboard-response","110","2339688","0.0-13.0-2.14","a","28","Images/motorcycle_2.png","76","1","1582757056965","non-match","motorcycle","gun","sound","test","true"
"null","","audio-keyboard-response","111","2341696","0.0-13.0-3.14","a","28","Sounds/correct.wav","null","1","","","","","","",""
"null","","audio-keyboard-response","112","2342403","0.0-13.0-0.15","a","28","Sounds/rooster_sound.wav","null","1","","","","","","",""
"null","","html-keyboard-response","113","2343404","0.0-13.0-1.15","a","28","<p style=""font-size: 48px;"">+</p>","null","1","","","","","","",""
"538.6750000761822","","image-keyboard-response","114","2343944","0.0-13.0-2.15","a","28","Images/gun_3.png","76","1","1582757062282","non-match","gun","rooster","sound","test","true"
"null","","audio-keyboard-response","115","2345958","0.0-13.0-3.15","a","28","Sounds/correct.wav","null","1","","","","","","",""
"null","","audio-keyboard-response","116","2347043","0.0-13.0-0.16","a","28","Sounds/car_sound.wav","null","1","","","","","","",""
"null","","html-keyboard-response","117","2348037","0.0-13.0-1.16","a","28","<p style=""font-size: 48px;"">+</p>","null","1","","","","","","",""
"1377.3849999997765","","image-keyboard-response","118","2349416","0.0-13.0-2.16","a","28","Images/train_1.png","65","1","1582757066916","non-match","train","car","sound","test","false"
"null","","audio-keyboard-response","119","2351430","0.0-13.0-3.16","a","28","Sounds/incorrect.wav","null","1","","","","","","",""
"null","","audio-keyboard-response","120","2352503","0.0-13.0-0.17","a","28","Sounds/car_label.wav","null","1","","","","","","",""
"null","","html-keyboard-response","121","2353521","0.0-13.0-1.17","a","28","<p style=""font-size: 48px;"">+</p>","null","1","","","","","","",""
"558.2550000399351","","image-keyboard-response","122","2354080","0.0-13.0-2.17","a","28","Images/frog_cartoon.png","76","1","1582757072399","non-match","frog","car","label","test","true"
"null","","audio-keyboard-response","123","2356093","0.0-13.0-3.17","a","28","Sounds/correct.wav","null","1","","","","","","",""
"null","","audio-keyboard-response","124","2356803","0.0-13.0-0.18","a","28","Sounds/dog_sound.wav","null","1","","","","","","",""
"null","","html-keyboard-response","125","2357821","0.0-13.0-1.18","a","28","<p style=""font-size: 48px;"">+</p>","null","1","","","","","","",""
"1097.8899999754503","","image-keyboard-response","126","2358920","0.0-13.0-2.18","a","28","Images/rooster_3.png","76","1","1582757076699","non-match","rooster","dog","sound","test","true"
"null","","audio-keyboard-response","127","2360927","0.0-13.0-3.18","a","28","Sounds/correct.wav","null","1","","","","","","",""
"null","","audio-keyboard-response","128","2361843","0.0-13.0-0.19","a","28","Sounds/frog_sound.wav","null","1","","","","","","",""
"null","","html-keyboard-response","129","2362838","0.0-13.0-1.19","a","28","<p style=""font-size: 48px;"">+</p>","null","1","","","","","","",""
"633.3500000182539","","image-keyboard-response","130","2363472","0.0-13.0-2.19","a","28","Images/frog_orig.png","65","1","1582757081716","match","frog","frog","sound","test","true"
"null","","audio-keyboard-response","131","2365476","0.0-13.0-3.19","a","28","Sounds/correct.wav","null","1","","","","","","",""
"null","","audio-keyboard-response","132","2366503","0.0-13.0-0.20","a","28","Sounds/cow_label.wav","null","1","","","","","","",""
"null","","html-keyboard-response","133","2367521","0.0-13.0-1.20","a","28","<p style=""font-size: 48px;"">+</p>","null","1","","","","","","",""
"678.029999951832","","image-keyboard-response","134","2368200","0.0-13.0-2.20","a","28","Images/rooster_2.png","76","1","1582757086399","non-match","rooster","cow","label","test","true"
"null","","audio-keyboard-response","135","2370211","0.0-13.0-3.20","a","28","Sounds/correct.wav","null","1","","","","","","",""
"null","","audio-keyboard-response","136","2371043","0.0-13.0-0.21","a","28","Sounds/cat_label.wav","null","1","","","","","","",""
"null","","html-keyboard-response","137","2372038","0.0-13.0-1.21","a","28","<p style=""font-size: 48px;"">+</p>","null","1","","","","","","",""
"609.3000000109896","","image-keyboard-response","138","2372648","0.0-13.0-2.21","a","28","Images/frog_orig.png","76","1","1582757090916","non-match","frog","cat","label","test","true"
"null","","audio-keyboard-response","139","2374658","0.0-13.0-3.21","a","28","Sounds/correct.wav","null","1","","","","","","",""
"null","","audio-keyboard-response","140","2375364","0.0-13.0-0.22","a","28","Sounds/whistle_sound.wav","null","1","","","","","","",""
"null","","html-keyboard-response","141","2376354","0.0-13.0-1.22","a","28","<p style=""font-size: 48px;"">+</p>","null","1","","","","","","",""
"516.4549999171868","","image-keyboard-response","142","2376872","0.0-13.0-2.22","a","28","Images/whistle_2.png","65","1","1582757095233","match","whistle","whistle","sound","test","true"
"null","","audio-keyboard-response","143","2378876","0.0-13.0-3.22","a","28","Sounds/correct.wav","null","1","","","","","","",""
"null","","audio-keyboard-response","144","2380004","0.0-13.0-0.23","a","28","Sounds/motorcycle_label.wav","null","1","","","","","","",""
"null","","html-keyboard-response","145","2381021","0.0-13.0-1.23","a","28","<p style=""font-size: 48px;"">+</p>","null","1","","","","","","",""
"801.9100000383332","","image-keyboard-response","146","2381824","0.0-13.0-2.23","a","28","Images/cow_cartoon.png","76","1","1582757099899","non-match","cow","motorcycle","label","test","true"
"null","","audio-keyboard-response","147","2383842","0.0-13.0-3.23","a","28","Sounds/correct.wav","null","1","","","","","","",""
"null","","audio-keyboard-response","148","2384423","0.0-13.0-0.24","a","28","Sounds/gun_sound.wav","null","1","","","","","","",""
"null","","html-keyboard-response","149","2385421","0.0-13.0-1.24","a","28","<p style=""font-size: 48px;"">+</p>","null","1","","","","","","",""
"889.7649999707937","","image-keyboard-response","150","2386312","0.0-13.0-2.24","a","28","Images/gun_2.png","65","1","1582757104299","match","gun","gun","sound","test","true"
"null","","audio-keyboard-response","151","2388327","0.0-13.0-3.24","a","28","Sounds/correct.wav","null","1","","","","","","",""
"null","","audio-keyboard-response","152","2389604","0.0-13.0-0.25","a","28","Sounds/train_label.wav","null","1","","","","","","",""
"null","","html-keyboard-response","153","2390638","0.0-13.0-1.25","a","28","<p style=""font-size: 48px;"">+</p>","null","1","","","","","","",""
"1609.180000028573","","image-keyboard-response","154","2392248","0.0-13.0-2.25","a","28","Images/train_1.png","65","1","1582757109516","match","train","train","label","test","true"
"null","","audio-keyboard-response","155","2394265","0.0-13.0-3.25","a","28","Sounds/correct.wav","null","1","","","","","","",""
"null","","audio-keyboard-response","156","2394843","0.0-13.0-0.26","a","28","Sounds/gun_label.wav","null","1","","","","","","",""
"null","","html-keyboard-response","157","2395838","0.0-13.0-1.26","a","28","<p style=""font-size: 48px;"">+</p>","null","1","","","","","","",""
"521.0599999409169","","image-keyboard-response","158","2396360","0.0-13.0-2.26","a","28","Images/gun_1.png","65","1","1582757114716","match","gun","gun","label","test","true"
"null","","audio-keyboard-response","159","2398375","0.0-13.0-3.26","a","28","Sounds/correct.wav","null","1","","","","","","",""
"null","","audio-keyboard-response","160","2399503","0.0-13.0-0.27","a","28","Sounds/motorcycle_sound.wav","null","1","","","","","","",""
"null","","html-keyboard-response","161","2400521","0.0-13.0-1.27","a","28","<p style=""font-size: 48px;"">+</p>","null","1","","","","","","",""
"1365.6000000191852","","image-keyboard-response","162","2401888","0.0-13.0-2.27","a","28","Images/cat_2.png","76","1","1582757119399","non-match","cat","motorcycle","sound","test","true"
"null","","audio-keyboard-response","163","2403896","0.0-13.0-3.27","a","28","Sounds/correct.wav","null","1","","","","","","",""
"null","","audio-keyboard-response","164","2404983","0.0-13.0-0.28","a","28","Sounds/car_sound.wav","null","1","","","","","","",""
"null","","html-keyboard-response","165","2405988","0.0-13.0-1.28","a","28","<p style=""font-size: 48px;"">+</p>","null","1","","","","","","",""
"1074.9899999937043","","image-keyboard-response","166","2407064","0.0-13.0-2.28","a","28","Images/car_orig.png","65","1","1582757124866","match","car","car","sound","test","true"
"null","","audio-keyboard-response","167","2409075","0.0-13.0-3.28","a","28","Sounds/correct.wav","null","1","","","","","","",""
"null","","audio-keyboard-response","168","2410123","0.0-13.0-0.29","a","28","Sounds/car_sound.wav","null","1","","","","","","",""
"null","","html-keyboard-response","169","2411121","0.0-13.0-1.29","a","28","<p style=""font-size: 48px;"">+</p>","null","1","","","","","","",""
"581.4500000560656","","image-keyboard-response","170","2411704","0.0-13.0-2.29","a","28","Images/gun_cartoon.png","76","1","1582757129999","non-match","gun","car","sound","test","true"
"null","","audio-keyboard-response","171","2413713","0.0-13.0-3.29","a","28","Sounds/correct.wav","null","1","","","","","","",""
"null","","audio-keyboard-response","172","2414804","0.0-13.0-0.30","a","28","Sounds/motorcycle_sound.wav","null","1","","","","","","",""
"null","","html-keyboard-response","173","2415822","0.0-13.0-1.30","a","28","<p style=""font-size: 48px;"">+</p>","null","1","","","","","","",""
"1337.554999976419","","image-keyboard-response","174","2417160","0.0-13.0-2.30","a","28","Images/motorcycle_cartoon.png","65","1","1582757134700","match","motorcycle","motorcycle","sound","test","true"
"null","","audio-keyboard-response","175","2419177","0.0-13.0-3.30","a","28","Sounds/correct.wav","null","1","","","","","","",""
"null","","audio-keyboard-response","176","2420264","0.0-13.0-0.31","a","28","Sounds/motorcycle_sound.wav","null","1","","","","","","",""
"null","","html-keyboard-response","177","2421255","0.0-13.0-1.31","a","28","<p style=""font-size: 48px;"">+</p>","null","1","","","","","","",""
"696.0600001038983","","image-keyboard-response","178","2421952","0.0-13.0-2.31","a","28","Images/gun_1.png","76","1","1582757140133","non-match","gun","motorcycle","sound","test","true"
"null","","audio-keyboard-response","179","2423962","0.0-13.0-3.31","a","28","Sounds/correct.wav","null","1","","","","","","",""
"null","","audio-keyboard-response","180","2424664","0.0-13.0-0.32","a","28","Sounds/whistle_label.wav","null","1","","","","","","",""
"null","","html-keyboard-response","181","2425655","0.0-13.0-1.32","a","28","<p style=""font-size: 48px;"">+</p>","null","1","","","","","","",""
"544.1049999790266","","image-keyboard-response","182","2426200","0.0-13.0-2.32","a","28","Images/car_3.png","76","1","1582757144533","non-match","car","whistle","label","test","true"
"null","","audio-keyboard-response","183","2428210","0.0-13.0-3.32","a","28","Sounds/correct.wav","null","1","","","","","","",""
"null","","audio-keyboard-response","184","2429284","0.0-13.0-0.33","a","28","Sounds/car_label.wav","null","1","","","","","","",""
"null","","html-keyboard-response","185","2430289","0.0-13.0-1.33","a","28","<p style=""font-size: 48px;"">+</p>","null","1","","","","","","",""
"502.67499999608845","","image-keyboard-response","186","2430792","0.0-13.0-2.33","a","28","Images/car_2.png","65","1","1582757149167","match","car","car","label","test","true"
"null","","audio-keyboard-response","187","2432809","0.0-13.0-3.33","a","28","Sounds/correct.wav","null","1","","","","","","",""
"null","","audio-keyboard-response","188","2434084","0.0-13.0-0.34","a","28","Sounds/train_label.wav","null","1","","","","","","",""
"null","","html-keyboard-response","189","2435089","0.0-13.0-1.34","a","28","<p style=""font-size: 48px;"">+</p>","null","1","","","","","","",""
"614.3150000134483","","image-keyboard-response","190","2435704","0.0-13.0-2.34","a","28","Images/train_3.png","65","1","1582757153967","match","train","train","label","test","true"
"null","","audio-keyboard-response","191","2437713","0.0-13.0-3.34","a","28","Sounds/correct.wav","null","1","","","","","","",""
"null","","audio-keyboard-response","192","2438284","0.0-13.0-0.35","a","28","Sounds/gun_label.wav","null","1","","","","","","",""
"null","","html-keyboard-response","193","2439272","0.0-13.0-1.35","a","28","<p style=""font-size: 48px;"">+</p>","null","1","","","","","","",""
"502.92500003706664","","image-keyboard-response","194","2439776","0.0-13.0-2.35","a","28","Images/gun_3.png","65","1","1582757158150","match","gun","gun","label","test","true"
"null","","audio-keyboard-response","195","2441793","0.0-13.0-3.35","a","28","Sounds/correct.wav","null","1","","","","","","",""
"null","","audio-keyboard-response","196","2442484","0.0-13.0-0.36","a","28","Sounds/whistle_label.wav","null","1","","","","","","",""
"null","","html-keyboard-response","197","2443472","0.0-13.0-1.36","a","28","<p style=""font-size: 48px;"">+</p>","null","1","","","","","","",""
"471.1700000334531","","image-keyboard-response","198","2443944","0.0-13.0-2.36","a","28","Images/whistle_1.png","65","1","1582757162350","match","whistle","whistle","label","test","true"
"null","","audio-keyboard-response","199","2445960","0.0-13.0-3.36","a","28","Sounds/correct.wav","null","1","","","","","","",""
"null","","audio-keyboard-response","200","2446624","0.0-13.0-0.37","a","28","Sounds/whistle_label.wav","null","1","","","","","","",""
"null","","html-keyboard-response","201","2447622","0.0-13.0-1.37","a","28","<p style=""font-size: 48px;"">+</p>","null","1","","","","","","",""
"457.094999961555","","image-keyboard-response","202","2448080","0.0-13.0-2.37","a","28","Images/dog_cartoon.png","76","1","1582757166500","non-match","dog","whistle","label","test","true"
"null","","audio-keyboard-response","203","2450091","0.0-13.0-3.37","a","28","Sounds/correct.wav","null","1","","","","","","",""
"null","","audio-keyboard-response","204","2450644","0.0-13.0-0.38","a","28","Sounds/gun_label.wav","null","1","","","","","","",""
"null","","html-keyboard-response","205","2451639","0.0-13.0-1.38","a","28","<p style=""font-size: 48px;"">+</p>","null","1","","","","","","",""
"624.294999986887","","image-keyboard-response","206","2452264","0.0-13.0-2.38","a","28","Images/gun_cartoon.png","65","1","1582757170517","match","gun","gun","label","test","true"
"null","","audio-keyboard-response","207","2454275","0.0-13.0-3.38","a","28","Sounds/correct.wav","null","1","","","","","","",""
"null","","audio-keyboard-response","208","2455364","0.0-13.0-0.39","a","28","Sounds/car_sound.wav","null","1","","","","","","",""
"null","","html-keyboard-response","209","2456356","0.0-13.0-1.39","a","28","<p style=""font-size: 48px;"">+</p>","null","1","","","","","","",""
"515.9500000299886","","image-keyboard-response","210","2456872","0.0-13.0-2.39","a","28","Images/cow_2.png","76","1","1582757175234","non-match","cow","car","sound","test","true"
"null","","audio-keyboard-response","211","2458878","0.0-13.0-3.39","a","28","Sounds/correct.wav","null","1","","","","","","",""
"null","","audio-keyboard-response","212","2459924","0.0-13.0-0.40","a","28","Sounds/car_sound.wav","null","1","","","","","","",""
"null","","html-keyboard-response","213","2460922","0.0-13.0-1.40","a","28","<p style=""font-size: 48px;"">+</p>","null","1","","","","","","",""
"621.0100000025705","","image-keyboard-response","214","2461544","0.0-13.0-2.40","a","28","Images/whistle_2.png","76","1","1582757179800","non-match","whistle","car","sound","test","true"
"null","","audio-keyboard-response","215","2463560","0.0-13.0-3.40","a","28","Sounds/correct.wav","null","1","","","","","","",""
"null","","audio-keyboard-response","216","2464204","0.0-13.0-0.41","a","28","Sounds/dog_label.wav","null","1","","","","","","",""
"null","","html-keyboard-response","217","2465206","0.0-13.0-1.41","a","28","<p style=""font-size: 48px;"">+</p>","null","1","","","","","","",""
"929.5250000432134","","image-keyboard-response","218","2466136","0.0-13.0-2.41","a","28","Images/car_orig.png","76","1","1582757184084","non-match","car","dog","label","test","true"
"null","","audio-keyboard-response","219","2468147","0.0-13.0-3.41","a","28","Sounds/correct.wav","null","1","","","","","","",""
"null","","audio-keyboard-response","220","2469204","0.0-13.0-0.42","a","28","Sounds/car_sound.wav","null","1","","","","","","",""
"null","","html-keyboard-response","221","2470206","0.0-13.0-1.42","a","28","<p style=""font-size: 48px;"">+</p>","null","1","","","","","","",""
"497.7550000185147","","image-keyboard-response","222","2470705","0.0-13.0-2.42","a","28","Images/car_3.png","65","1","1582757189084","match","car","car","sound","test","true"
"null","","audio-keyboard-response","223","2472712","0.0-13.0-3.42","a","28","Sounds/correct.wav","null","1","","","","","","",""
"null","","audio-keyboard-response","224","2473283","0.0-13.0-0.43","a","28","Sounds/gun_sound.wav","null","1","","","","","","",""
"null","","html-keyboard-response","225","2474272","0.0-13.0-1.43","a","28","<p style=""font-size: 48px;"">+</p>","null","1","","","","","","",""
"510.8849999960512","","image-keyboard-response","226","2474784","0.0-13.0-2.43","a","28","Images/car_1.png","76","1","1582757193150","non-match","car","gun","sound","test","true"
"null","","audio-keyboard-response","227","2476792","0.0-13.0-3.43","a","28","Sounds/correct.wav","null","1","","","","","","",""
"null","","audio-keyboard-response","228","2477683","0.0-13.0-0.44","a","28","Sounds/frog_label.wav","null","1","","","","","","",""
"null","","html-keyboard-response","229","2478672","0.0-13.0-1.44","a","28","<p style=""font-size: 48px;"">+</p>","null","1","","","","","","",""
"445.89500001166016","","image-keyboard-response","230","2479120","0.0-13.0-2.44","a","28","Images/motorcycle_orig.png","76","1","1582757197551","non-match","motorcycle","frog","label","test","true"
"null","","audio-keyboard-response","231","2481131","0.0-13.0-3.44","a","28","Sounds/correct.wav","null","1","","","","","","",""
"null","","audio-keyboard-response","232","2481843","0.0-13.0-0.45","a","28","Sounds/dog_sound.wav","null","1","","","","","","",""
"null","","html-keyboard-response","233","2482839","0.0-13.0-1.45","a","28","<p style=""font-size: 48px;"">+</p>","null","1","","","","","","",""
"672.5599999772385","","image-keyboard-response","234","2483512","0.0-13.0-2.45","a","28","Images/cat_1.png","76","1","1582757201717","non-match","cat","dog","sound","test","true"
"null","","audio-keyboard-response","235","2485527","0.0-13.0-3.45","a","28","Sounds/correct.wav","null","1","","","","","","",""
"null","","audio-keyboard-response","236","2486223","0.0-13.0-0.46","a","28","Sounds/whistle_sound.wav","null","1","","","","","","",""
"null","","html-keyboard-response","237","2487222","0.0-13.0-1.46","a","28","<p style=""font-size: 48px;"">+</p>","null","1","","","","","","",""
"864.7849999833852","","image-keyboard-response","238","2488088","0.0-13.0-2.46","a","28","Images/whistle_orig.png","65","1","1582757206100","match","whistle","whistle","sound","test","true"
"null","","audio-keyboard-response","239","2490096","0.0-13.0-3.46","a","28","Sounds/correct.wav","null","1","","","","","","",""
"null","","audio-keyboard-response","240","2490943","0.0-13.0-0.47","a","28","Sounds/cat_label.wav","null","1","","","","","","",""
"null","","html-keyboard-response","241","2491939","0.0-13.0-1.47","a","28","<p style=""font-size: 48px;"">+</p>","null","1","","","","","","",""
"900.0600000144914","","image-keyboard-response","242","2492840","0.0-13.0-2.47","a","28","Images/cow_3.png","76","1","1582757210817","non-match","cow","cat","label","test","true"
"null","","audio-keyboard-response","243","2494844","0.0-13.0-3.47","a","28","Sounds/correct.wav","null","1","","","","","","",""
"null","","audio-keyboard-response","244","2495763","0.0-13.0-0.48","a","28","Sounds/frog_sound.wav","null","1","","","","","","",""
"null","","html-keyboard-response","245","2496756","0.0-13.0-1.48","a","28","<p style=""font-size: 48px;"">+</p>","null","1","","","","","","",""
"387.30499998200685","","image-keyboard-response","246","2497144","0.0-13.0-2.48","a","28","Images/rooster_cartoon.png","76","1","1582757215634","non-match","rooster","frog","sound","test","true"
"null","","audio-keyboard-response","247","2499160","0.0-13.0-3.48","a","28","Sounds/correct.wav","null","1","","","","","","",""
"null","","audio-keyboard-response","248","2500163","0.0-13.0-0.49","a","28","Sounds/cow_sound.wav","null","1","","","","","","",""
"null","","html-keyboard-response","249","2501156","0.0-13.0-1.49","a","28","<p style=""font-size: 48px;"">+</p>","null","1","","","","","","",""
"562.9699999699369","","image-keyboard-response","250","2501720","0.0-13.0-2.49","a","28","Images/cow_cartoon.png","65","1","1582757220034","match","cow","cow","sound","test","true"
"null","","audio-keyboard-response","251","2503727","0.0-13.0-3.49","a","28","Sounds/correct.wav","null","1","","","","","","",""
"null","","audio-keyboard-response","252","2504863","0.0-13.0-0.50","a","28","Sounds/motorcycle_label.wav","null","1","","","","","","",""
"null","","html-keyboard-response","253","2505856","0.0-13.0-1.50","a","28","<p style=""font-size: 48px;"">+</p>","null","1","","","","","","",""
"1031.0750000644475","","image-keyboard-response","254","2506888","0.0-13.0-2.50","a","28","Images/motorcycle_2.png","65","1","1582757224734","match","motorcycle","motorcycle","label","test","true"
"null","","audio-keyboard-response","255","2508895","0.0-13.0-3.50","a","28","Sounds/correct.wav","null","1","","","","","","",""
"null","","audio-keyboard-response","256","2509603","0.0-13.0-0.51","a","28","Sounds/dog_sound.wav","null","1","","","","","","",""
"null","","html-keyboard-response","257","2510606","0.0-13.0-1.51","a","28","<p style=""font-size: 48px;"">+</p>","null","1","","","","","","",""
"713.2399999536574","","image-keyboard-response","258","2511320","0.0-13.0-2.51","a","28","Images/motorcycle_3.png","76","1","1582757229484","non-match","motorcycle","dog","sound","test","true"
"null","","audio-keyboard-response","259","2513328","0.0-13.0-3.51","a","28","Sounds/correct.wav","null","1","","","","","","",""
"null","","audio-keyboard-response","260","2514023","0.0-13.0-0.52","a","28","Sounds/rooster_label.wav","null","1","","","","","","",""
"null","","html-keyboard-response","261","2515023","0.0-13.0-1.52","a","28","<p style=""font-size: 48px;"">+</p>","null","1","","","","","","",""
"752.1299999207258","","image-keyboard-response","262","2515776","0.0-13.0-2.52","a","28","Images/whistle_1.png","76","1","1582757233901","non-match","whistle","rooster","label","test","true"
"null","","audio-keyboard-response","263","2517779","0.0-13.0-3.52","a","28","Sounds/correct.wav","null","1","","","","","","",""
"null","","audio-keyboard-response","264","2518623","0.0-13.0-0.53","a","28","Sounds/cat_sound.wav","null","1","","","","","","",""
"null","","html-keyboard-response","265","2519623","0.0-13.0-1.53","a","28","<p style=""font-size: 48px;"">+</p>","null","1","","","","","","",""
"680.2049999823794","","image-keyboard-response","266","2520304","0.0-13.0-2.53","a","28","Images/cat_orig.png","65","1","1582757238501","match","cat","cat","sound","test","true"
"null","","audio-keyboard-response","267","2522311","0.0-13.0-3.53","a","28","Sounds/correct.wav","null","1","","","","","","",""
"null","","audio-keyboard-response","268","2523143","0.0-13.0-0.54","a","28","Sounds/cat_label.wav","null","1","","","","","","",""
"null","","html-keyboard-response","269","2524139","0.0-13.0-1.54","a","28","<p style=""font-size: 48px;"">+</p>","null","1","","","","","","",""
"347.8800000157207","","image-keyboard-response","270","2524488","0.0-13.0-2.54","a","28","Images/motorcycle_cartoon.png","76","1","1582757243017","non-match","motorcycle","cat","label","test","true"
"null","","audio-keyboard-response","271","2526494","0.0-13.0-3.54","a","28","Sounds/correct.wav","null","1","","","","","","",""
"null","","audio-keyboard-response","272","2527563","0.0-13.0-0.55","a","28","Sounds/car_sound.wav","null","1","","","","","","",""
"null","","html-keyboard-response","273","2528556","0.0-13.0-1.55","a","28","<p style=""font-size: 48px;"">+</p>","null","1","","","","","","",""
"555.1050000358373","","image-keyboard-response","274","2529112","0.0-13.0-2.55","a","28","Images/cat_cartoon.png","76","1","1582757247434","non-match","cat","car","sound","test","true"
"null","","audio-keyboard-response","275","2531115","0.0-13.0-3.55","a","28","Sounds/correct.wav","null","1","","","","","","",""
"null","","audio-keyboard-response","276","2531783","0.0-13.0-0.56","a","28","Sounds/dog_label.wav","null","1","","","","","","",""
"null","","html-keyboard-response","277","2532773","0.0-13.0-1.56","a","28","<p style=""font-size: 48px;"">+</p>","null","1","","","","","","",""
"418.1349999271333","","image-keyboard-response","278","2533192","0.0-13.0-2.56","a","28","Images/frog_2.png","76","1","1582757251651","non-match","frog","dog","label","test","true"
"null","","audio-keyboard-response","279","2535194","0.0-13.0-3.56","a","28","Sounds/correct.wav","null","1","","","","","","",""
"null","","audio-keyboard-response","280","2536484","0.0-13.0-0.57","a","28","Sounds/train_sound.wav","null","1","","","","","","",""
"null","","html-keyboard-response","281","2537490","0.0-13.0-1.57","a","28","<p style=""font-size: 48px;"">+</p>","null","1","","","","","","",""
"596.0050000576302","","image-keyboard-response","282","2538088","0.0-13.0-2.57","a","28","Images/train_cartoon.png","65","1","1582757256368","match","train","train","sound","test","true"
"null","","audio-keyboard-response","283","2540096","0.0-13.0-3.57","a","28","Sounds/correct.wav","null","1","","","","","","",""
"null","","audio-keyboard-response","284","2540804","0.0-13.0-0.58","a","28","Sounds/whistle_sound.wav","null","1","","","","","","",""
"null","","html-keyboard-response","285","2541806","0.0-13.0-1.58","a","28","<p style=""font-size: 48px;"">+</p>","null","1","","","","","","",""
"736.7849999573082","","image-keyboard-response","286","2542544","0.0-13.0-2.58","a","28","Images/frog_3.png","76","1","1582757260684","non-match","frog","whistle","sound","test","true"
"null","","audio-keyboard-response","287","2544561","0.0-13.0-3.58","a","28","Sounds/correct.wav","null","1","","","","","","",""
"null","","audio-keyboard-response","288","2545704","0.0-13.0-0.59","a","28","Sounds/motorcycle_label.wav","null","1","","","","","","",""
"null","","html-keyboard-response","289","2546706","0.0-13.0-1.59","a","28","<p style=""font-size: 48px;"">+</p>","null","1","","","","","","",""
"500.8050000760704","","image-keyboard-response","290","2547208","0.0-13.0-2.59","a","28","Images/train_3.png","76","1","1582757265584","non-match","train","motorcycle","label","test","true"
"null","","audio-keyboard-response","291","2549212","0.0-13.0-3.59","a","28","Sounds/correct.wav","null","1","","","","","","",""
"null","","audio-keyboard-response","292","2550104","0.0-13.0-0.60","a","28","Sounds/frog_label.wav","null","1","","","","","","",""
"null","","html-keyboard-response","293","2551107","0.0-13.0-1.60","a","28","<p style=""font-size: 48px;"">+</p>","null","1","","","","","","",""
"692.769999965094","","image-keyboard-response","294","2551800","0.0-13.0-2.60","a","28","Images/gun_orig.png","76","1","1582757269985","non-match","gun","frog","label","test","true"
"null","","audio-keyboard-response","295","2553809","0.0-13.0-3.60","a","28","Sounds/correct.wav","null","1","","","","","","",""
"null","","audio-keyboard-response","296","2554504","0.0-13.0-0.61","a","28","Sounds/rooster_label.wav","null","1","","","","","","",""
"null","","html-keyboard-response","297","2555507","0.0-13.0-1.61","a","28","<p style=""font-size: 48px;"">+</p>","null","1","","","","","","",""
"452.4400000227615","","image-keyboard-response","298","2555960","0.0-13.0-2.61","a","28","Images/rooster_cartoon.png","65","1","1582757274385","match","rooster","rooster","label","test","true"
"null","","audio-keyboard-response","299","2557978","0.0-13.0-3.61","a","28","Sounds/correct.wav","null","1","","","","","","",""
"null","","audio-keyboard-response","300","2558824","0.0-13.0-0.62","a","28","Sounds/cat_label.wav","null","1","","","","","","",""
"null","","html-keyboard-response","301","2559823","0.0-13.0-1.62","a","28","<p style=""font-size: 48px;"">+</p>","null","1","","","","","","",""
"672.0349999377504","","image-keyboard-response","302","2560496","0.0-13.0-2.62","a","28","Images/cat_cartoon.png","65","1","1582757278701","match","cat","cat","label","test","true"
"null","","audio-keyboard-response","303","2562511","0.0-13.0-3.62","a","28","Sounds/correct.wav","null","1","","","","","","",""
"null","","audio-keyboard-response","304","2563524","0.0-13.0-0.63","a","28","Sounds/cow_label.wav","null","1","","","","","","",""
"null","","html-keyboard-response","305","2564523","0.0-13.0-1.63","a","28","<p style=""font-size: 48px;"">+</p>","null","1","","","","","","",""
"580.1849999697879","","image-keyboard-response","306","2565104","0.0-13.0-2.63","a","28","Images/cat_3.png","76","1","1582757283401","non-match","cat","cow","label","test","true"
"null","","audio-keyboard-response","307","2567112","0.0-13.0-3.63","a","28","Sounds/correct.wav","null","1","","","","","","",""
"null","","audio-keyboard-response","308","2567924","0.0-13.0-0.64","a","28","Sounds/cat_label.wav","null","1","","","","","","",""
"null","","html-keyboard-response","309","2568923","0.0-13.0-1.64","a","28","<p style=""font-size: 48px;"">+</p>","null","1","","","","","","",""
"596.0600000107661","","image-keyboard-response","310","2569520","0.0-13.0-2.64","a","28","Images/cat_3.png","65","1","1582757287801","match","cat","cat","label","test","true"
"null","","audio-keyboard-response","311","2571529","0.0-13.0-3.64","a","28","Sounds/correct.wav","null","1","","","","","","",""
"null","","audio-keyboard-response","312","2572524","0.0-13.0-0.65","a","28","Sounds/cow_label.wav","null","1","","","","","","",""
"null","","html-keyboard-response","313","2573523","0.0-13.0-1.65","a","28","<p style=""font-size: 48px;"">+</p>","null","1","","","","","","",""
"643.8449999550357","","image-keyboard-response","314","2574168","0.0-13.0-2.65","a","28","Images/gun_2.png","76","1","1582757292401","non-match","gun","cow","label","test","true"
"null","","audio-keyboard-response","315","2576179","0.0-13.0-3.65","a","28","Sounds/correct.wav","null","1","","","","","","",""
"null","","audio-keyboard-response","316","2576984","0.0-13.0-0.66","a","28","Sounds/cat_label.wav","null","1","","","","","","",""
"null","","html-keyboard-response","317","2577973","0.0-13.0-1.66","a","28","<p style=""font-size: 48px;"">+</p>","null","1","","","","","","",""
"498.1099999276921","","image-keyboard-response","318","2578472","0.0-13.0-2.66","a","28","Images/cat_2.png","65","1","1582757296851","match","cat","cat","label","test","true"
"null","","audio-keyboard-response","319","2580481","0.0-13.0-3.66","a","28","Sounds/correct.wav","null","1","","","","","","",""
"null","","audio-keyboard-response","320","2581184","0.0-13.0-0.67","a","28","Sounds/rooster_sound.wav","null","1","","","","","","",""
"null","","html-keyboard-response","321","2582173","0.0-13.0-1.67","a","28","<p style=""font-size: 48px;"">+</p>","null","1","","","","","","",""
"689.7999999346212","","image-keyboard-response","322","2582864","0.0-13.0-2.67","a","28","Images/dog_3.png","76","1","1582757301052","non-match","dog","rooster","sound","test","true"
"null","","audio-keyboard-response","323","2584879","0.0-13.0-3.67","a","28","Sounds/correct.wav","null","1","","","","","","",""
"null","","audio-keyboard-response","324","2585784","0.0-13.0-0.68","a","28","Sounds/frog_sound.wav","null","1","","","","","","",""
"null","","html-keyboard-response","325","2586773","0.0-13.0-1.68","a","28","<p style=""font-size: 48px;"">+</p>","null","1","","","","","","",""
"585.9300000593066","","image-keyboard-response","326","2587360","0.0-13.0-2.68","a","28","Images/frog_cartoon.png","65","1","1582757305652","match","frog","frog","sound","test","true"
"null","","audio-keyboard-response","327","2589378","0.0-13.0-3.68","a","28","Sounds/correct.wav","null","1","","","","","","",""
"null","","audio-keyboard-response","328","2590084","0.0-13.0-0.69","a","28","Sounds/rooster_label.wav","null","1","","","","","","",""
"null","","html-keyboard-response","329","2591074","0.0-13.0-1.69","a","28","<p style=""font-size: 48px;"">+</p>","null","1","","","","","","",""
"637.8300000214949","","image-keyboard-response","330","2591712","0.0-13.0-2.69","a","28","Images/cat_orig.png","76","1","1582757309952","non-match","cat","rooster","label","test","true"
"null","","audio-keyboard-response","331","2593727","0.0-13.0-3.69","a","28","Sounds/correct.wav","null","1","","","","","","",""
"null","","audio-keyboard-response","332","2594384","0.0-13.0-0.70","a","28","Sounds/dog_label.wav","null","1","","","","","","",""
"null","","html-keyboard-response","333","2595374","0.0-13.0-1.70","a","28","<p style=""font-size: 48px;"">+</p>","null","1","","","","","","",""
"425.3749999916181","","image-keyboard-response","334","2595800","0.0-13.0-2.70","a","28","Images/dog_cartoon.png","65","1","1582757314252","match","dog","dog","label","test","true"
"null","","audio-keyboard-response","335","2597810","0.0-13.0-3.70","a","28","Sounds/correct.wav","null","1","","","","","","",""
"null","","audio-keyboard-response","336","2598884","0.0-13.0-0.71","a","28","Sounds/car_label.wav","null","1","","","","","","",""
"null","","html-keyboard-response","337","2599874","0.0-13.0-1.71","a","28","<p style=""font-size: 48px;"">+</p>","null","1","","","","","","",""
"1349.4449999416247","","image-keyboard-response","338","2601224","0.0-13.0-2.71","a","28","Images/car_cartoon.png","65","1","1582757318752","match","car","car","label","test","true"
"null","","audio-keyboard-response","339","2603230","0.0-13.0-3.71","a","28","Sounds/correct.wav","null","1","","","","","","",""
"null","","audio-keyboard-response","340","2603924","0.0-13.0-0.72","a","28","Sounds/whistle_sound.wav","null","1","","","","","","",""
"null","","html-keyboard-response","341","2604924","0.0-13.0-1.72","a","28","<p style=""font-size: 48px;"">+</p>","null","1","","","","","","",""
"1187.6199999824166","","image-keyboard-response","342","2606112","0.0-13.0-2.72","a","28","Images/train_orig.png","65","1","1582757323802","non-match","train","whistle","sound","test","false"
"null","","audio-keyboard-response","343","2608117","0.0-13.0-3.72","a","28","Sounds/incorrect.wav","null","1","","","","","","",""
"null","","audio-keyboard-response","344","2608804","0.0-13.0-0.73","a","28","Sounds/rooster_label.wav","null","1","","","","","","",""
"null","","html-keyboard-response","345","2609807","0.0-13.0-1.73","a","28","<p style=""font-size: 48px;"">+</p>","null","1","","","","","","",""
"544.0800000214949","","image-keyboard-response","346","2610352","0.0-13.0-2.73","a","28","Images/rooster_orig.png","65","1","1582757328685","match","rooster","rooster","label","test","true"
"null","","audio-keyboard-response","347","2612361","0.0-13.0-3.73","a","28","Sounds/correct.wav","null","1","","","","","","",""
"null","","audio-keyboard-response","348","2613644","0.0-13.0-0.74","a","28","Sounds/train_label.wav","null","1","","","","","","",""
"null","","html-keyboard-response","349","2614640","0.0-13.0-1.74","a","28","<p style=""font-size: 48px;"">+</p>","null","1","","","","","","",""
"446.0500000277534","","image-keyboard-response","350","2615088","0.0-13.0-2.74","a","28","Images/train_orig.png","76","1","1582757333519","match","train","train","label","test","false"
"null","","audio-keyboard-response","351","2617096","0.0-13.0-3.74","a","28","Sounds/incorrect.wav","null","1","","","","","","",""
"null","","audio-keyboard-response","352","2617784","0.0-13.0-0.75","a","28","Sounds/rooster_sound.wav","null","1","","","","","","",""
"null","","html-keyboard-response","353","2618774","0.0-13.0-1.75","a","28","<p style=""font-size: 48px;"">+</p>","null","1","","","","","","",""
"1097.3249999806285","","image-keyboard-response","354","2619872","0.0-13.0-2.75","a","28","Images/rooster_2.png","65","1","1582757337652","match","rooster","rooster","sound","test","true"
"null","","audio-keyboard-response","355","2621879","0.0-13.0-3.75","a","28","Sounds/correct.wav","null","1","","","","","","",""
"null","","audio-keyboard-response","356","2622463","0.0-13.0-0.76","a","28","Sounds/gun_label.wav","null","1","","","","","","",""
"null","","html-keyboard-response","357","2623457","0.0-13.0-1.76","a","28","<p style=""font-size: 48px;"">+</p>","null","1","","","","","","",""
"725.9049999993294","","image-keyboard-response","358","2624184","0.0-13.0-2.76","a","28","Images/gun_orig.png","65","1","1582757342335","match","gun","gun","label","test","true"
"null","","audio-keyboard-response","359","2626194","0.0-13.0-3.76","a","28","Sounds/correct.wav","null","1","","","","","","",""
"null","","audio-keyboard-response","360","2627504","0.0-13.0-0.77","a","28","Sounds/train_sound.wav","null","1","","","","","","",""
"null","","html-keyboard-response","361","2628507","0.0-13.0-1.77","a","28","<p style=""font-size: 48px;"">+</p>","null","1","","","","","","",""
"1043.7450000317767","","image-keyboard-response","362","2629552","0.0-13.0-2.77","a","28","Images/car_cartoon.png","76","1","1582757347385","non-match","car","train","sound","test","true"
"null","","audio-keyboard-response","363","2631562","0.0-13.0-3.77","a","28","Sounds/correct.wav","null","1","","","","","","",""
"null","","audio-keyboard-response","364","2632844","0.0-13.0-0.78","a","28","Sounds/train_sound.wav","null","1","","","","","","",""
"null","","html-keyboard-response","365","2633841","0.0-13.0-1.78","a","28","<p style=""font-size: 48px;"">+</p>","null","1","","","","","","",""
"534.6650000428781","","image-keyboard-response","366","2634376","0.0-13.0-2.78","a","28","Images/train_2.png","65","1","1582757352719","match","train","train","sound","test","true"
"null","","audio-keyboard-response","367","2636379","0.0-13.0-3.78","a","28","Sounds/correct.wav","null","1","","","","","","",""
"null","","audio-keyboard-response","368","2637644","0.0-13.0-0.79","a","28","Sounds/train_label.wav","null","1","","","","","","",""
"null","","html-keyboard-response","369","2638641","0.0-13.0-1.79","a","28","<p style=""font-size: 48px;"">+</p>","null","1","","","","","","",""
"1110.385000007227","","image-keyboard-response","370","2639752","0.0-13.0-2.79","a","28","Images/dog_1.png","76","1","1582757357519","non-match","dog","train","label","test","true"
"null","","audio-keyboard-response","371","2641760","0.0-13.0-3.79","a","28","Sounds/correct.wav","null","1","","","","","","",""
"null","","audio-keyboard-response","372","2642784","0.0-13.0-0.80","a","28","Sounds/cow_sound.wav","null","1","","","","","","",""
"null","","html-keyboard-response","373","2643774","0.0-13.0-1.80","a","28","<p style=""font-size: 48px;"">+</p>","null","1","","","","","","",""
"1065.1450000004843","","image-keyboard-response","374","2644840","0.0-13.0-2.80","a","28","Images/dog_orig.png","76","1","1582757362652","non-match","dog","cow","sound","test","true"
"null","","audio-keyboard-response","375","2646846","0.0-13.0-3.80","a","28","Sounds/correct.wav","null","1","","","","","","",""
"null","","audio-keyboard-response","376","2647964","0.0-13.0-0.81","a","28","Sounds/motorcycle_sound.wav","null","1","","","","","","",""
"null","","html-keyboard-response","377","2648957","0.0-13.0-1.81","a","28","<p style=""font-size: 48px;"">+</p>","null","1","","","","","","",""
"1025.400000042282","","image-keyboard-response","378","2649984","0.0-13.0-2.81","a","28","Images/whistle_3.png","76","1","1582757367836","non-match","whistle","motorcycle","sound","test","true"
"null","","audio-keyboard-response","379","2651994","0.0-13.0-3.81","a","28","Sounds/correct.wav","null","1","","","","","","",""
"null","","audio-keyboard-response","380","2652584","0.0-13.0-0.82","a","28","Sounds/gun_sound.wav","null","1","","","","","","",""
"null","","html-keyboard-response","381","2653574","0.0-13.0-1.82","a","28","<p style=""font-size: 48px;"">+</p>","null","1","","","","","","",""
"1128.7449999945238","","image-keyboard-response","382","2654704","0.0-13.0-2.82","a","28","Images/train_cartoon.png","76","1","1582757372452","non-match","train","gun","sound","test","true"
"null","","audio-keyboard-response","383","2656715","0.0-13.0-3.82","a","28","Sounds/correct.wav","null","1","","","","","","",""
"null","","audio-keyboard-response","384","2657424","0.0-13.0-0.83","a","28","Sounds/dog_sound.wav","null","1","","","","","","",""
"null","","html-keyboard-response","385","2658424","0.0-13.0-1.83","a","28","<p style=""font-size: 48px;"">+</p>","null","1","","","","","","",""
"423.11000009067357","","image-keyboard-response","386","2658848","0.0-13.0-2.83","a","28","Images/dog_3.png","65","1","1582757377302","match","dog","dog","sound","test","true"
"null","","audio-keyboard-response","387","2660862","0.0-13.0-3.83","a","28","Sounds/correct.wav","null","1","","","","","","",""
"null","","audio-keyboard-response","388","2661404","0.0-13.0-0.84","a","28","Sounds/gun_sound.wav","null","1","","","","","","",""
"null","","html-keyboard-response","389","2662408","0.0-13.0-1.84","a","28","<p style=""font-size: 48px;"">+</p>","null","1","","","","","","",""
"679.3049999978393","","image-keyboard-response","390","2663088","0.0-13.0-2.84","a","28","Images/whistle_cartoon.png","76","1","1582757381286","non-match","whistle","gun","sound","test","true"
"null","","audio-keyboard-response","391","2665096","0.0-13.0-3.84","a","28","Sounds/correct.wav","null","1","","","","","","",""
"null","","audio-keyboard-response","392","2666384","0.0-13.0-0.85","a","28","Sounds/train_sound.wav","null","1","","","","","","",""
"null","","html-keyboard-response","393","2667375","0.0-13.0-1.85","a","28","<p style=""font-size: 48px;"">+</p>","null","1","","","","","","",""
"1214.5149999996647","","image-keyboard-response","394","2668592","0.0-13.0-2.85","a","28","Images/whistle_orig.png","76","1","1582757386253","non-match","whistle","train","sound","test","true"
"null","","audio-keyboard-response","395","2670597","0.0-13.0-3.85","a","28","Sounds/correct.wav","null","1","","","","","","",""
"null","","audio-keyboard-response","396","2671264","0.0-13.0-0.86","a","28","Sounds/dog_label.wav","null","1","","","","","","",""
"null","","html-keyboard-response","397","2672258","0.0-13.0-1.86","a","28","<p style=""font-size: 48px;"">+</p>","null","1","","","","","","",""
"533.350000041537","","image-keyboard-response","398","2672792","0.0-13.0-2.86","a","28","Images/dog_2.png","65","1","1582757391136","match","dog","dog","label","test","true"
"null","","audio-keyboard-response","399","2674812","0.0-13.0-3.86","a","28","Sounds/correct.wav","null","1","","","","","","",""
"null","","audio-keyboard-response","400","2675643","0.0-13.0-0.87","a","28","Sounds/cat_label.wav","null","1","","","","","","",""
"null","","html-keyboard-response","401","2676641","0.0-13.0-1.87","a","28","<p style=""font-size: 48px;"">+</p>","null","1","","","","","","",""
"686.0699999378994","","image-keyboard-response","402","2677328","0.0-13.0-2.87","a","28","Images/rooster_1.png","76","1","1582757395519","non-match","rooster","cat","label","test","true"
"null","","audio-keyboard-response","403","2679345","0.0-13.0-3.87","a","28","Sounds/correct.wav","null","1","","","","","","",""
"null","","audio-keyboard-response","404","2680364","0.0-13.0-0.88","a","28","Sounds/cow_sound.wav","null","1","","","","","","",""
"null","","html-keyboard-response","405","2681358","0.0-13.0-1.88","a","28","<p style=""font-size: 48px;"">+</p>","null","1","","","","","","",""
"945.3500000527129","","image-keyboard-response","406","2682304","0.0-13.0-2.88","a","28","Images/cow_1.png","65","1","1582757400236","match","cow","cow","sound","test","true"
"null","","audio-keyboard-response","407","2684313","0.0-13.0-3.88","a","28","Sounds/correct.wav","null","1","","","","","","",""
"null","","audio-keyboard-response","408","2685004","0.0-13.0-0.89","a","28","Sounds/rooster_sound.wav","null","1","","","","","","",""
"null","","html-keyboard-response","409","2686008","0.0-13.0-1.89","a","28","<p style=""font-size: 48px;"">+</p>","null","1","","","","","","",""
"415.099999983795","","image-keyboard-response","410","2686424","0.0-13.0-2.89","a","28","Images/rooster_1.png","65","1","1582757404886","match","rooster","rooster","sound","test","true"
"null","","audio-keyboard-response","411","2688431","0.0-13.0-3.89","a","28","Sounds/correct.wav","null","1","","","","","","",""
"null","","audio-keyboard-response","412","2689504","0.0-13.0-0.90","a","28","Sounds/car_sound.wav","null","1","","","","","","",""
"null","","html-keyboard-response","413","2690508","0.0-13.0-1.90","a","28","<p style=""font-size: 48px;"">+</p>","null","1","","","","","","",""
"571.195000084117","","image-keyboard-response","414","2691080","0.0-13.0-2.90","a","28","Images/car_1.png","65","1","1582757409386","match","car","car","sound","test","true"
"null","","audio-keyboard-response","415","2693098","0.0-13.0-3.90","a","28","Sounds/correct.wav","null","1","","","","","","",""
"null","","audio-keyboard-response","416","2693924","0.0-13.0-0.91","a","28","Sounds/cat_label.wav","null","1","","","","","","",""
"null","","html-keyboard-response","417","2694958","0.0-13.0-1.91","a","28","<p style=""font-size: 48px;"">+</p>","null","1","","","","","","",""
"593.1199999758974","","image-keyboard-response","418","2695552","0.0-13.0-2.91","a","28","Images/dog_2.png","76","1","1582757413836","non-match","dog","cat","label","test","true"
"null","","audio-keyboard-response","419","2697563","0.0-13.0-3.91","a","28","Sounds/correct.wav","null","1","","","","","","",""
"null","","audio-keyboard-response","420","2698704","0.0-13.0-0.92","a","28","Sounds/motorcycle_label.wav","null","1","","","","","","",""
"null","","html-keyboard-response","421","2699708","0.0-13.0-1.92","a","28","<p style=""font-size: 48px;"">+</p>","null","1","","","","","","",""
"626.9500000635162","","image-keyboard-response","422","2700337","0.0-13.0-2.92","a","28","Images/motorcycle_orig.png","65","1","1582757418586","match","motorcycle","motorcycle","label","test","true"
"null","","audio-keyboard-response","423","2702347","0.0-13.0-3.92","a","28","Sounds/correct.wav","null","1","","","","","","",""
"null","","audio-keyboard-response","424","2703624","0.0-13.0-0.93","a","28","Sounds/train_label.wav","null","1","","","","","","",""
"null","","html-keyboard-response","425","2704642","0.0-13.0-1.93","a","28","<p style=""font-size: 48px;"">+</p>","null","1","","","","","","",""
"637.639999971725","","image-keyboard-response","426","2705280","0.0-13.0-2.93","a","28","Images/frog_1.png","76","1","1582757423520","non-match","frog","train","label","test","true"
"null","","audio-keyboard-response","427","2707298","0.0-13.0-3.93","a","28","Sounds/correct.wav","null","1","","","","","","",""
"null","","audio-keyboard-response","428","2708204","0.0-13.0-0.94","a","28","Sounds/frog_label.wav","null","1","","","","","","",""
"null","","html-keyboard-response","429","2709208","0.0-13.0-1.94","a","28","<p style=""font-size: 48px;"">+</p>","null","1","","","","","","",""
"527.0149999996647","","image-keyboard-response","430","2709736","0.0-13.0-2.94","a","28","Images/cow_orig.png","76","1","1582757428086","non-match","cow","frog","label","test","true"
"null","","audio-keyboard-response","431","2711745","0.0-13.0-3.94","a","28","Sounds/correct.wav","null","1","","","","","","",""
"null","","audio-keyboard-response","432","2713044","0.0-13.0-0.95","a","28","Sounds/train_sound.wav","null","1","","","","","","",""
"null","","html-keyboard-response","433","2714042","0.0-13.0-1.95","a","28","<p style=""font-size: 48px;"">+</p>","null","1","","","","","","",""
"1092.1099999686703","","image-keyboard-response","434","2715136","0.0-13.0-2.95","a","28","Images/rooster_orig.png","76","1","1582757432920","non-match","rooster","train","sound","test","true"
"null","","audio-keyboard-response","435","2717144","0.0-13.0-3.95","a","28","Sounds/correct.wav","null","1","","","","","","",""
"null","","audio-keyboard-response","436","2717804","0.0-13.0-0.96","a","28","Sounds/dog_label.wav","null","1","","","","","","",""
"null","","html-keyboard-response","437","2718808","0.0-13.0-1.96","a","28","<p style=""font-size: 48px;"">+</p>","null","1","","","","","","",""
"838.9200000092387","","image-keyboard-response","438","2719648","0.0-13.0-2.96","a","28","Images/dog_1.png","65","1","1582757437686","match","dog","dog","label","test","true"
"null","","audio-keyboard-response","439","2721663","0.0-13.0-3.96","a","28","Sounds/correct.wav","null","1","","","","","","",""
"null","","audio-keyboard-response","440","2722684","0.0-13.0-0.97","a","28","Sounds/cow_label.wav","null","1","","","","","","",""
"null","","html-keyboard-response","441","2723675","0.0-13.0-1.97","a","28","<p style=""font-size: 48px;"">+</p>","null","1","","","","","","",""
"452.2700000088662","","image-keyboard-response","442","2724128","0.0-13.0-2.97","a","28","Images/cow_2.png","65","1","1582757442553","match","cow","cow","label","test","true"
"null","","audio-keyboard-response","443","2726131","0.0-13.0-3.97","a","28","Sounds/correct.wav","null","1","","","","","","",""
"null","","audio-keyboard-response","444","2727264","0.0-13.0-0.98","a","28","Sounds/motorcycle_label.wav","null","1","","","","","","",""
"null","","html-keyboard-response","445","2728258","0.0-13.0-1.98","a","28","<p style=""font-size: 48px;"">+</p>","null","1","","","","","","",""
"733.1300000660121","","image-keyboard-response","446","2728992","0.0-13.0-2.98","a","28","Images/motorcycle_3.png","65","1","1582757447136","match","motorcycle","motorcycle","label","test","true"
"null","","audio-keyboard-response","447","2730999","0.0-13.0-3.98","a","28","Sounds/correct.wav","null","1","","","","","","",""
"null","","audio-keyboard-response","448","2731984","0.0-13.0-0.99","a","28","Sounds/cow_label.wav","null","1","","","","","","",""
"null","","html-keyboard-response","449","2732975","0.0-13.0-1.99","a","28","<p style=""font-size: 48px;"">+</p>","null","1","","","","","","",""
"368.21499990765005","","image-keyboard-response","450","2733344","0.0-13.0-2.99","a","28","Images/motorcycle_1.png","76","1","1582757451853","non-match","motorcycle","cow","label","test","true"
"null","","audio-keyboard-response","451","2735349","0.0-13.0-3.99","a","28","Sounds/correct.wav","null","1","","","","","","",""
"12482.835000031628","","html-keyboard-response","452","2747832","0.0-14.0","a","28","<p>Please take this opportunity to rest your eyes before proceeding.</p><p>When ready, press the enter key to continue to the next set of trials.</p>","13","","","","","","","",""
"null","","audio-keyboard-response","453","2750977","0.0-15.0-0.0","a","28","Sounds/motorcycle_sound.wav","null","2","","","","","","",""
"null","","html-keyboard-response","454","2751975","0.0-15.0-1.0","a","28","<p style=""font-size: 48px;"">+</p>","null","2","","","","","","",""
"2023.75499997288","","image-keyboard-response","455","2754000","0.0-15.0-2.0","a","28","Images/motorcycle_orig.png","76","2","1582757470853","match","motorcycle","motorcycle","sound","test","false"
"null","","audio-keyboard-response","456","2756003","0.0-15.0-3.0","a","28","Sounds/incorrect.wav","null","2","","","","","","",""
"null","","audio-keyboard-response","457","2756657","0.0-15.0-0.1","a","28","Sounds/dog_label.wav","null","2","","","","","","",""
"null","","html-keyboard-response","458","2757675","0.0-15.0-1.1","a","28","<p style=""font-size: 48px;"">+</p>","null","2","","","","","","",""
"628.1350000062957","","image-keyboard-response","459","2758304","0.0-15.0-2.1","a","28","Images/dog_3.png","65","2","1582757476553","match","dog","dog","label","test","true"
"null","","audio-keyboard-response","460","2760314","0.0-15.0-3.1","a","28","Sounds/correct.wav","null","2","","","","","","",""
"null","","audio-keyboard-response","461","2760937","0.0-15.0-0.2","a","28","Sounds/dog_label.wav","null","2","","","","","","",""
"null","","html-keyboard-response","462","2761925","0.0-15.0-1.2","a","28","<p style=""font-size: 48px;"">+</p>","null","2","","","","","","",""
"529.8450000118464","","image-keyboard-response","463","2762456","0.0-15.0-2.2","a","28","Images/dog_orig.png","65","2","1582757480804","match","dog","dog","label","test","true"
"null","","audio-keyboard-response","464","2764465","0.0-15.0-3.2","a","28","Sounds/correct.wav","null","2","","","","","","",""
"null","","audio-keyboard-response","465","2765477","0.0-15.0-0.3","a","28","Sounds/cow_sound.wav","null","2","","","","","","",""
"null","","html-keyboard-response","466","2766475","0.0-15.0-1.3","a","28","<p style=""font-size: 48px;"">+</p>","null","2","","","","","","",""
"475.6150000030175","","image-keyboard-response","467","2766952","0.0-15.0-2.3","a","28","Images/dog_orig.png","76","2","1582757485353","non-match","dog","cow","sound","test","true"
"null","","audio-keyboard-response","468","2768962","0.0-15.0-3.3","a","28","Sounds/correct.wav","null","2","","","","","","",""
"null","","audio-keyboard-response","469","2769857","0.0-15.0-0.4","a","28","Sounds/frog_label.wav","null","2","","","","","","",""
"null","","html-keyboard-response","470","2770859","0.0-15.0-1.4","a","28","<p style=""font-size: 48px;"">+</p>","null","2","","","","","","",""
"708.3899999270216","","image-keyboard-response","471","2771568","0.0-15.0-2.4","a","28","Images/rooster_1.png","76","2","1582757489737","non-match","rooster","frog","label","test","true"
"null","","audio-keyboard-response","472","2773579","0.0-15.0-3.4","a","28","Sounds/correct.wav","null","2","","","","","","",""
"null","","audio-keyboard-response","473","2774457","0.0-15.0-0.5","a","28","Sounds/frog_label.wav","null","2","","","","","","",""
"null","","html-keyboard-response","474","2775459","0.0-15.0-1.5","a","28","<p style=""font-size: 48px;"">+</p>","null","2","","","","","","",""
"548.2799999881536","","image-keyboard-response","475","2776008","0.0-15.0-2.5","a","28","Images/cat_orig.png","76","2","1582757494337","non-match","cat","frog","label","test","true"
"null","","audio-keyboard-response","476","2778016","0.0-15.0-3.5","a","28","Sounds/correct.wav","null","2","","","","","","",""
"null","","audio-keyboard-response","477","2779037","0.0-15.0-0.6","a","28","Sounds/cow_label.wav","null","2","","","","","","",""
"null","","html-keyboard-response","478","2780042","0.0-15.0-1.6","a","28","<p style=""font-size: 48px;"">+</p>","null","2","","","","","","",""
"708.5800000932068","","image-keyboard-response","479","2780752","0.0-15.0-2.6","a","28","Images/cow_orig.png","65","2","1582757498920","match","cow","cow","label","test","true"
"null","","audio-keyboard-response","480","2782767","0.0-15.0-3.6","a","28","Sounds/correct.wav","null","2","","","","","","",""
"null","","audio-keyboard-response","481","2783457","0.0-15.0-0.7","a","28","Sounds/whistle_sound.wav","null","2","","","","","","",""
"null","","html-keyboard-response","482","2784459","0.0-15.0-1.7","a","28","<p style=""font-size: 48px;"">+</p>","null","2","","","","","","",""
"660.5850000632927","","image-keyboard-response","483","2785120","0.0-15.0-2.7","a","28","Images/whistle_orig.png","76","2","1582757503337","match","whistle","whistle","sound","test","false"
"null","","audio-keyboard-response","484","2787131","0.0-15.0-3.7","a","28","Sounds/incorrect.wav","null","2","","","","","","",""
"null","","audio-keyboard-response","485","2787837","0.0-15.0-0.8","a","28","Sounds/whistle_label.wav","null","2","","","","","","",""
"null","","html-keyboard-response","486","2788826","0.0-15.0-1.8","a","28","<p style=""font-size: 48px;"">+</p>","null","2","","","","","","",""
"565.7699999865144","","image-keyboard-response","487","2789392","0.0-15.0-2.8","a","28","Images/whistle_1.png","65","2","1582757507704","match","whistle","whistle","label","test","true"
"null","","audio-keyboard-response","488","2791398","0.0-15.0-3.8","a","28","Sounds/correct.wav","null","2","","","","","","",""
"null","","audio-keyboard-response","489","2791977","0.0-15.0-0.9","a","28","Sounds/gun_label.wav","null","2","","","","","","",""
"null","","html-keyboard-response","490","2792976","0.0-15.0-1.9","a","28","<p style=""font-size: 48px;"">+</p>","null","2","","","","","","",""
"575.5550001049414","","image-keyboard-response","491","2793552","0.0-15.0-2.9","a","28","Images/train_2.png","76","2","1582757511854","non-match","train","gun","label","test","true"
"null","","audio-keyboard-response","492","2795562","0.0-15.0-3.9","a","28","Sounds/correct.wav","null","2","","","","","","",""
"null","","audio-keyboard-response","493","2796697","0.0-15.0-0.10","a","28","Sounds/motorcycle_label.wav","null","2","","","","","","",""
"null","","html-keyboard-response","494","2797692","0.0-15.0-1.10","a","28","<p style=""font-size: 48px;"">+</p>","null","2","","","","","","",""
"946.6950000496581","","image-keyboard-response","495","2798640","0.0-15.0-2.10","a","28","Images/motorcycle_1.png","65","2","1582757516571","match","motorcycle","motorcycle","label","test","true"
"null","","audio-keyboard-response","496","2800647","0.0-15.0-3.10","a","28","Sounds/correct.wav","null","2","","","","","","",""
"null","","audio-keyboard-response","497","2801557","0.0-15.0-0.11","a","28","Sounds/frog_sound.wav","null","2","","","","","","",""
"null","","html-keyboard-response","498","2802559","0.0-15.0-1.11","a","28","<p style=""font-size: 48px;"">+</p>","null","2","","","","","","",""
"544.0749999834225","","image-keyboard-response","499","2803104","0.0-15.0-2.11","a","28","Images/frog_orig.png","65","2","1582757521437","match","frog","frog","sound","test","true"
"null","","audio-keyboard-response","500","2805116","0.0-15.0-3.11","a","28","Sounds/correct.wav","null","2","","","","","","",""
"null","","audio-keyboard-response","501","2806237","0.0-15.0-0.12","a","28","Sounds/motorcycle_sound.wav","null","2","","","","","","",""
"null","","html-keyboard-response","502","2807243","0.0-15.0-1.12","a","28","<p style=""font-size: 48px;"">+</p>","null","2","","","","","","",""
"580.3349999478087","","image-keyboard-response","503","2807824","0.0-15.0-2.12","a","28","Images/motorcycle_2.png","76","2","1582757526121","match","motorcycle","motorcycle","sound","test","false"
"null","","audio-keyboard-response","504","2809831","0.0-15.0-3.12","a","28","Sounds/incorrect.wav","null","2","","","","","","",""
"null","","audio-keyboard-response","505","2810917","0.0-15.0-0.13","a","28","Sounds/car_sound.wav","null","2","","","","","","",""
"null","","html-keyboard-response","506","2811909","0.0-15.0-1.13","a","28","<p style=""font-size: 48px;"">+</p>","null","2","","","","","","",""
"778.5499999299645","","image-keyboard-response","507","2812689","0.0-15.0-2.13","a","28","Images/car_orig.png","65","2","1582757530787","match","car","car","sound","test","true"
"null","","audio-keyboard-response","508","2814698","0.0-15.0-3.13","a","28","Sounds/correct.wav","null","2","","","","","","",""
"null","","audio-keyboard-response","509","2815597","0.0-15.0-0.14","a","28","Sounds/frog_label.wav","null","2","","","","","","",""
"null","","html-keyboard-response","510","2816593","0.0-15.0-1.14","a","28","<p style=""font-size: 48px;"">+</p>","null","2","","","","","","",""
"781.4100000541657","","image-keyboard-response","511","2817376","0.0-15.0-2.14","a","28","Images/motorcycle_3.png","76","2","1582757535471","non-match","motorcycle","frog","label","test","true"
"null","","audio-keyboard-response","512","2819382","0.0-15.0-3.14","a","28","Sounds/correct.wav","null","2","","","","","","",""
"null","","audio-keyboard-response","513","2820217","0.0-15.0-0.15","a","28","Sounds/cat_label.wav","null","2","","","","","","",""
"null","","html-keyboard-response","514","2821209","0.0-15.0-1.15","a","28","<p style=""font-size: 48px;"">+</p>","null","2","","","","","","",""
"645.7700000610203","","image-keyboard-response","515","2821856","0.0-15.0-2.15","a","28","Images/frog_cartoon.png","76","2","1582757540088","non-match","frog","cat","label","test","true"
"null","","audio-keyboard-response","516","2823864","0.0-15.0-3.15","a","28","Sounds/correct.wav","null","2","","","","","","",""
"null","","audio-keyboard-response","517","2825137","0.0-15.0-0.16","a","28","Sounds/train_label.wav","null","2","","","","","","",""
"null","","html-keyboard-response","518","2826143","0.0-15.0-1.16","a","28","<p style=""font-size: 48px;"">+</p>","null","2","","","","","","",""
"647.3799999803305","","image-keyboard-response","519","2826792","0.0-15.0-2.16","a","28","Images/car_1.png","76","2","1582757545021","non-match","car","train","label","test","true"
"null","","audio-keyboard-response","520","2828799","0.0-15.0-3.16","a","28","Sounds/correct.wav","null","2","","","","","","",""
"null","","audio-keyboard-response","521","2829497","0.0-15.0-0.17","a","28","Sounds/whistle_label.wav","null","2","","","","","","",""
"null","","html-keyboard-response","522","2830493","0.0-15.0-1.17","a","28","<p style=""font-size: 48px;"">+</p>","null","2","","","","","","",""
"714.3200000282377","","image-keyboard-response","523","2831208","0.0-15.0-2.17","a","28","Images/gun_1.png","76","2","1582757549371","non-match","gun","whistle","label","test","true"
"null","","audio-keyboard-response","524","2833217","0.0-15.0-3.17","a","28","Sounds/correct.wav","null","2","","","","","","",""
"null","","audio-keyboard-response","525","2834297","0.0-15.0-0.18","a","28","Sounds/car_sound.wav","null","2","","","","","","",""
"null","","html-keyboard-response","526","2835293","0.0-15.0-1.18","a","28","<p style=""font-size: 48px;"">+</p>","null","2","","","","","","",""
"1650.6949999602512","","image-keyboard-response","527","2836944","0.0-15.0-2.18","a","28","Images/car_cartoon.png","65","2","1582757554171","match","car","car","sound","test","true"
"null","","audio-keyboard-response","528","2838951","0.0-15.0-3.18","a","28","Sounds/correct.wav","null","2","","","","","","",""
"null","","audio-keyboard-response","529","2839977","0.0-15.0-0.19","a","28","Sounds/cow_label.wav","null","2","","","","","","",""
"null","","html-keyboard-response","530","2840976","0.0-15.0-1.19","a","28","<p style=""font-size: 48px;"">+</p>","null","2","","","","","","",""
"511.02500001434237","","image-keyboard-response","531","2841488","0.0-15.0-2.19","a","28","Images/rooster_3.png","76","2","1582757559854","non-match","rooster","cow","label","test","true"
"null","","audio-keyboard-response","532","2843498","0.0-15.0-3.19","a","28","Sounds/correct.wav","null","2","","","","","","",""
"null","","audio-keyboard-response","533","2844197","0.0-15.0-0.20","a","28","Sounds/rooster_label.wav","null","2","","","","","","",""
"null","","html-keyboard-response","534","2845193","0.0-15.0-1.20","a","28","<p style=""font-size: 48px;"">+</p>","null","2","","","","","","",""
"678.2150000799447","","image-keyboard-response","535","2845872","0.0-15.0-2.20","a","28","Images/frog_orig.png","76","2","1582757564071","non-match","frog","rooster","label","test","true"
"null","","audio-keyboard-response","536","2847883","0.0-15.0-3.20","a","28","Sounds/correct.wav","null","2","","","","","","",""
"null","","audio-keyboard-response","537","2848937","0.0-15.0-0.21","a","28","Sounds/car_sound.wav","null","2","","","","","","",""
"null","","html-keyboard-response","538","2849943","0.0-15.0-1.21","a","28","<p style=""font-size: 48px;"">+</p>","null","2","","","","","","",""
"1272.1250000176951","","image-keyboard-response","539","2851216","0.0-15.0-2.21","a","28","Images/dog_1.png","76","2","1582757568821","non-match","dog","car","sound","test","true"
"null","","audio-keyboard-response","540","2853232","0.0-15.0-3.21","a","28","Sounds/correct.wav","null","2","","","","","","",""
"null","","audio-keyboard-response","541","2853937","0.0-15.0-0.22","a","28","Sounds/dog_sound.wav","null","2","","","","","","",""
"null","","html-keyboard-response","542","2854926","0.0-15.0-1.22","a","28","<p style=""font-size: 48px;"">+</p>","null","2","","","","","","",""
"480.98999995272607","","image-keyboard-response","543","2855408","0.0-15.0-2.22","a","28","Images/rooster_orig.png","76","2","1582757573804","non-match","rooster","dog","sound","test","true"
"null","","audio-keyboard-response","544","2857416","0.0-15.0-3.22","a","28","Sounds/correct.wav","null","2","","","","","","",""
"null","","audio-keyboard-response","545","2857997","0.0-15.0-0.23","a","28","Sounds/gun_label.wav","null","2","","","","","","",""
"null","","html-keyboard-response","546","2858993","0.0-15.0-1.23","a","28","<p style=""font-size: 48px;"">+</p>","null","2","","","","","","",""
"622.1150000346825","","image-keyboard-response","547","2859616","0.0-15.0-2.23","a","28","Images/gun_cartoon.png","65","2","1582757577871","match","gun","gun","label","test","true"
"null","","audio-keyboard-response","548","2861630","0.0-15.0-3.23","a","28","Sounds/correct.wav","null","2","","","","","","",""
"null","","audio-keyboard-response","549","2862217","0.0-15.0-0.24","a","28","Sounds/gun_sound.wav","null","2","","","","","","",""
"null","","html-keyboard-response","550","2863210","0.0-15.0-1.24","a","28","<p style=""font-size: 48px;"">+</p>","null","2","","","","","","",""
"685.5199999408796","","image-keyboard-response","551","2863896","0.0-15.0-2.24","a","28","Images/cow_2.png","76","2","1582757582088","non-match","cow","gun","sound","test","true"
"null","","audio-keyboard-response","552","2865907","0.0-15.0-3.24","a","28","Sounds/correct.wav","null","2","","","","","","",""
"null","","audio-keyboard-response","553","2866597","0.0-15.0-0.25","a","28","Sounds/rooster_label.wav","null","2","","","","","","",""
"null","","html-keyboard-response","554","2867593","0.0-15.0-1.25","a","28","<p style=""font-size: 48px;"">+</p>","null","2","","","","","","",""
"558.0649999901652","","image-keyboard-response","555","2868152","0.0-15.0-2.25","a","28","Images/rooster_orig.png","65","2","1582757586471","match","rooster","rooster","label","test","true"
"null","","audio-keyboard-response","556","2870163","0.0-15.0-3.25","a","28","Sounds/correct.wav","null","2","","","","","","",""
"null","","audio-keyboard-response","557","2871177","0.0-15.0-0.26","a","28","Sounds/cow_sound.wav","null","2","","","","","","",""
"null","","html-keyboard-response","558","2872176","0.0-15.0-1.26","a","28","<p style=""font-size: 48px;"">+</p>","null","2","","","","","","",""
"1174.5450000744313","","image-keyboard-response","559","2873352","0.0-15.0-2.26","a","28","Images/cow_1.png","65","2","1582757591054","match","cow","cow","sound","test","true"
"null","","audio-keyboard-response","560","2875365","0.0-15.0-3.26","a","28","Sounds/correct.wav","null","2","","","","","","",""
"null","","audio-keyboard-response","561","2876057","0.0-15.0-0.27","a","28","Sounds/whistle_sound.wav","null","2","","","","","","",""
"null","","html-keyboard-response","562","2877060","0.0-15.0-1.27","a","28","<p style=""font-size: 48px;"">+</p>","null","2","","","","","","",""
"707.2700000135228","","image-keyboard-response","563","2877768","0.0-15.0-2.27","a","28","Images/cow_orig.png","76","2","1582757595938","non-match","cow","whistle","sound","test","true"
"null","","audio-keyboard-response","564","2879781","0.0-15.0-3.27","a","28","Sounds/correct.wav","null","2","","","","","","",""
"null","","audio-keyboard-response","565","2880857","0.0-15.0-0.28","a","28","Sounds/car_label.wav","null","2","","","","","","",""
"null","","html-keyboard-response","566","2881860","0.0-15.0-1.28","a","28","<p style=""font-size: 48px;"">+</p>","null","2","","","","","","",""
"731.4499999629334","","image-keyboard-response","567","2882592","0.0-15.0-2.28","a","28","Images/train_3.png","76","2","1582757600738","non-match","train","car","label","test","true"
"null","","audio-keyboard-response","568","2884604","0.0-15.0-3.28","a","28","Sounds/correct.wav","null","2","","","","","","",""
"null","","audio-keyboard-response","569","2885717","0.0-15.0-0.29","a","28","Sounds/motorcycle_sound.wav","null","2","","","","","","",""
"null","","html-keyboard-response","570","2886710","0.0-15.0-1.29","a","28","<p style=""font-size: 48px;"">+</p>","null","2","","","","","","",""
"953.6349999252707","","image-keyboard-response","571","2887664","0.0-15.0-2.29","a","28","Images/whistle_3.png","76","2","1582757605588","non-match","whistle","motorcycle","sound","test","true"
"null","","audio-keyboard-response","572","2889682","0.0-15.0-3.29","a","28","Sounds/correct.wav","null","2","","","","","","",""
"null","","audio-keyboard-response","573","2890517","0.0-15.0-0.30","a","28","Sounds/cat_sound.wav","null","2","","","","","","",""
"null","","html-keyboard-response","574","2891510","0.0-15.0-1.30","a","28","<p style=""font-size: 48px;"">+</p>","null","2","","","","","","",""
"849.4150000624359","","image-keyboard-response","575","2892360","0.0-15.0-2.30","a","28","Images/motorcycle_orig.png","76","2","1582757610388","non-match","motorcycle","cat","sound","test","true"
"null","","audio-keyboard-response","576","2894364","0.0-15.0-3.30","a","28","Sounds/correct.wav","null","2","","","","","","",""
"null","","audio-keyboard-response","577","2895277","0.0-15.0-0.31","a","28","Sounds/frog_sound.wav","null","2","","","","","","",""
"null","","html-keyboard-response","578","2896276","0.0-15.0-1.31","a","28","<p style=""font-size: 48px;"">+</p>","null","2","","","","","","",""
"458.45500007271767","","image-keyboard-response","579","2896736","0.0-15.0-2.31","a","28","Images/frog_cartoon.png","65","2","1582757615155","match","frog","frog","sound","test","true"
"null","","audio-keyboard-response","580","2898746","0.0-15.0-3.31","a","28","Sounds/correct.wav","null","2","","","","","","",""
"null","","audio-keyboard-response","581","2900017","0.0-15.0-0.32","a","28","Sounds/train_label.wav","null","2","","","","","","",""
"null","","html-keyboard-response","582","2901010","0.0-15.0-1.32","a","28","<p style=""font-size: 48px;"">+</p>","null","2","","","","","","",""
"1052.9849999584258","","image-keyboard-response","583","2902064","0.0-15.0-2.32","a","28","Images/rooster_cartoon.png","76","2","1582757619888","non-match","rooster","train","label","test","true"
"null","","audio-keyboard-response","584","2904081","0.0-15.0-3.32","a","28","Sounds/correct.wav","null","2","","","","","","",""
"null","","audio-keyboard-response","585","2905157","0.0-15.0-0.33","a","28","Sounds/car_label.wav","null","2","","","","","","",""
"null","","html-keyboard-response","586","2906160","0.0-15.0-1.33","a","28","<p style=""font-size: 48px;"">+</p>","null","2","","","","","","",""
"551.1799999512732","","image-keyboard-response","587","2906712","0.0-15.0-2.33","a","28","Images/rooster_2.png","76","2","1582757625038","non-match","rooster","car","label","test","true"
"null","","audio-keyboard-response","588","2908715","0.0-15.0-3.33","a","28","Sounds/correct.wav","null","2","","","","","","",""
"null","","audio-keyboard-response","589","2909797","0.0-15.0-0.34","a","28","Sounds/car_sound.wav","null","2","","","","","","",""
"null","","html-keyboard-response","590","2910794","0.0-15.0-1.34","a","28","<p style=""font-size: 48px;"">+</p>","null","2","","","","","","",""
"549.6099999872968","","image-keyboard-response","591","2911344","0.0-15.0-2.34","a","28","Images/whistle_cartoon.png","76","2","1582757629672","non-match","whistle","car","sound","test","true"
"null","","audio-keyboard-response","592","2913349","0.0-15.0-3.34","a","28","Sounds/correct.wav","null","2","","","","","","",""
"null","","audio-keyboard-response","593","2914177","0.0-15.0-0.35","a","28","Sounds/cat_label.wav","null","2","","","","","","",""
"null","","html-keyboard-response","594","2915177","0.0-15.0-1.35","a","28","<p style=""font-size: 48px;"">+</p>","null","2","","","","","","",""
"510.17999998293817","","image-keyboard-response","595","2915688","0.0-15.0-2.35","a","28","Images/dog_2.png","76","2","1582757634055","non-match","dog","cat","label","test","true"
"null","","audio-keyboard-response","596","2917697","0.0-15.0-3.35","a","28","Sounds/correct.wav","null","2","","","","","","",""
"null","","audio-keyboard-response","597","2918517","0.0-15.0-0.36","a","28","Sounds/cat_label.wav","null","2","","","","","","",""
"null","","html-keyboard-response","598","2919510","0.0-15.0-1.36","a","28","<p style=""font-size: 48px;"">+</p>","null","2","","","","","","",""
"417.1299999579787","","image-keyboard-response","599","2919928","0.0-15.0-2.36","a","28","Images/cat_3.png","65","2","1582757638388","match","cat","cat","label","test","true"
"null","","audio-keyboard-response","600","2921932","0.0-15.0-3.36","a","28","Sounds/correct.wav","null","2","","","","","","",""
"null","","audio-keyboard-response","601","2922637","0.0-15.0-0.37","a","28","Sounds/rooster_sound.wav","null","2","","","","","","",""
"null","","html-keyboard-response","602","2923627","0.0-15.0-1.37","a","28","<p style=""font-size: 48px;"">+</p>","null","2","","","","","","",""
"420.0349999591708","","image-keyboard-response","603","2924048","0.0-15.0-2.37","a","28","Images/dog_3.png","76","2","1582757642505","non-match","dog","rooster","sound","test","true"
"null","","audio-keyboard-response","604","2926064","0.0-15.0-3.37","a","28","Sounds/correct.wav","null","2","","","","","","",""
"null","","audio-keyboard-response","605","2927117","0.0-15.0-0.38","a","28","Sounds/car_sound.wav","null","2","","","","","","",""
"null","","html-keyboard-response","606","2928110","0.0-15.0-1.38","a","28","<p style=""font-size: 48px;"">+</p>","null","2","","","","","","",""
"919.6499999379739","","image-keyboard-response","607","2929032","0.0-15.0-2.38","a","28","Images/car_3.png","65","2","1582757646988","match","car","car","sound","test","true"
"null","","audio-keyboard-response","608","2931050","0.0-15.0-3.38","a","28","Sounds/correct.wav","null","2","","","","","","",""
"null","","audio-keyboard-response","609","2932177","0.0-15.0-0.39","a","28","Sounds/motorcycle_sound.wav","null","2","","","","","","",""
"null","","html-keyboard-response","610","2933177","0.0-15.0-1.39","a","28","<p style=""font-size: 48px;"">+</p>","null","2","","","","","","",""
"766.304999939166","","image-keyboard-response","611","2933944","0.0-15.0-2.39","a","28","Images/motorcycle_cartoon.png","76","2","1582757652055","match","motorcycle","motorcycle","sound","test","false"
"null","","audio-keyboard-response","612","2935949","0.0-15.0-3.39","a","28","Sounds/incorrect.wav","null","2","","","","","","",""
"null","","audio-keyboard-response","613","2937097","0.0-15.0-0.40","a","28","Sounds/motorcycle_label.wav","null","2","","","","","","",""
"null","","html-keyboard-response","614","2938094","0.0-15.0-1.40","a","28","<p style=""font-size: 48px;"">+</p>","null","2","","","","","","",""
"737.2299999697134","","image-keyboard-response","615","2938832","0.0-15.0-2.40","a","28","Images/cat_3.png","76","2","1582757656972","non-match","cat","motorcycle","label","test","true"
"null","","audio-keyboard-response","616","2940848","0.0-15.0-3.40","a","28","Sounds/correct.wav","null","2","","","","","","",""
"null","","audio-keyboard-response","617","2941897","0.0-15.0-0.41","a","28","Sounds/car_sound.wav","null","2","","","","","","",""
"null","","html-keyboard-response","618","2942894","0.0-15.0-1.41","a","28","<p style=""font-size: 48px;"">+</p>","null","2","","","","","","",""
"856.7299999995157","","image-keyboard-response","619","2943752","0.0-15.0-2.41","a","28","Images/frog_2.png","76","2","1582757661772","non-match","frog","car","sound","test","true"
"null","","audio-keyboard-response","620","2945764","0.0-15.0-3.41","a","28","Sounds/correct.wav","null","2","","","","","","",""
"null","","audio-keyboard-response","621","2946337","0.0-15.0-0.42","a","28","Sounds/gun_sound.wav","null","2","","","","","","",""
"null","","html-keyboard-response","622","2947327","0.0-15.0-1.42","a","28","<p style=""font-size: 48px;"">+</p>","null","2","","","","","","",""
"703.9649999933317","","image-keyboard-response","623","2948032","0.0-15.0-2.42","a","28","Images/whistle_orig.png","76","2","1582757666205","non-match","whistle","gun","sound","test","true"
"null","","audio-keyboard-response","624","2950042","0.0-15.0-3.42","a","28","Sounds/correct.wav","null","2","","","","","","",""
"null","","audio-keyboard-response","625","2951057","0.0-15.0-0.43","a","28","Sounds/cow_sound.wav","null","2","","","","","","",""
"null","","html-keyboard-response","626","2952060","0.0-15.0-1.43","a","28","<p style=""font-size: 48px;"">+</p>","null","2","","","","","","",""
"842.8449999773875","","image-keyboard-response","627","2952904","0.0-15.0-2.43","a","28","Images/cat_2.png","76","2","1582757670939","non-match","cat","cow","sound","test","true"
"null","","audio-keyboard-response","628","2954914","0.0-15.0-3.43","a","28","Sounds/correct.wav","null","2","","","","","","",""
"null","","audio-keyboard-response","629","2955757","0.0-15.0-0.44","a","28","Sounds/cat_sound.wav","null","2","","","","","","",""
"null","","html-keyboard-response","630","2956761","0.0-15.0-1.44","a","28","<p style=""font-size: 48px;"">+</p>","null","2","","","","","","",""
"774.5949999662116","","image-keyboard-response","631","2957536","0.0-15.0-2.44","a","28","Images/cat_cartoon.png","65","2","1582757675639","match","cat","cat","sound","test","true"
"null","","audio-keyboard-response","632","2959547","0.0-15.0-3.44","a","28","Sounds/correct.wav","null","2","","","","","","",""
"null","","audio-keyboard-response","633","2960097","0.0-15.0-0.45","a","28","Sounds/gun_sound.wav","null","2","","","","","","",""
"null","","html-keyboard-response","634","2961094","0.0-15.0-1.45","a","28","<p style=""font-size: 48px;"">+</p>","null","2","","","","","","",""
"1697.1350000239909","","image-keyboard-response","635","2962792","0.0-15.0-2.45","a","28","Images/gun_3.png","65","2","1582757679972","match","gun","gun","sound","test","true"
"null","","audio-keyboard-response","636","2964803","0.0-15.0-3.45","a","28","Sounds/correct.wav","null","2","","","","","","",""
"null","","audio-keyboard-response","637","2965877","0.0-15.0-0.46","a","28","Sounds/car_sound.wav","null","2","","","","","","",""
"null","","html-keyboard-response","638","2966894","0.0-15.0-1.46","a","28","<p style=""font-size: 48px;"">+</p>","null","2","","","","","","",""
"649.1249999962747","","image-keyboard-response","639","2967544","0.0-15.0-2.46","a","28","Images/cat_cartoon.png","76","2","1582757685772","non-match","cat","car","sound","test","true"
"null","","audio-keyboard-response","640","2969551","0.0-15.0-3.46","a","28","Sounds/correct.wav","null","2","","","","","","",""
"null","","audio-keyboard-response","641","2970217","0.0-15.0-0.47","a","28","Sounds/dog_label.wav","null","2","","","","","","",""
"null","","html-keyboard-response","642","2971211","0.0-15.0-1.47","a","28","<p style=""font-size: 48px;"">+</p>","null","2","","","","","","",""
"428.1499999342486","","image-keyboard-response","643","2971640","0.0-15.0-2.47","a","28","Images/gun_orig.png","76","2","1582757690089","non-match","gun","dog","label","test","true"
"null","","audio-keyboard-response","644","2973662","0.0-15.0-3.47","a","28","Sounds/correct.wav","null","2","","","","","","",""
"null","","audio-keyboard-response","645","2974557","0.0-15.0-0.48","a","28","Sounds/frog_sound.wav","null","2","","","","","","",""
"null","","html-keyboard-response","646","2975561","0.0-15.0-1.48","a","28","<p style=""font-size: 48px;"">+</p>","null","2","","","","","","",""
"614.0899999300018","","image-keyboard-response","647","2976176","0.0-15.0-2.48","a","28","Images/frog_3.png","65","2","1582757694439","match","frog","frog","sound","test","true"
"null","","audio-keyboard-response","648","2978184","0.0-15.0-3.48","a","28","Sounds/correct.wav","null","2","","","","","","",""
"null","","audio-keyboard-response","649","2978877","0.0-15.0-0.49","a","28","Sounds/whistle_sound.wav","null","2","","","","","","",""
"null","","html-keyboard-response","650","2979894","0.0-15.0-1.49","a","28","<p style=""font-size: 48px;"">+</p>","null","2","","","","","","",""
"807.6949999667704","","image-keyboard-response","651","2980704","0.0-15.0-2.49","a","28","Images/motorcycle_cartoon.png","76","2","1582757698772","non-match","motorcycle","whistle","sound","test","true"
"null","","audio-keyboard-response","652","2982716","0.0-15.0-3.49","a","28","Sounds/correct.wav","null","2","","","","","","",""
"null","","audio-keyboard-response","653","2983417","0.0-15.0-0.50","a","28","Sounds/rooster_label.wav","null","2","","","","","","",""
"null","","html-keyboard-response","654","2984411","0.0-15.0-1.50","a","28","<p style=""font-size: 48px;"">+</p>","null","2","","","","","","",""
"964.1899999696761","","image-keyboard-response","655","2985376","0.0-15.0-2.50","a","28","Images/car_3.png","76","2","1582757703289","non-match","car","rooster","label","test","true"
"null","","audio-keyboard-response","656","2987384","0.0-15.0-3.50","a","28","Sounds/correct.wav","null","2","","","","","","",""
"null","","audio-keyboard-response","657","2988397","0.0-15.0-0.51","a","28","Sounds/cow_sound.wav","null","2","","","","","","",""
