"rt","responses","trial_type","trial_index","time_elapsed","internal_node_id","match_key","participant_id","stimulus","key_press","block","stim_onset","match_type","image_category","sound_category","audio_type","phase","correct"
"24955.06499998737","{""Q0"":""COGS219_2020_25""}","survey-text","0","24983","0.0-0.0","a","COGS219_2020_25","","","","","","","","","",""
"40734.48000010103","","html-keyboard-response","1","65728","0.0-1.0","a","COGS219_2020_25","<p>Use KEYBOARD 2 (match LEFT)</p><p>Press MATCH to continue.</p>","65","","","","","","","",""
"2326933.9599999366","","html-keyboard-response","2","2392504","0.0-2.0","a","COGS219_2020_25","<p>Welcome to the experiment.</p>","39","","","","","","","",""
"8696.430000010878","","html-keyboard-response","3","2401206","0.0-3.0","a","COGS219_2020_25","<p>Thank you for agreeing to participate in this study.</p><p>If during any part of the procedure you must stop for any reason, please inform the researcher that you do not wish to continue.</p>","39","","","","","","","",""
"22280.00999998767","","html-keyboard-response","4","2423487","0.0-4.0","a","COGS219_2020_25","<p>In this experiment, you will hear various words or sounds and see pictures of various animals and objects.</p><p>Most of the images will be of common everyday objects, such as cars, cats, cows, firearms, frogs, chickens, whistles, trains, motorcycles, and dogs.</p><p>Some of the images will be real-life stills, while others will be cartoons.</p>","39","","","","","","","",""
"13357.970000011846","","html-keyboard-response","5","2436846","0.0-5.0","a","COGS219_2020_25","<p>Sometimes, the word/sound will match the picture, for example you'll hear a meowing sound and see a cat.</p><p>Other times, the picture will not match the sound or word.</p><p>Your task is to decide as quickly as possible if the word/sound matches the picture or not. </p>","39","","","","","","","",""
"13070.874999975786","","html-keyboard-response","6","2449918","0.0-6.0","a","COGS219_2020_25","<p>For example, if you hear the word ""cat"" or hear a meowing sound, and then see a picture of a cat, you should press the MATCH key.</p><p> If the sound and image do not match, press the NOT-MATCH key to indicate that there is not a match.</p>","39","","","","","","","",""
"13966.814999934286","","html-keyboard-response","7","2463886","0.0-7.0","a","COGS219_2020_25","<p>If you make a mistake, you will hear a buzzing sound instead of a more pleasant sound.</p><p> Try to respond as quickly as possible, while making as few errors as possible. If you are making mistakes, you are probably rushing.</p>","39","","","","","","","",""
"35391.654999926686","","html-keyboard-response","8","2499279","0.0-8.0","a","COGS219_2020_25","<p>Please try to not move or blink your eyes during the presentation of the images. You can move and blink between images.</p><p>During the experiment there will be some breaks during which you can rest your eyes.</p>","39","","","","","","","",""
"13926.020000013523","","html-keyboard-response","9","2513206","0.0-9.0","a","COGS219_2020_25","<p>We will begin with 10 practice trials. Please let the experimenter know if you have any questions.</p>","76","","","","","","","",""
"null","","audio-keyboard-response","10","2514410","0.0-10.0-0.0","a","COGS219_2020_25","Sounds/motorcycle_sound.wav","null","0","","","","","","",""
"null","","html-keyboard-response","11","2515405","0.0-10.0-1.0","a","COGS219_2020_25","<p style=""font-size: 48px;"">+</p>","null","0","","","","","","",""
"1286.8550000712276","","image-keyboard-response","12","2516694","0.0-10.0-2.0","a","COGS219_2020_25","Images/motorcycle_3.png","65","0","1582508845639","match","motorcycle","motorcycle","sound","practice","true"
"null","","audio-keyboard-response","13","2518710","0.0-10.0-3.0","a","COGS219_2020_25","Sounds/correct.wav","null","0","","","","","","",""
"null","","audio-keyboard-response","14","2519289","0.0-10.0-0.1","a","COGS219_2020_25","Sounds/gun_sound.wav","null","0","","","","","","",""
"null","","html-keyboard-response","15","2520288","0.0-10.0-1.1","a","COGS219_2020_25","<p style=""font-size: 48px;"">+</p>","null","0","","","","","","",""
"924.2249999660999","","image-keyboard-response","16","2521214","0.0-10.0-2.1","a","COGS219_2020_25","Images/gun_1.png","65","0","1582508850522","match","gun","gun","sound","practice","true"
"null","","audio-keyboard-response","17","2523220","0.0-10.0-3.1","a","COGS219_2020_25","Sounds/correct.wav","null","0","","","","","","",""
"null","","audio-keyboard-response","18","2524310","0.0-10.0-0.2","a","COGS219_2020_25","Sounds/motorcycle_sound.wav","null","0","","","","","","",""
"null","","html-keyboard-response","19","2525306","0.0-10.0-1.2","a","COGS219_2020_25","<p style=""font-size: 48px;"">+</p>","null","0","","","","","","",""
"402.6399999856949","","image-keyboard-response","20","2525711","0.0-10.0-2.2","a","COGS219_2020_25","Images/car_1.png","76","0","1582508855540","non-match","car","motorcycle","sound","practice","true"
"null","","audio-keyboard-response","21","2527724","0.0-10.0-3.2","a","COGS219_2020_25","Sounds/correct.wav","null","0","","","","","","",""
"null","","audio-keyboard-response","22","2529010","0.0-10.0-0.3","a","COGS219_2020_25","Sounds/train_label.wav","null","0","","","","","","",""
"null","","html-keyboard-response","23","2530006","0.0-10.0-1.3","a","COGS219_2020_25","<p style=""font-size: 48px;"">+</p>","null","0","","","","","","",""
"863.4300000267103","","image-keyboard-response","24","2530870","0.0-10.0-2.3","a","COGS219_2020_25","Images/cat_3.png","76","0","1582508860240","non-match","cat","train","label","practice","true"
"null","","audio-keyboard-response","25","2532874","0.0-10.0-3.3","a","COGS219_2020_25","Sounds/correct.wav","null","0","","","","","","",""
"null","","audio-keyboard-response","26","2533950","0.0-10.0-0.4","a","COGS219_2020_25","Sounds/car_sound.wav","null","0","","","","","","",""
"null","","html-keyboard-response","27","2534956","0.0-10.0-1.4","a","COGS219_2020_25","<p style=""font-size: 48px;"">+</p>","null","0","","","","","","",""
"737.2050000121817","","image-keyboard-response","28","2535695","0.0-10.0-2.4","a","COGS219_2020_25","Images/whistle_2.png","76","0","1582508865190","non-match","whistle","car","sound","practice","true"
"null","","audio-keyboard-response","29","2537698","0.0-10.0-3.4","a","COGS219_2020_25","Sounds/correct.wav","null","0","","","","","","",""
"null","","audio-keyboard-response","30","2538270","0.0-10.0-0.5","a","COGS219_2020_25","Sounds/gun_label.wav","null","0","","","","","","",""
"null","","html-keyboard-response","31","2539273","0.0-10.0-1.5","a","COGS219_2020_25","<p style=""font-size: 48px;"">+</p>","null","0","","","","","","",""
"540.8299999544397","","image-keyboard-response","32","2539815","0.0-10.0-2.5","a","COGS219_2020_25","Images/rooster_3.png","76","0","1582508869507","non-match","rooster","gun","label","practice","true"
"null","","audio-keyboard-response","33","2541830","0.0-10.0-3.5","a","COGS219_2020_25","Sounds/correct.wav","null","0","","","","","","",""
"null","","audio-keyboard-response","34","2542530","0.0-10.0-0.6","a","COGS219_2020_25","Sounds/dog_sound.wav","null","0","","","","","","",""
"null","","html-keyboard-response","35","2543523","0.0-10.0-1.6","a","COGS219_2020_25","<p style=""font-size: 48px;"">+</p>","null","0","","","","","","",""
"770.6949999555945","","image-keyboard-response","36","2544295","0.0-10.0-2.6","a","COGS219_2020_25","Images/cat_2.png","76","0","1582508873757","non-match","cat","dog","sound","practice","true"
"null","","audio-keyboard-response","37","2546312","0.0-10.0-3.6","a","COGS219_2020_25","Sounds/correct.wav","null","0","","","","","","",""
"null","","audio-keyboard-response","38","2547150","0.0-10.0-0.7","a","COGS219_2020_25","Sounds/cat_label.wav","null","0","","","","","","",""
"null","","html-keyboard-response","39","2548139","0.0-10.0-1.7","a","COGS219_2020_25","<p style=""font-size: 48px;"">+</p>","null","0","","","","","","",""
"481.87499993946403","","image-keyboard-response","40","2548622","0.0-10.0-2.7","a","COGS219_2020_25","Images/cat_orig.png","65","0","1582508878374","match","cat","cat","label","practice","true"
"null","","audio-keyboard-response","41","2550640","0.0-10.0-3.7","a","COGS219_2020_25","Sounds/correct.wav","null","0","","","","","","",""
"null","","audio-keyboard-response","42","2551450","0.0-10.0-0.8","a","COGS219_2020_25","Sounds/cat_label.wav","null","0","","","","","","",""
"null","","html-keyboard-response","43","2552440","0.0-10.0-1.8","a","COGS219_2020_25","<p style=""font-size: 48px;"">+</p>","null","0","","","","","","",""
"390.10999992024153","","image-keyboard-response","44","2552831","0.0-10.0-2.8","a","COGS219_2020_25","Images/whistle_1.png","76","0","1582508882674","non-match","whistle","cat","label","practice","true"
"null","","audio-keyboard-response","45","2554843","0.0-10.0-3.8","a","COGS219_2020_25","Sounds/correct.wav","null","0","","","","","","",""
"null","","audio-keyboard-response","46","2555550","0.0-10.0-0.9","a","COGS219_2020_25","Sounds/whistle_label.wav","null","0","","","","","","",""
"null","","html-keyboard-response","47","2556540","0.0-10.0-1.9","a","COGS219_2020_25","<p style=""font-size: 48px;"">+</p>","null","0","","","","","","",""
"505.9450000990182","","image-keyboard-response","48","2557047","0.0-10.0-2.9","a","COGS219_2020_25","Images/car_3.png","76","0","1582508886774","non-match","car","whistle","label","practice","true"
"null","","audio-keyboard-response","49","2559050","0.0-10.0-3.9","a","COGS219_2020_25","Sounds/correct.wav","null","0","","","","","","",""
"29028.84499996435","","html-keyboard-response","50","2588076","0.0-11.0","a","COGS219_2020_25","<p>The rest of the experiment is divided into five blocks with 100 trials in each block. It will take about 45 minutes to complete.</p><p>The experimenter will be in the outer room and you can communicate with them through the monitor if you have any questions or wish to stop the experiment.</p>","76","","","","","","","",""
"8326.100000063889","","html-keyboard-response","51","2596404","0.0-12.0","a","COGS219_2020_25","<p>Remember, please try not to move or blink your eyes during the presentation of the images. </p><p>At the end of the experiment, we will show you your scores on the task so you can see how you did.</p><p>The experiment will start on the next screen.</p>","76","","","","","","","",""
"null","","audio-keyboard-response","52","2599502","0.0-13.0-0.0","a","COGS219_2020_25","Sounds/car_sound.wav","null","1","","","","","","",""
"null","","html-keyboard-response","53","2600521","0.0-13.0-1.0","a","COGS219_2020_25","<p style=""font-size: 48px;"">+</p>","null","1","","","","","","",""
"634.2550000408664","","image-keyboard-response","54","2601156","0.0-13.0-2.0","a","COGS219_2020_25","Images/cow_1.png","76","1","1582508930754","non-match","cow","car","sound","test","true"
"null","","audio-keyboard-response","55","2603159","0.0-13.0-3.0","a","COGS219_2020_25","Sounds/correct.wav","null","1","","","","","","",""
"null","","audio-keyboard-response","56","2603863","0.0-13.0-0.1","a","COGS219_2020_25","Sounds/whistle_label.wav","null","1","","","","","","",""
"null","","html-keyboard-response","57","2604854","0.0-13.0-1.1","a","COGS219_2020_25","<p style=""font-size: 48px;"">+</p>","null","1","","","","","","",""
"572.7050000568852","","image-keyboard-response","58","2605427","0.0-13.0-2.1","a","COGS219_2020_25","Images/whistle_3.png","65","1","1582508935088","match","whistle","whistle","label","test","true"
"null","","audio-keyboard-response","59","2607443","0.0-13.0-3.1","a","COGS219_2020_25","Sounds/correct.wav","null","1","","","","","","",""
"null","","audio-keyboard-response","60","2608122","0.0-13.0-0.2","a","COGS219_2020_25","Sounds/whistle_label.wav","null","1","","","","","","",""
"null","","html-keyboard-response","61","2609120","0.0-13.0-1.2","a","COGS219_2020_25","<p style=""font-size: 48px;"">+</p>","null","1","","","","","","",""
"514.1649999422953","","image-keyboard-response","62","2609636","0.0-13.0-2.2","a","COGS219_2020_25","Images/whistle_orig.png","65","1","1582508939354","match","whistle","whistle","label","test","true"
"null","","audio-keyboard-response","63","2611646","0.0-13.0-3.2","a","COGS219_2020_25","Sounds/correct.wav","null","1","","","","","","",""
"null","","audio-keyboard-response","64","2612362","0.0-13.0-0.3","a","COGS219_2020_25","Sounds/dog_sound.wav","null","1","","","","","","",""
"null","","html-keyboard-response","65","2613354","0.0-13.0-1.3","a","COGS219_2020_25","<p style=""font-size: 48px;"">+</p>","null","1","","","","","","",""
"520.5699999351054","","image-keyboard-response","66","2613875","0.0-13.0-2.3","a","COGS219_2020_25","Images/cat_cartoon.png","76","1","1582508943588","non-match","cat","dog","sound","test","true"
"null","","audio-keyboard-response","67","2615879","0.0-13.0-3.3","a","COGS219_2020_25","Sounds/correct.wav","null","1","","","","","","",""
"null","","audio-keyboard-response","68","2616542","0.0-13.0-0.4","a","COGS219_2020_25","Sounds/whistle_label.wav","null","1","","","","","","",""
"null","","html-keyboard-response","69","2617537","0.0-13.0-1.4","a","COGS219_2020_25","<p style=""font-size: 48px;"">+</p>","null","1","","","","","","",""
"625.0950000248849","","image-keyboard-response","70","2618163","0.0-13.0-2.4","a","COGS219_2020_25","Images/whistle_cartoon.png","65","1","1582508947771","match","whistle","whistle","label","test","true"
"null","","audio-keyboard-response","71","2620172","0.0-13.0-3.4","a","COGS219_2020_25","Sounds/correct.wav","null","1","","","","","","",""
"null","","audio-keyboard-response","72","2620862","0.0-13.0-0.5","a","COGS219_2020_25","Sounds/rooster_label.wav","null","1","","","","","","",""
"null","","html-keyboard-response","73","2621854","0.0-13.0-1.5","a","COGS219_2020_25","<p style=""font-size: 48px;"">+</p>","null","1","","","","","","",""
"500.39500009734184","","image-keyboard-response","74","2622355","0.0-13.0-2.5","a","COGS219_2020_25","Images/dog_orig.png","76","1","1582508952088","non-match","dog","rooster","label","test","true"
"null","","audio-keyboard-response","75","2624364","0.0-13.0-3.5","a","COGS219_2020_25","Sounds/correct.wav","null","1","","","","","","",""
"null","","audio-keyboard-response","76","2625642","0.0-13.0-0.6","a","COGS219_2020_25","Sounds/train_label.wav","null","1","","","","","","",""
"null","","html-keyboard-response","77","2626637","0.0-13.0-1.6","a","COGS219_2020_25","<p style=""font-size: 48px;"">+</p>","null","1","","","","","","",""
"492.824999964796","","image-keyboard-response","78","2627132","0.0-13.0-2.6","a","COGS219_2020_25","Images/car_orig.png","76","1","1582508956871","non-match","car","train","label","test","true"
"null","","audio-keyboard-response","79","2629148","0.0-13.0-3.6","a","COGS219_2020_25","Sounds/correct.wav","null","1","","","","","","",""
"null","","audio-keyboard-response","80","2630222","0.0-13.0-0.7","a","COGS219_2020_25","Sounds/car_sound.wav","null","1","","","","","","",""
"null","","html-keyboard-response","81","2631221","0.0-13.0-1.7","a","COGS219_2020_25","<p style=""font-size: 48px;"">+</p>","null","1","","","","","","",""
"701.9800000125542","","image-keyboard-response","82","2631924","0.0-13.0-2.7","a","COGS219_2020_25","Images/train_cartoon.png","76","1","1582508961455","non-match","train","car","sound","test","true"
"null","","audio-keyboard-response","83","2633935","0.0-13.0-3.7","a","COGS219_2020_25","Sounds/correct.wav","null","1","","","","","","",""
"null","","audio-keyboard-response","84","2634602","0.0-13.0-0.8","a","COGS219_2020_25","Sounds/dog_label.wav","null","1","","","","","","",""
"null","","html-keyboard-response","85","2635604","0.0-13.0-1.8","a","COGS219_2020_25","<p style=""font-size: 48px;"">+</p>","null","1","","","","","","",""
"550.4750000545755","","image-keyboard-response","86","2636156","0.0-13.0-2.8","a","COGS219_2020_25","Images/cow_2.png","76","1","1582508965838","non-match","cow","dog","label","test","true"
"null","","audio-keyboard-response","87","2638161","0.0-13.0-3.8","a","COGS219_2020_25","Sounds/correct.wav","null","1","","","","","","",""
"null","","audio-keyboard-response","88","2639282","0.0-13.0-0.9","a","COGS219_2020_25","Sounds/motorcycle_sound.wav","null","1","","","","","","",""
"null","","html-keyboard-response","89","2640288","0.0-13.0-1.9","a","COGS219_2020_25","<p style=""font-size: 48px;"">+</p>","null","1","","","","","","",""
"531.3999999780208","","image-keyboard-response","90","2640820","0.0-13.0-2.9","a","COGS219_2020_25","Images/whistle_cartoon.png","76","1","1582508970521","non-match","whistle","motorcycle","sound","test","true"
"null","","audio-keyboard-response","91","2642829","0.0-13.0-3.9","a","COGS219_2020_25","Sounds/correct.wav","null","1","","","","","","",""
"null","","audio-keyboard-response","92","2643462","0.0-13.0-0.10","a","COGS219_2020_25","Sounds/dog_label.wav","null","1","","","","","","",""
"null","","html-keyboard-response","93","2644454","0.0-13.0-1.10","a","COGS219_2020_25","<p style=""font-size: 48px;"">+</p>","null","1","","","","","","",""
"572.4049999844283","","image-keyboard-response","94","2645028","0.0-13.0-2.10","a","COGS219_2020_25","Images/rooster_cartoon.png","76","1","1582508974688","non-match","rooster","dog","label","test","true"
"null","","audio-keyboard-response","95","2647045","0.0-13.0-3.10","a","COGS219_2020_25","Sounds/correct.wav","null","1","","","","","","",""
"null","","audio-keyboard-response","96","2647762","0.0-13.0-0.11","a","COGS219_2020_25","Sounds/dog_sound.wav","null","1","","","","","","",""
"null","","html-keyboard-response","97","2648757","0.0-13.0-1.11","a","COGS219_2020_25","<p style=""font-size: 48px;"">+</p>","null","1","","","","","","",""
"472.2750000655651","","image-keyboard-response","98","2649230","0.0-13.0-2.11","a","COGS219_2020_25","Images/motorcycle_3.png","76","1","1582508978991","non-match","motorcycle","dog","sound","test","true"
"null","","audio-keyboard-response","99","2651246","0.0-13.0-3.11","a","COGS219_2020_25","Sounds/correct.wav","null","1","","","","","","",""
"null","","audio-keyboard-response","100","2651825","0.0-13.0-0.12","a","COGS219_2020_25","Sounds/gun_sound.wav","null","1","","","","","","",""
"null","","html-keyboard-response","101","2652824","0.0-13.0-1.12","a","COGS219_2020_25","<p style=""font-size: 48px;"">+</p>","null","1","","","","","","",""
"717.7699999883771","","image-keyboard-response","102","2653543","0.0-13.0-2.12","a","COGS219_2020_25","Images/gun_cartoon.png","65","1","1582508983058","match","gun","gun","sound","test","true"
"null","","audio-keyboard-response","103","2655552","0.0-13.0-3.12","a","COGS219_2020_25","Sounds/correct.wav","null","1","","","","","","",""
"null","","audio-keyboard-response","104","2656845","0.0-13.0-0.13","a","COGS219_2020_25","Sounds/train_sound.wav","null","1","","","","","","",""
"null","","html-keyboard-response","105","2657840","0.0-13.0-1.13","a","COGS219_2020_25","<p style=""font-size: 48px;"">+</p>","null","1","","","","","","",""
"764.9700000183657","","image-keyboard-response","106","2658606","0.0-13.0-2.13","a","COGS219_2020_25","Images/train_3.png","65","1","1582508988075","match","train","train","sound","test","true"
"null","","audio-keyboard-response","107","2660616","0.0-13.0-3.13","a","COGS219_2020_25","Sounds/correct.wav","null","1","","","","","","",""
"null","","audio-keyboard-response","108","2661625","0.0-13.0-0.14","a","COGS219_2020_25","Sounds/cow_sound.wav","null","1","","","","","","",""
"null","","html-keyboard-response","109","2662624","0.0-13.0-1.14","a","COGS219_2020_25","<p style=""font-size: 48px;"">+</p>","null","1","","","","","","",""
"485.6249999720603","","image-keyboard-response","110","2663111","0.0-13.0-2.14","a","COGS219_2020_25","Images/cow_cartoon.png","65","1","1582508992858","match","cow","cow","sound","test","true"
"null","","audio-keyboard-response","111","2665120","0.0-13.0-3.14","a","COGS219_2020_25","Sounds/correct.wav","null","1","","","","","","",""
"null","","audio-keyboard-response","112","2666105","0.0-13.0-0.15","a","COGS219_2020_25","Sounds/cow_sound.wav","null","1","","","","","","",""
"null","","html-keyboard-response","113","2667107","0.0-13.0-1.15","a","COGS219_2020_25","<p style=""font-size: 48px;"">+</p>","null","1","","","","","","",""
"538.4449999546632","","image-keyboard-response","114","2667647","0.0-13.0-2.15","a","COGS219_2020_25","Images/cow_orig.png","65","1","1582508997342","match","cow","cow","sound","test","true"
"null","","audio-keyboard-response","115","2669650","0.0-13.0-3.15","a","COGS219_2020_25","Sounds/correct.wav","null","1","","","","","","",""
"null","","audio-keyboard-response","116","2670345","0.0-13.0-0.16","a","COGS219_2020_25","Sounds/whistle_label.wav","null","1","","","","","","",""
"null","","html-keyboard-response","117","2671341","0.0-13.0-1.16","a","COGS219_2020_25","<p style=""font-size: 48px;"">+</p>","null","1","","","","","","",""
"736.7950000334531","","image-keyboard-response","118","2672079","0.0-13.0-2.16","a","COGS219_2020_25","Images/car_cartoon.png","76","1","1582509001575","non-match","car","whistle","label","test","true"
"null","","audio-keyboard-response","119","2674084","0.0-13.0-3.16","a","COGS219_2020_25","Sounds/correct.wav","null","1","","","","","","",""
"null","","audio-keyboard-response","120","2674785","0.0-13.0-0.17","a","COGS219_2020_25","Sounds/rooster_sound.wav","null","1","","","","","","",""
"null","","html-keyboard-response","121","2675774","0.0-13.0-1.17","a","COGS219_2020_25","<p style=""font-size: 48px;"">+</p>","null","1","","","","","","",""
"463.274999987334","","image-keyboard-response","122","2676238","0.0-13.0-2.17","a","COGS219_2020_25","Images/whistle_orig.png","76","1","1582509006008","non-match","whistle","rooster","sound","test","true"
"null","","audio-keyboard-response","123","2678255","0.0-13.0-3.17","a","COGS219_2020_25","Sounds/correct.wav","null","1","","","","","","",""
"null","","audio-keyboard-response","124","2679085","0.0-13.0-0.18","a","COGS219_2020_25","Sounds/cat_sound.wav","null","1","","","","","","",""
"null","","html-keyboard-response","125","2680074","0.0-13.0-1.18","a","COGS219_2020_25","<p style=""font-size: 48px;"">+</p>","null","1","","","","","","",""
"595.5000000540167","","image-keyboard-response","126","2680671","0.0-13.0-2.18","a","COGS219_2020_25","Images/cat_cartoon.png","65","1","1582509010308","match","cat","cat","sound","test","true"
"null","","audio-keyboard-response","127","2682678","0.0-13.0-3.18","a","COGS219_2020_25","Sounds/correct.wav","null","1","","","","","","",""
"null","","audio-keyboard-response","128","2683985","0.0-13.0-0.19","a","COGS219_2020_25","Sounds/train_sound.wav","null","1","","","","","","",""
"null","","html-keyboard-response","129","2684991","0.0-13.0-1.19","a","COGS219_2020_25","<p style=""font-size: 48px;"">+</p>","null","1","","","","","","",""
"478.5149999661371","","image-keyboard-response","130","2685471","0.0-13.0-2.19","a","COGS219_2020_25","Images/train_cartoon.png","65","1","1582509015225","match","train","train","sound","test","true"
"null","","audio-keyboard-response","131","2687484","0.0-13.0-3.19","a","COGS219_2020_25","Sounds/correct.wav","null","1","","","","","","",""
"null","","audio-keyboard-response","132","2688185","0.0-13.0-0.20","a","COGS219_2020_25","Sounds/rooster_label.wav","null","1","","","","","","",""
"null","","html-keyboard-response","133","2689174","0.0-13.0-1.20","a","COGS219_2020_25","<p style=""font-size: 48px;"">+</p>","null","1","","","","","","",""
"703.1300000380725","","image-keyboard-response","134","2689879","0.0-13.0-2.20","a","COGS219_2020_25","Images/rooster_cartoon.png","65","1","1582509019408","match","rooster","rooster","label","test","true"
"null","","audio-keyboard-response","135","2691888","0.0-13.0-3.20","a","COGS219_2020_25","Sounds/correct.wav","null","1","","","","","","",""
"null","","audio-keyboard-response","136","2692725","0.0-13.0-0.21","a","COGS219_2020_25","Sounds/cat_label.wav","null","1","","","","","","",""
"null","","html-keyboard-response","137","2693724","0.0-13.0-1.21","a","COGS219_2020_25","<p style=""font-size: 48px;"">+</p>","null","1","","","","","","",""
"425.3249999601394","","image-keyboard-response","138","2694151","0.0-13.0-2.21","a","COGS219_2020_25","Images/cat_orig.png","65","1","1582509023958","match","cat","cat","label","test","true"
"null","","audio-keyboard-response","139","2696157","0.0-13.0-3.21","a","COGS219_2020_25","Sounds/correct.wav","null","1","","","","","","",""
"null","","audio-keyboard-response","140","2696845","0.0-13.0-0.22","a","COGS219_2020_25","Sounds/rooster_sound.wav","null","1","","","","","","",""
"null","","html-keyboard-response","141","2697841","0.0-13.0-1.22","a","COGS219_2020_25","<p style=""font-size: 48px;"">+</p>","null","1","","","","","","",""
"444.45499998982996","","image-keyboard-response","142","2698286","0.0-13.0-2.22","a","COGS219_2020_25","Images/gun_2.png","76","1","1582509028075","non-match","gun","rooster","sound","test","true"
"null","","audio-keyboard-response","143","2700289","0.0-13.0-3.22","a","COGS219_2020_25","Sounds/correct.wav","null","1","","","","","","",""
"null","","audio-keyboard-response","144","2701185","0.0-13.0-0.23","a","COGS219_2020_25","Sounds/frog_label.wav","null","1","","","","","","",""
"null","","html-keyboard-response","145","2702191","0.0-13.0-1.23","a","COGS219_2020_25","<p style=""font-size: 48px;"">+</p>","null","1","","","","","","",""
"557.9050000524148","","image-keyboard-response","146","2702750","0.0-13.0-2.23","a","COGS219_2020_25","Images/gun_3.png","76","1","1582509032426","non-match","gun","frog","label","test","true"
"null","","audio-keyboard-response","147","2704763","0.0-13.0-3.23","a","COGS219_2020_25","Sounds/correct.wav","null","1","","","","","","",""
"null","","audio-keyboard-response","148","2705785","0.0-13.0-0.24","a","COGS219_2020_25","Sounds/cow_sound.wav","null","1","","","","","","",""
"null","","html-keyboard-response","149","2706774","0.0-13.0-1.24","a","COGS219_2020_25","<p style=""font-size: 48px;"">+</p>","null","1","","","","","","",""
"703.440000070259","","image-keyboard-response","150","2707479","0.0-13.0-2.24","a","COGS219_2020_25","Images/frog_1.png","76","1","1582509037009","non-match","frog","cow","sound","test","true"
"null","","audio-keyboard-response","151","2709487","0.0-13.0-3.24","a","COGS219_2020_25","Sounds/correct.wav","null","1","","","","","","",""
"null","","audio-keyboard-response","152","2710165","0.0-13.0-0.25","a","COGS219_2020_25","Sounds/rooster_sound.wav","null","1","","","","","","",""
"null","","html-keyboard-response","153","2711158","0.0-13.0-1.25","a","COGS219_2020_25","<p style=""font-size: 48px;"">+</p>","null","1","","","","","","",""
"646.8850000528619","","image-keyboard-response","154","2711806","0.0-13.0-2.25","a","COGS219_2020_25","Images/rooster_orig.png","65","1","1582509041392","match","rooster","rooster","sound","test","true"
"null","","audio-keyboard-response","155","2713823","0.0-13.0-3.25","a","COGS219_2020_25","Sounds/correct.wav","null","1","","","","","","",""
"null","","audio-keyboard-response","156","2714945","0.0-13.0-0.26","a","COGS219_2020_25","Sounds/motorcycle_sound.wav","null","1","","","","","","",""
"null","","html-keyboard-response","157","2715941","0.0-13.0-1.26","a","COGS219_2020_25","<p style=""font-size: 48px;"">+</p>","null","1","","","","","","",""
"488.3699999190867","","image-keyboard-response","158","2716430","0.0-13.0-2.26","a","COGS219_2020_25","Images/frog_orig.png","76","1","1582509046175","non-match","frog","motorcycle","sound","test","true"
"null","","audio-keyboard-response","159","2718435","0.0-13.0-3.26","a","COGS219_2020_25","Sounds/correct.wav","null","1","","","","","","",""
"null","","audio-keyboard-response","160","2719505","0.0-13.0-0.27","a","COGS219_2020_25","Sounds/car_label.wav","null","1","","","","","","",""
"null","","html-keyboard-response","161","2720508","0.0-13.0-1.27","a","COGS219_2020_25","<p style=""font-size: 48px;"">+</p>","null","1","","","","","","",""
"441.74000003840774","","image-keyboard-response","162","2720951","0.0-13.0-2.27","a","COGS219_2020_25","Images/cat_2.png","76","1","1582509050742","non-match","cat","car","label","test","true"
"null","","audio-keyboard-response","163","2722956","0.0-13.0-3.27","a","COGS219_2020_25","Sounds/correct.wav","null","1","","","","","","",""
"null","","audio-keyboard-response","164","2723645","0.0-13.0-0.28","a","COGS219_2020_25","Sounds/whistle_label.wav","null","1","","","","","","",""
"null","","html-keyboard-response","165","2724641","0.0-13.0-1.28","a","COGS219_2020_25","<p style=""font-size: 48px;"">+</p>","null","1","","","","","","",""
"548.369999974966","","image-keyboard-response","166","2725191","0.0-13.0-2.28","a","COGS219_2020_25","Images/dog_cartoon.png","76","1","1582509054875","non-match","dog","whistle","label","test","true"
"null","","audio-keyboard-response","167","2727199","0.0-13.0-3.28","a","COGS219_2020_25","Sounds/correct.wav","null","1","","","","","","",""
"null","","audio-keyboard-response","168","2728105","0.0-13.0-0.29","a","COGS219_2020_25","Sounds/frog_label.wav","null","1","","","","","","",""
"null","","html-keyboard-response","169","2729108","0.0-13.0-1.29","a","COGS219_2020_25","<p style=""font-size: 48px;"">+</p>","null","1","","","","","","",""
"521.1600000038743","","image-keyboard-response","170","2729630","0.0-13.0-2.29","a","COGS219_2020_25","Images/frog_3.png","65","1","1582509059342","match","frog","frog","label","test","true"
"null","","audio-keyboard-response","171","2731648","0.0-13.0-3.29","a","COGS219_2020_25","Sounds/correct.wav","null","1","","","","","","",""
"null","","audio-keyboard-response","172","2732365","0.0-13.0-0.30","a","COGS219_2020_25","Sounds/dog_sound.wav","null","1","","","","","","",""
"null","","html-keyboard-response","173","2733358","0.0-13.0-1.30","a","COGS219_2020_25","<p style=""font-size: 48px;"">+</p>","null","1","","","","","","",""
"655.7099999627098","","image-keyboard-response","174","2734015","0.0-13.0-2.30","a","COGS219_2020_25","Images/dog_cartoon.png","65","1","1582509063592","match","dog","dog","sound","test","true"
"null","","audio-keyboard-response","175","2736022","0.0-13.0-3.30","a","COGS219_2020_25","Sounds/correct.wav","null","1","","","","","","",""
"null","","audio-keyboard-response","176","2736865","0.0-13.0-0.31","a","COGS219_2020_25","Sounds/cat_sound.wav","null","1","","","","","","",""
"null","","html-keyboard-response","177","2737858","0.0-13.0-1.31","a","COGS219_2020_25","<p style=""font-size: 48px;"">+</p>","null","1","","","","","","",""
"507.2449999861419","","image-keyboard-response","178","2738366","0.0-13.0-2.31","a","COGS219_2020_25","Images/cow_cartoon.png","76","1","1582509068092","non-match","cow","cat","sound","test","true"
"null","","audio-keyboard-response","179","2740369","0.0-13.0-3.31","a","COGS219_2020_25","Sounds/correct.wav","null","1","","","","","","",""
"null","","audio-keyboard-response","180","2740945","0.0-13.0-0.32","a","COGS219_2020_25","Sounds/gun_sound.wav","null","1","","","","","","",""
"null","","html-keyboard-response","181","2741941","0.0-13.0-1.32","a","COGS219_2020_25","<p style=""font-size: 48px;"">+</p>","null","1","","","","","","",""
"392.0349999098107","","image-keyboard-response","182","2742334","0.0-13.0-2.32","a","COGS219_2020_25","Images/cat_3.png","76","1","1582509072175","non-match","cat","gun","sound","test","true"
"null","","audio-keyboard-response","183","2744344","0.0-13.0-3.32","a","COGS219_2020_25","Sounds/correct.wav","null","1","","","","","","",""
"null","","audio-keyboard-response","184","2745045","0.0-13.0-0.33","a","COGS219_2020_25","Sounds/dog_sound.wav","null","1","","","","","","",""
"null","","html-keyboard-response","185","2746041","0.0-13.0-1.33","a","COGS219_2020_25","<p style=""font-size: 48px;"">+</p>","null","1","","","","","","",""
"460.3249999927357","","image-keyboard-response","186","2746503","0.0-13.0-2.33","a","COGS219_2020_25","Images/gun_cartoon.png","76","1","1582509076276","non-match","gun","dog","sound","test","true"
"null","","audio-keyboard-response","187","2748507","0.0-13.0-3.33","a","COGS219_2020_25","Sounds/correct.wav","null","1","","","","","","",""
"null","","audio-keyboard-response","188","2749645","0.0-13.0-0.34","a","COGS219_2020_25","Sounds/motorcycle_label.wav","null","1","","","","","","",""
"null","","html-keyboard-response","189","2750641","0.0-13.0-1.34","a","COGS219_2020_25","<p style=""font-size: 48px;"">+</p>","null","1","","","","","","",""
"443.91999999061227","","image-keyboard-response","190","2751086","0.0-13.0-2.34","a","COGS219_2020_25","Images/motorcycle_2.png","65","1","1582509080875","match","motorcycle","motorcycle","label","test","true"
"null","","audio-keyboard-response","191","2753090","0.0-13.0-3.34","a","COGS219_2020_25","Sounds/correct.wav","null","1","","","","","","",""
"null","","audio-keyboard-response","192","2753985","0.0-13.0-0.35","a","COGS219_2020_25","Sounds/frog_label.wav","null","1","","","","","","",""
"null","","html-keyboard-response","193","2754975","0.0-13.0-1.35","a","COGS219_2020_25","<p style=""font-size: 48px;"">+</p>","null","1","","","","","","",""
"734.8449999699369","","image-keyboard-response","194","2755710","0.0-13.0-2.35","a","COGS219_2020_25","Images/frog_1.png","65","1","1582509085209","match","frog","frog","label","test","true"
"null","","audio-keyboard-response","195","2757718","0.0-13.0-3.35","a","COGS219_2020_25","Sounds/correct.wav","null","1","","","","","","",""
"null","","audio-keyboard-response","196","2758745","0.0-13.0-0.36","a","COGS219_2020_25","Sounds/cow_label.wav","null","1","","","","","","",""
"null","","html-keyboard-response","197","2759741","0.0-13.0-1.36","a","COGS219_2020_25","<p style=""font-size: 48px;"">+</p>","null","1","","","","","","",""
"480.0699999323115","","image-keyboard-response","198","2760223","0.0-13.0-2.36","a","COGS219_2020_25","Images/cat_1.png","76","1","1582509089976","non-match","cat","cow","label","test","true"
"null","","audio-keyboard-response","199","2762237","0.0-13.0-3.36","a","COGS219_2020_25","Sounds/correct.wav","null","1","","","","","","",""
"null","","audio-keyboard-response","200","2763065","0.0-13.0-0.37","a","COGS219_2020_25","Sounds/cat_sound.wav","null","1","","","","","","",""
"null","","html-keyboard-response","201","2764058","0.0-13.0-1.37","a","COGS219_2020_25","<p style=""font-size: 48px;"">+</p>","null","1","","","","","","",""
"435.2749999379739","","image-keyboard-response","202","2764494","0.0-13.0-2.37","a","COGS219_2020_25","Images/dog_2.png","76","1","1582509094292","non-match","dog","cat","sound","test","true"
"null","","audio-keyboard-response","203","2766508","0.0-13.0-3.37","a","COGS219_2020_25","Sounds/correct.wav","null","1","","","","","","",""
"null","","audio-keyboard-response","204","2767625","0.0-13.0-0.38","a","COGS219_2020_25","Sounds/motorcycle_sound.wav","null","1","","","","","","",""
"null","","html-keyboard-response","205","2768625","0.0-13.0-1.38","a","COGS219_2020_25","<p style=""font-size: 48px;"">+</p>","null","1","","","","","","",""
"740.3049999848008","","image-keyboard-response","206","2769366","0.0-13.0-2.38","a","COGS219_2020_25","Images/car_2.png","65","1","1582509098859","non-match","car","motorcycle","sound","test","false"
"null","","audio-keyboard-response","207","2771384","0.0-13.0-3.38","a","COGS219_2020_25","Sounds/incorrect.wav","null","1","","","","","","",""
"null","","audio-keyboard-response","208","2772465","0.0-13.0-0.39","a","COGS219_2020_25","Sounds/car_label.wav","null","1","","","","","","",""
"null","","html-keyboard-response","209","2773458","0.0-13.0-1.39","a","COGS219_2020_25","<p style=""font-size: 48px;"">+</p>","null","1","","","","","","",""
"523.285000002943","","image-keyboard-response","210","2773983","0.0-13.0-2.39","a","COGS219_2020_25","Images/motorcycle_1.png","76","1","1582509103692","non-match","motorcycle","car","label","test","true"
"null","","audio-keyboard-response","211","2775986","0.0-13.0-3.39","a","COGS219_2020_25","Sounds/correct.wav","null","1","","","","","","",""
"null","","audio-keyboard-response","212","2776685","0.0-13.0-0.40","a","COGS219_2020_25","Sounds/whistle_label.wav","null","1","","","","","","",""
"null","","html-keyboard-response","213","2777675","0.0-13.0-1.40","a","COGS219_2020_25","<p style=""font-size: 48px;"">+</p>","null","1","","","","","","",""
"434.2999999644235","","image-keyboard-response","214","2778110","0.0-13.0-2.40","a","COGS219_2020_25","Images/whistle_2.png","65","1","1582509107909","match","whistle","whistle","label","test","true"
"null","","audio-keyboard-response","215","2780125","0.0-13.0-3.40","a","COGS219_2020_25","Sounds/correct.wav","null","1","","","","","","",""
"null","","audio-keyboard-response","216","2780705","0.0-13.0-0.41","a","COGS219_2020_25","Sounds/gun_label.wav","null","1","","","","","","",""
"null","","html-keyboard-response","217","2781708","0.0-13.0-1.41","a","COGS219_2020_25","<p style=""font-size: 48px;"">+</p>","null","1","","","","","","",""
"472.7549999952316","","image-keyboard-response","218","2782182","0.0-13.0-2.41","a","COGS219_2020_25","Images/gun_1.png","65","1","1582509111942","match","gun","gun","label","test","true"
"null","","audio-keyboard-response","219","2784187","0.0-13.0-3.41","a","COGS219_2020_25","Sounds/correct.wav","null","1","","","","","","",""
"null","","audio-keyboard-response","220","2784765","0.0-13.0-0.42","a","COGS219_2020_25","Sounds/gun_sound.wav","null","1","","","","","","",""
"null","","html-keyboard-response","221","2785758","0.0-13.0-1.42","a","COGS219_2020_25","<p style=""font-size: 48px;"">+</p>","null","1","","","","","","",""
"463.0749999778345","","image-keyboard-response","222","2786223","0.0-13.0-2.42","a","COGS219_2020_25","Images/gun_3.png","65","1","1582509115993","match","gun","gun","sound","test","true"
"null","","audio-keyboard-response","223","2788238","0.0-13.0-3.42","a","COGS219_2020_25","Sounds/correct.wav","null","1","","","","","","",""
"null","","audio-keyboard-response","224","2788945","0.0-13.0-0.43","a","COGS219_2020_25","Sounds/rooster_sound.wav","null","1","","","","","","",""
"null","","html-keyboard-response","225","2789942","0.0-13.0-1.43","a","COGS219_2020_25","<p style=""font-size: 48px;"">+</p>","null","1","","","","","","",""
"567.4099999014288","","image-keyboard-response","226","2790510","0.0-13.0-2.43","a","COGS219_2020_25","Images/rooster_3.png","65","1","1582509120176","match","rooster","rooster","sound","test","true"
"null","","audio-keyboard-response","227","2792520","0.0-13.0-3.43","a","COGS219_2020_25","Sounds/correct.wav","null","1","","","","","","",""
"null","","audio-keyboard-response","228","2793645","0.0-13.0-0.44","a","COGS219_2020_25","Sounds/motorcycle_sound.wav","null","1","","","","","","",""
"null","","html-keyboard-response","229","2794642","0.0-13.0-1.44","a","COGS219_2020_25","<p style=""font-size: 48px;"">+</p>","null","1","","","","","","",""
"699.4900000281632","","image-keyboard-response","230","2795342","0.0-13.0-2.44","a","COGS219_2020_25","Images/motorcycle_3.png","65","1","1582509124876","match","motorcycle","motorcycle","sound","test","true"
"null","","audio-keyboard-response","231","2797354","0.0-13.0-3.44","a","COGS219_2020_25","Sounds/correct.wav","null","1","","","","","","",""
"null","","audio-keyboard-response","232","2798245","0.0-13.0-0.45","a","COGS219_2020_25","Sounds/frog_label.wav","null","1","","","","","","",""
"null","","html-keyboard-response","233","2799242","0.0-13.0-1.45","a","COGS219_2020_25","<p style=""font-size: 48px;"">+</p>","null","1","","","","","","",""
"571.6450000181794","","image-keyboard-response","234","2799815","0.0-13.0-2.45","a","COGS219_2020_25","Images/frog_cartoon.png","65","1","1582509129476","match","frog","frog","label","test","true"
"null","","audio-keyboard-response","235","2801831","0.0-13.0-3.45","a","COGS219_2020_25","Sounds/correct.wav","null","1","","","","","","",""
"null","","audio-keyboard-response","236","2802965","0.0-13.0-0.46","a","COGS219_2020_25","Sounds/motorcycle_label.wav","null","1","","","","","","",""
"null","","html-keyboard-response","237","2803959","0.0-13.0-1.46","a","COGS219_2020_25","<p style=""font-size: 48px;"">+</p>","null","1","","","","","","",""
"422.71500010974705","","image-keyboard-response","238","2804382","0.0-13.0-2.46","a","COGS219_2020_25","Images/motorcycle_cartoon.png","65","1","1582509134193","match","motorcycle","motorcycle","label","test","true"
"null","","audio-keyboard-response","239","2806394","0.0-13.0-3.46","a","COGS219_2020_25","Sounds/correct.wav","null","1","","","","","","",""
"null","","audio-keyboard-response","240","2807505","0.0-13.0-0.47","a","COGS219_2020_25","Sounds/motorcycle_label.wav","null","1","","","","","","",""
"null","","html-keyboard-response","241","2808509","0.0-13.0-1.47","a","COGS219_2020_25","<p style=""font-size: 48px;"">+</p>","null","1","","","","","","",""
"568.654999951832","","image-keyboard-response","242","2809078","0.0-13.0-2.47","a","COGS219_2020_25","Images/dog_1.png","76","1","1582509138743","non-match","dog","motorcycle","label","test","true"
"null","","audio-keyboard-response","243","2811081","0.0-13.0-3.47","a","COGS219_2020_25","Sounds/correct.wav","null","1","","","","","","",""
"null","","audio-keyboard-response","244","2811785","0.0-13.0-0.48","a","COGS219_2020_25","Sounds/whistle_sound.wav","null","1","","","","","","",""
"null","","html-keyboard-response","245","2812775","0.0-13.0-1.48","a","COGS219_2020_25","<p style=""font-size: 48px;"">+</p>","null","1","","","","","","",""
"478.12500002328306","","image-keyboard-response","246","2813255","0.0-13.0-2.48","a","COGS219_2020_25","Images/train_2.png","76","1","1582509143009","non-match","train","whistle","sound","test","true"
"null","","audio-keyboard-response","247","2815271","0.0-13.0-3.48","a","COGS219_2020_25","Sounds/correct.wav","null","1","","","","","","",""
"null","","audio-keyboard-response","248","2815945","0.0-13.0-0.49","a","COGS219_2020_25","Sounds/whistle_sound.wav","null","1","","","","","","",""
"null","","html-keyboard-response","249","2816942","0.0-13.0-1.49","a","COGS219_2020_25","<p style=""font-size: 48px;"">+</p>","null","1","","","","","","",""
"423.19500003941357","","image-keyboard-response","250","2817366","0.0-13.0-2.49","a","COGS219_2020_25","Images/whistle_1.png","65","1","1582509147176","match","whistle","whistle","sound","test","true"
"null","","audio-keyboard-response","251","2819375","0.0-13.0-3.49","a","COGS219_2020_25","Sounds/correct.wav","null","1","","","","","","",""
"null","","audio-keyboard-response","252","2820385","0.0-13.0-0.50","a","COGS219_2020_25","Sounds/cow_sound.wav","null","1","","","","","","",""
"null","","html-keyboard-response","253","2821375","0.0-13.0-1.50","a","COGS219_2020_25","<p style=""font-size: 48px;"">+</p>","null","1","","","","","","",""
"486.18000000715256","","image-keyboard-response","254","2821863","0.0-13.0-2.50","a","COGS219_2020_25","Images/cow_2.png","65","1","1582509151610","match","cow","cow","sound","test","true"
"null","","audio-keyboard-response","255","2823871","0.0-13.0-3.50","a","COGS219_2020_25","Sounds/correct.wav","null","1","","","","","","",""
"null","","audio-keyboard-response","256","2824585","0.0-13.0-0.51","a","COGS219_2020_25","Sounds/dog_sound.wav","null","1","","","","","","",""
"null","","html-keyboard-response","257","2825576","0.0-13.0-1.51","a","COGS219_2020_25","<p style=""font-size: 48px;"">+</p>","null","1","","","","","","",""
"869.9000000488013","","image-keyboard-response","258","2826447","0.0-13.0-2.51","a","COGS219_2020_25","Images/dog_orig.png","65","1","1582509155810","match","dog","dog","sound","test","true"
"null","","audio-keyboard-response","259","2828460","0.0-13.0-3.51","a","COGS219_2020_25","Sounds/correct.wav","null","1","","","","","","",""
"null","","audio-keyboard-response","260","2829045","0.0-13.0-0.52","a","COGS219_2020_25","Sounds/gun_label.wav","null","1","","","","","","",""
"null","","html-keyboard-response","261","2830042","0.0-13.0-1.52","a","COGS219_2020_25","<p style=""font-size: 48px;"">+</p>","null","1","","","","","","",""
"483.0349999247119","","image-keyboard-response","262","2830526","0.0-13.0-2.52","a","COGS219_2020_25","Images/gun_2.png","65","1","1582509160276","match","gun","gun","label","test","true"
"null","","audio-keyboard-response","263","2832538","0.0-13.0-3.52","a","COGS219_2020_25","Sounds/correct.wav","null","1","","","","","","",""
"null","","audio-keyboard-response","264","2833565","0.0-13.0-0.53","a","COGS219_2020_25","Sounds/cow_label.wav","null","1","","","","","","",""
"null","","html-keyboard-response","265","2834559","0.0-13.0-1.53","a","COGS219_2020_25","<p style=""font-size: 48px;"">+</p>","null","1","","","","","","",""
"590.2500000083819","","image-keyboard-response","266","2835150","0.0-13.0-2.53","a","COGS219_2020_25","Images/cow_3.png","65","1","1582509164793","match","cow","cow","label","test","true"
"null","","audio-keyboard-response","267","2837163","0.0-13.0-3.53","a","COGS219_2020_25","Sounds/correct.wav","null","1","","","","","","",""
"null","","audio-keyboard-response","268","2838245","0.0-13.0-0.54","a","COGS219_2020_25","Sounds/car_sound.wav","null","1","","","","","","",""
"null","","html-keyboard-response","269","2839243","0.0-13.0-1.54","a","COGS219_2020_25","<p style=""font-size: 48px;"">+</p>","null","1","","","","","","",""
"491.11000006087124","","image-keyboard-response","270","2839735","0.0-13.0-2.54","a","COGS219_2020_25","Images/car_2.png","65","1","1582509169477","match","car","car","sound","test","true"
"null","","audio-keyboard-response","271","2841746","0.0-13.0-3.54","a","COGS219_2020_25","Sounds/correct.wav","null","1","","","","","","",""
"null","","audio-keyboard-response","272","2842645","0.0-13.0-0.55","a","COGS219_2020_25","Sounds/frog_sound.wav","null","1","","","","","","",""
"null","","html-keyboard-response","273","2843643","0.0-13.0-1.55","a","COGS219_2020_25","<p style=""font-size: 48px;"">+</p>","null","1","","","","","","",""
"474.9399999855086","","image-keyboard-response","274","2844119","0.0-13.0-2.55","a","COGS219_2020_25","Images/rooster_orig.png","76","1","1582509173877","non-match","rooster","frog","sound","test","true"
"null","","audio-keyboard-response","275","2846122","0.0-13.0-3.55","a","COGS219_2020_25","Sounds/correct.wav","null","1","","","","","","",""
"null","","audio-keyboard-response","276","2847205","0.0-13.0-0.56","a","COGS219_2020_25","Sounds/car_label.wav","null","1","","","","","","",""
"null","","html-keyboard-response","277","2848209","0.0-13.0-1.56","a","COGS219_2020_25","<p style=""font-size: 48px;"">+</p>","null","1","","","","","","",""
"580.2000000840053","","image-keyboard-response","278","2848790","0.0-13.0-2.56","a","COGS219_2020_25","Images/car_orig.png","65","1","1582509178443","match","car","car","label","test","true"
"null","","audio-keyboard-response","279","2850800","0.0-13.0-3.56","a","COGS219_2020_25","Sounds/correct.wav","null","1","","","","","","",""
"null","","audio-keyboard-response","280","2851465","0.0-13.0-0.57","a","COGS219_2020_25","Sounds/dog_label.wav","null","1","","","","","","",""
"null","","html-keyboard-response","281","2852459","0.0-13.0-1.57","a","COGS219_2020_25","<p style=""font-size: 48px;"">+</p>","null","1","","","","","","",""
"546.4800000190735","","image-keyboard-response","282","2853007","0.0-13.0-2.57","a","COGS219_2020_25","Images/dog_2.png","65","1","1582509182693","match","dog","dog","label","test","true"
"null","","audio-keyboard-response","283","2855018","0.0-13.0-3.57","a","COGS219_2020_25","Sounds/correct.wav","null","1","","","","","","",""
"null","","audio-keyboard-response","284","2855865","0.0-13.0-0.58","a","COGS219_2020_25","Sounds/cat_label.wav","null","1","","","","","","",""
"null","","html-keyboard-response","285","2856859","0.0-13.0-1.58","a","COGS219_2020_25","<p style=""font-size: 48px;"">+</p>","null","1","","","","","","",""
"378.08499997481704","","image-keyboard-response","286","2857238","0.0-13.0-2.58","a","COGS219_2020_25","Images/cat_1.png","65","1","1582509187093","match","cat","cat","label","test","true"
"null","","audio-keyboard-response","287","2859247","0.0-13.0-3.58","a","COGS219_2020_25","Sounds/correct.wav","null","1","","","","","","",""
"null","","audio-keyboard-response","288","2860305","0.0-13.0-0.59","a","COGS219_2020_25","Sounds/car_label.wav","null","1","","","","","","",""
"null","","html-keyboard-response","289","2861309","0.0-13.0-1.59","a","COGS219_2020_25","<p style=""font-size: 48px;"">+</p>","null","1","","","","","","",""
"527.9699999373406","","image-keyboard-response","290","2861839","0.0-13.0-2.59","a","COGS219_2020_25","Images/car_1.png","65","1","1582509191543","match","car","car","label","test","true"
"null","","audio-keyboard-response","291","2863852","0.0-13.0-3.59","a","COGS219_2020_25","Sounds/correct.wav","null","1","","","","","","",""
"null","","audio-keyboard-response","292","2864985","0.0-13.0-0.60","a","COGS219_2020_25","Sounds/motorcycle_label.wav","null","1","","","","","","",""
"null","","html-keyboard-response","293","2865976","0.0-13.0-1.60","a","COGS219_2020_25","<p style=""font-size: 48px;"">+</p>","null","1","","","","","","",""
"653.690000064671","","image-keyboard-response","294","2866631","0.0-13.0-2.60","a","COGS219_2020_25","Images/train_1.png","76","1","1582509196210","non-match","train","motorcycle","label","test","true"
"null","","audio-keyboard-response","295","2868643","0.0-13.0-3.60","a","COGS219_2020_25","Sounds/correct.wav","null","1","","","","","","",""
"null","","audio-keyboard-response","296","2869485","0.0-13.0-0.61","a","COGS219_2020_25","Sounds/cat_sound.wav","null","1","","","","","","",""
"null","","html-keyboard-response","297","2870476","0.0-13.0-1.61","a","COGS219_2020_25","<p style=""font-size: 48px;"">+</p>","null","1","","","","","","",""
"737.1850000927225","","image-keyboard-response","298","2871214","0.0-13.0-2.61","a","COGS219_2020_25","Images/rooster_1.png","76","1","1582509200710","non-match","rooster","cat","sound","test","true"
"null","","audio-keyboard-response","299","2873220","0.0-13.0-3.61","a","COGS219_2020_25","Sounds/correct.wav","null","1","","","","","","",""
"null","","audio-keyboard-response","300","2873925","0.0-13.0-0.62","a","COGS219_2020_25","Sounds/rooster_sound.wav","null","1","","","","","","",""
"null","","html-keyboard-response","301","2874943","0.0-13.0-1.62","a","COGS219_2020_25","<p style=""font-size: 48px;"">+</p>","null","1","","","","","","",""
"494.56000002101064","","image-keyboard-response","302","2875438","0.0-13.0-2.62","a","COGS219_2020_25","Images/rooster_2.png","65","1","1582509205177","match","rooster","rooster","sound","test","true"
"null","","audio-keyboard-response","303","2877454","0.0-13.0-3.62","a","COGS219_2020_25","Sounds/correct.wav","null","1","","","","","","",""
"null","","audio-keyboard-response","304","2878265","0.0-13.0-0.63","a","COGS219_2020_25","Sounds/cat_sound.wav","null","1","","","","","","",""
"null","","html-keyboard-response","305","2879260","0.0-13.0-1.63","a","COGS219_2020_25","<p style=""font-size: 48px;"">+</p>","null","1","","","","","","",""
"474.2150000529364","","image-keyboard-response","306","2879735","0.0-13.0-2.63","a","COGS219_2020_25","Images/motorcycle_orig.png","76","1","1582509209494","non-match","motorcycle","cat","sound","test","true"
"null","","audio-keyboard-response","307","2881739","0.0-13.0-3.63","a","COGS219_2020_25","Sounds/correct.wav","null","1","","","","","","",""
"null","","audio-keyboard-response","308","2882585","0.0-13.0-0.64","a","COGS219_2020_25","Sounds/cat_label.wav","null","1","","","","","","",""
"null","","html-keyboard-response","309","2883576","0.0-13.0-1.64","a","COGS219_2020_25","<p style=""font-size: 48px;"">+</p>","null","1","","","","","","",""
"469.23000004608184","","image-keyboard-response","310","2884047","0.0-13.0-2.64","a","COGS219_2020_25","Images/frog_2.png","76","1","1582509213810","non-match","frog","cat","label","test","true"
"null","","audio-keyboard-response","311","2886055","0.0-13.0-3.64","a","COGS219_2020_25","Sounds/correct.wav","null","1","","","","","","",""
"null","","audio-keyboard-response","312","2886945","0.0-13.0-0.65","a","COGS219_2020_25","Sounds/frog_label.wav","null","1","","","","","","",""
"null","","html-keyboard-response","313","2887943","0.0-13.0-1.65","a","COGS219_2020_25","<p style=""font-size: 48px;"">+</p>","null","1","","","","","","",""
"550.444999942556","","image-keyboard-response","314","2888495","0.0-13.0-2.65","a","COGS219_2020_25","Images/frog_orig.png","65","1","1582509218177","match","frog","frog","label","test","true"
"null","","audio-keyboard-response","315","2890502","0.0-13.0-3.65","a","COGS219_2020_25","Sounds/correct.wav","null","1","","","","","","",""
"null","","audio-keyboard-response","316","2891585","0.0-13.0-0.66","a","COGS219_2020_25","Sounds/car_label.wav","null","1","","","","","","",""
"null","","html-keyboard-response","317","2892576","0.0-13.0-1.66","a","COGS219_2020_25","<p style=""font-size: 48px;"">+</p>","null","1","","","","","","",""
"557.4900000356138","","image-keyboard-response","318","2893135","0.0-13.0-2.66","a","COGS219_2020_25","Images/whistle_2.png","76","1","1582509222811","non-match","whistle","car","label","test","true"
"null","","audio-keyboard-response","319","2895149","0.0-13.0-3.66","a","COGS219_2020_25","Sounds/correct.wav","null","1","","","","","","",""
"null","","audio-keyboard-response","320","2895845","0.0-13.0-0.67","a","COGS219_2020_25","Sounds/rooster_label.wav","null","1","","","","","","",""
"null","","html-keyboard-response","321","2896843","0.0-13.0-1.67","a","COGS219_2020_25","<p style=""font-size: 48px;"">+</p>","null","1","","","","","","",""
"602.2100000409409","","image-keyboard-response","322","2897447","0.0-13.0-2.67","a","COGS219_2020_25","Images/motorcycle_2.png","76","1","1582509227077","non-match","motorcycle","rooster","label","test","true"
"null","","audio-keyboard-response","323","2899462","0.0-13.0-3.67","a","COGS219_2020_25","Sounds/correct.wav","null","1","","","","","","",""
"null","","audio-keyboard-response","324","2900765","0.0-13.0-0.68","a","COGS219_2020_25","Sounds/train_sound.wav","null","1","","","","","","",""
"null","","html-keyboard-response","325","2901760","0.0-13.0-1.68","a","COGS219_2020_25","<p style=""font-size: 48px;"">+</p>","null","1","","","","","","",""
"549.7800000011921","","image-keyboard-response","326","2902311","0.0-13.0-2.68","a","COGS219_2020_25","Images/train_2.png","65","1","1582509231994","match","train","train","sound","test","true"
"null","","audio-keyboard-response","327","2904318","0.0-13.0-3.68","a","COGS219_2020_25","Sounds/correct.wav","null","1","","","","","","",""
"null","","audio-keyboard-response","328","2905585","0.0-13.0-0.69","a","COGS219_2020_25","Sounds/train_sound.wav","null","1","","","","","","",""
"null","","html-keyboard-response","329","2906577","0.0-13.0-1.69","a","COGS219_2020_25","<p style=""font-size: 48px;"">+</p>","null","1","","","","","","",""
"485.21499999333173","","image-keyboard-response","330","2907063","0.0-13.0-2.69","a","COGS219_2020_25","Images/train_orig.png","65","1","1582509236811","match","train","train","sound","test","true"
"null","","audio-keyboard-response","331","2909071","0.0-13.0-3.69","a","COGS219_2020_25","Sounds/correct.wav","null","1","","","","","","",""
"null","","audio-keyboard-response","332","2909785","0.0-13.0-0.70","a","COGS219_2020_25","Sounds/dog_sound.wav","null","1","","","","","","",""
"null","","html-keyboard-response","333","2910777","0.0-13.0-1.70","a","COGS219_2020_25","<p style=""font-size: 48px;"">+</p>","null","1","","","","","","",""
"572.8050000034273","","image-keyboard-response","334","2911351","0.0-13.0-2.70","a","COGS219_2020_25","Images/dog_1.png","65","1","1582509241011","match","dog","dog","sound","test","true"
"null","","audio-keyboard-response","335","2913366","0.0-13.0-3.70","a","COGS219_2020_25","Sounds/correct.wav","null","1","","","","","","",""
"null","","audio-keyboard-response","336","2914065","0.0-13.0-0.71","a","COGS219_2020_25","Sounds/whistle_label.wav","null","1","","","","","","",""
"null","","html-keyboard-response","337","2915060","0.0-13.0-1.71","a","COGS219_2020_25","<p style=""font-size: 48px;"">+</p>","null","1","","","","","","",""
"561.4000000059605","","image-keyboard-response","338","2915623","0.0-13.0-2.71","a","COGS219_2020_25","Images/gun_1.png","76","1","1582509245294","non-match","gun","whistle","label","test","true"
"null","","audio-keyboard-response","339","2917634","0.0-13.0-3.71","a","COGS219_2020_25","Sounds/correct.wav","null","1","","","","","","",""
"null","","audio-keyboard-response","340","2918645","0.0-13.0-0.72","a","COGS219_2020_25","Sounds/cow_sound.wav","null","1","","","","","","",""
"null","","html-keyboard-response","341","2919643","0.0-13.0-1.72","a","COGS219_2020_25","<p style=""font-size: 48px;"">+</p>","null","1","","","","","","",""
"490.5100000323728","","image-keyboard-response","342","2920135","0.0-13.0-2.72","a","COGS219_2020_25","Images/cow_1.png","65","1","1582509249877","match","cow","cow","sound","test","true"
"null","","audio-keyboard-response","343","2922138","0.0-13.0-3.72","a","COGS219_2020_25","Sounds/correct.wav","null","1","","","","","","",""
"null","","audio-keyboard-response","344","2923045","0.0-13.0-0.73","a","COGS219_2020_25","Sounds/frog_sound.wav","null","1","","","","","","",""
"null","","html-keyboard-response","345","2924044","0.0-13.0-1.73","a","COGS219_2020_25","<p style=""font-size: 48px;"">+</p>","null","1","","","","","","",""
"585.9850000124425","","image-keyboard-response","346","2924631","0.0-13.0-2.73","a","COGS219_2020_25","Images/motorcycle_cartoon.png","76","1","1582509254278","non-match","motorcycle","frog","sound","test","true"
"null","","audio-keyboard-response","347","2926637","0.0-13.0-3.73","a","COGS219_2020_25","Sounds/correct.wav","null","1","","","","","","",""
"null","","audio-keyboard-response","348","2927525","0.0-13.0-0.74","a","COGS219_2020_25","Sounds/frog_sound.wav","null","1","","","","","","",""
"null","","html-keyboard-response","349","2928544","0.0-13.0-1.74","a","COGS219_2020_25","<p style=""font-size: 48px;"">+</p>","null","1","","","","","","",""
"430.0400000065565","","image-keyboard-response","350","2928975","0.0-13.0-2.74","a","COGS219_2020_25","Images/cow_orig.png","76","1","1582509258778","non-match","cow","frog","sound","test","true"
"null","","audio-keyboard-response","351","2930982","0.0-13.0-3.74","a","COGS219_2020_25","Sounds/correct.wav","null","1","","","","","","",""
"null","","audio-keyboard-response","352","2931685","0.0-13.0-0.75","a","COGS219_2020_25","Sounds/rooster_label.wav","null","1","","","","","","",""
"null","","html-keyboard-response","353","2932677","0.0-13.0-1.75","a","COGS219_2020_25","<p style=""font-size: 48px;"">+</p>","null","1","","","","","","",""
"600.9049999993294","","image-keyboard-response","354","2933279","0.0-13.0-2.75","a","COGS219_2020_25","Images/car_1.png","76","1","1582509262911","non-match","car","rooster","label","test","true"
"null","","audio-keyboard-response","355","2935282","0.0-13.0-3.75","a","COGS219_2020_25","Sounds/correct.wav","null","1","","","","","","",""
"null","","audio-keyboard-response","356","2935865","0.0-13.0-0.76","a","COGS219_2020_25","Sounds/gun_sound.wav","null","1","","","","","","",""
"null","","html-keyboard-response","357","2936860","0.0-13.0-1.76","a","COGS219_2020_25","<p style=""font-size: 48px;"">+</p>","null","1","","","","","","",""
"521.210000035353","","image-keyboard-response","358","2937382","0.0-13.0-2.76","a","COGS219_2020_25","Images/gun_orig.png","65","1","1582509267094","match","gun","gun","sound","test","true"
"null","","audio-keyboard-response","359","2939386","0.0-13.0-3.76","a","COGS219_2020_25","Sounds/correct.wav","null","1","","","","","","",""
"null","","audio-keyboard-response","360","2939945","0.0-13.0-0.77","a","COGS219_2020_25","Sounds/gun_sound.wav","null","1","","","","","","",""
"null","","html-keyboard-response","361","2940943","0.0-13.0-1.77","a","COGS219_2020_25","<p style=""font-size: 48px;"">+</p>","null","1","","","","","","",""
"477.9199999757111","","image-keyboard-response","362","2941422","0.0-13.0-2.77","a","COGS219_2020_25","Images/cow_3.png","76","1","1582509271178","non-match","cow","gun","sound","test","true"
"null","","audio-keyboard-response","363","2943439","0.0-13.0-3.77","a","COGS219_2020_25","Sounds/correct.wav","null","1","","","","","","",""
"null","","audio-keyboard-response","364","2944725","0.0-13.0-0.78","a","COGS219_2020_25","Sounds/train_label.wav","null","1","","","","","","",""
"null","","html-keyboard-response","365","2945727","0.0-13.0-1.78","a","COGS219_2020_25","<p style=""font-size: 48px;"">+</p>","null","1","","","","","","",""
"470.9949999814853","","image-keyboard-response","366","2946199","0.0-13.0-2.78","a","COGS219_2020_25","Images/rooster_2.png","76","1","1582509275961","non-match","rooster","train","label","test","true"
"null","","audio-keyboard-response","367","2948213","0.0-13.0-3.78","a","COGS219_2020_25","Sounds/correct.wav","null","1","","","","","","",""
"null","","audio-keyboard-response","368","2949285","0.0-13.0-0.79","a","COGS219_2020_25","Sounds/car_sound.wav","null","1","","","","","","",""
"null","","html-keyboard-response","369","2950277","0.0-13.0-1.79","a","COGS219_2020_25","<p style=""font-size: 48px;"">+</p>","null","1","","","","","","",""
"448.4449999872595","","image-keyboard-response","370","2950727","0.0-13.0-2.79","a","COGS219_2020_25","Images/frog_3.png","76","1","1582509280511","non-match","frog","car","sound","test","true"
"null","","audio-keyboard-response","371","2952741","0.0-13.0-3.79","a","COGS219_2020_25","Sounds/correct.wav","null","1","","","","","","",""
"null","","audio-keyboard-response","372","2953825","0.0-13.0-0.80","a","COGS219_2020_25","Sounds/car_label.wav","null","1","","","","","","",""
"null","","html-keyboard-response","373","2954827","0.0-13.0-1.80","a","COGS219_2020_25","<p style=""font-size: 48px;"">+</p>","null","1","","","","","","",""
"1010.4849999770522","","image-keyboard-response","374","2955839","0.0-13.0-2.80","a","COGS219_2020_25","Images/car_cartoon.png","65","1","1582509285061","match","car","car","label","test","true"
"null","","audio-keyboard-response","375","2957849","0.0-13.0-3.80","a","COGS219_2020_25","Sounds/correct.wav","null","1","","","","","","",""
"null","","audio-keyboard-response","376","2958905","0.0-13.0-0.81","a","COGS219_2020_25","Sounds/car_sound.wav","null","1","","","","","","",""
"null","","html-keyboard-response","377","2959911","0.0-13.0-1.81","a","COGS219_2020_25","<p style=""font-size: 48px;"">+</p>","null","1","","","","","","",""
"879.14999993518","","image-keyboard-response","378","2960791","0.0-13.0-2.81","a","COGS219_2020_25","Images/car_3.png","65","1","1582509290145","match","car","car","sound","test","true"
"null","","audio-keyboard-response","379","2962809","0.0-13.0-3.81","a","COGS219_2020_25","Sounds/correct.wav","null","1","","","","","","",""
"null","","audio-keyboard-response","380","2964065","0.0-13.0-0.82","a","COGS219_2020_25","Sounds/train_label.wav","null","1","","","","","","",""
"null","","html-keyboard-response","381","2965061","0.0-13.0-1.82","a","COGS219_2020_25","<p style=""font-size: 48px;"">+</p>","null","1","","","","","","",""
"601.0050000622869","","image-keyboard-response","382","2965663","0.0-13.0-2.82","a","COGS219_2020_25","Images/train_1.png","65","1","1582509295295","match","train","train","label","test","true"
"null","","audio-keyboard-response","383","2967665","0.0-13.0-3.82","a","COGS219_2020_25","Sounds/correct.wav","null","1","","","","","","",""
"null","","audio-keyboard-response","384","2968565","0.0-13.0-0.83","a","COGS219_2020_25","Sounds/frog_label.wav","null","1","","","","","","",""
"null","","html-keyboard-response","385","2969561","0.0-13.0-1.83","a","COGS219_2020_25","<p style=""font-size: 48px;"">+</p>","null","1","","","","","","",""
"413.025000016205","","image-keyboard-response","386","2969975","0.0-13.0-2.83","a","COGS219_2020_25","Images/cat_orig.png","76","1","1582509299795","non-match","cat","frog","label","test","true"
"null","","audio-keyboard-response","387","2971990","0.0-13.0-3.83","a","COGS219_2020_25","Sounds/correct.wav","null","1","","","","","","",""
"null","","audio-keyboard-response","388","2973125","0.0-13.0-0.84","a","COGS219_2020_25","Sounds/motorcycle_label.wav","null","1","","","","","","",""
"null","","html-keyboard-response","389","2974127","0.0-13.0-1.84","a","COGS219_2020_25","<p style=""font-size: 48px;"">+</p>","null","1","","","","","","",""
"326.39499998185784","","image-keyboard-response","390","2974455","0.0-13.0-2.84","a","COGS219_2020_25","Images/motorcycle_orig.png","65","1","1582509304362","match","motorcycle","motorcycle","label","test","true"
"null","","audio-keyboard-response","391","2976469","0.0-13.0-3.84","a","COGS219_2020_25","Sounds/correct.wav","null","1","","","","","","",""
"null","","audio-keyboard-response","392","2977165","0.0-13.0-0.85","a","COGS219_2020_25","Sounds/rooster_sound.wav","null","1","","","","","","",""
"null","","html-keyboard-response","393","2978161","0.0-13.0-1.85","a","COGS219_2020_25","<p style=""font-size: 48px;"">+</p>","null","1","","","","","","",""
"363.03000000771135","","image-keyboard-response","394","2978527","0.0-13.0-2.85","a","COGS219_2020_25","Images/rooster_1.png","65","1","1582509308395","match","rooster","rooster","sound","test","true"
"null","","audio-keyboard-response","395","2980532","0.0-13.0-3.85","a","COGS219_2020_25","Sounds/correct.wav","null","1","","","","","","",""
"null","","audio-keyboard-response","396","2981545","0.0-13.0-0.86","a","COGS219_2020_25","Sounds/cow_label.wav","null","1","","","","","","",""
"null","","html-keyboard-response","397","2982544","0.0-13.0-1.86","a","COGS219_2020_25","<p style=""font-size: 48px;"">+</p>","null","1","","","","","","",""
"477.72000008262694","","image-keyboard-response","398","2983023","0.0-13.0-2.86","a","COGS219_2020_25","Images/rooster_3.png","76","1","1582509312778","non-match","rooster","cow","label","test","true"
"null","","audio-keyboard-response","399","2985039","0.0-13.0-3.86","a","COGS219_2020_25","Sounds/correct.wav","null","1","","","","","","",""
"null","","audio-keyboard-response","400","2986025","0.0-13.0-0.87","a","COGS219_2020_25","Sounds/cow_label.wav","null","1","","","","","","",""
"null","","html-keyboard-response","401","2987027","0.0-13.0-1.87","a","COGS219_2020_25","<p style=""font-size: 48px;"">+</p>","null","1","","","","","","",""
"402.3400000296533","","image-keyboard-response","402","2987431","0.0-13.0-2.87","a","COGS219_2020_25","Images/car_3.png","76","1","1582509317262","non-match","car","cow","label","test","true"
"null","","audio-keyboard-response","403","2989444","0.0-13.0-3.87","a","COGS219_2020_25","Sounds/correct.wav","null","1","","","","","","",""
"null","","audio-keyboard-response","404","2990285","0.0-13.0-0.88","a","COGS219_2020_25","Sounds/cat_label.wav","null","1","","","","","","",""
"null","","html-keyboard-response","405","2991277","0.0-13.0-1.88","a","COGS219_2020_25","<p style=""font-size: 48px;"">+</p>","null","1","","","","","","",""
"424.25500007811934","","image-keyboard-response","406","2991703","0.0-13.0-2.88","a","COGS219_2020_25","Images/cat_2.png","65","1","1582509321512","match","cat","cat","label","test","true"
"null","","audio-keyboard-response","407","2993714","0.0-13.0-3.88","a","COGS219_2020_25","Sounds/correct.wav","null","1","","","","","","",""
"null","","audio-keyboard-response","408","2995005","0.0-13.0-0.89","a","COGS219_2020_25","Sounds/train_sound.wav","null","1","","","","","","",""
"null","","html-keyboard-response","409","2996011","0.0-13.0-1.89","a","COGS219_2020_25","<p style=""font-size: 48px;"">+</p>","null","1","","","","","","",""
"522.4150000140071","","image-keyboard-response","410","2996535","0.0-13.0-2.89","a","COGS219_2020_25","Images/whistle_1.png","76","1","1582509326245","non-match","whistle","train","sound","test","true"
"null","","audio-keyboard-response","411","2998551","0.0-13.0-3.89","a","COGS219_2020_25","Sounds/correct.wav","null","1","","","","","","",""
"null","","audio-keyboard-response","412","2999125","0.0-13.0-0.90","a","COGS219_2020_25","Sounds/gun_sound.wav","null","1","","","","","","",""
"null","","html-keyboard-response","413","3000128","0.0-13.0-1.90","a","COGS219_2020_25","<p style=""font-size: 48px;"">+</p>","null","1","","","","","","",""
"446.23000000137836","","image-keyboard-response","414","3000575","0.0-13.0-2.90","a","COGS219_2020_25","Images/frog_cartoon.png","76","1","1582509330362","non-match","frog","gun","sound","test","true"
"null","","audio-keyboard-response","415","3002591","0.0-13.0-3.90","a","COGS219_2020_25","Sounds/correct.wav","null","1","","","","","","",""
"null","","audio-keyboard-response","416","3003585","0.0-13.0-0.91","a","COGS219_2020_25","Sounds/cow_label.wav","null","1","","","","","","",""
"null","","html-keyboard-response","417","3004578","0.0-13.0-1.91","a","COGS219_2020_25","<p style=""font-size: 48px;"">+</p>","null","1","","","","","","",""
"635.950000025332","","image-keyboard-response","418","3005215","0.0-13.0-2.91","a","COGS219_2020_25","Images/train_3.png","76","1","1582509334812","non-match","train","cow","label","test","true"
"null","","audio-keyboard-response","419","3007229","0.0-13.0-3.91","a","COGS219_2020_25","Sounds/correct.wav","null","1","","","","","","",""
"null","","audio-keyboard-response","420","3008505","0.0-13.0-0.92","a","COGS219_2020_25","Sounds/train_label.wav","null","1","","","","","","",""
"null","","html-keyboard-response","421","3009511","0.0-13.0-1.92","a","COGS219_2020_25","<p style=""font-size: 48px;"">+</p>","null","1","","","","","","",""
"422.3500000080094","","image-keyboard-response","422","3009935","0.0-13.0-2.92","a","COGS219_2020_25","Images/dog_3.png","76","1","1582509339745","non-match","dog","train","label","test","true"
"null","","audio-keyboard-response","423","3011947","0.0-13.0-3.92","a","COGS219_2020_25","Sounds/correct.wav","null","1","","","","","","",""
"null","","audio-keyboard-response","424","3013086","0.0-13.0-0.93","a","COGS219_2020_25","Sounds/motorcycle_label.wav","null","1","","","","","","",""
"null","","html-keyboard-response","425","3014078","0.0-13.0-1.93","a","COGS219_2020_25","<p style=""font-size: 48px;"">+</p>","null","1","","","","","","",""
"494.41000004298985","","image-keyboard-response","426","3014576","0.0-13.0-2.93","a","COGS219_2020_25","Images/motorcycle_1.png","65","1","1582509344313","match","motorcycle","motorcycle","label","test","true"
"null","","audio-keyboard-response","427","3016589","0.0-13.0-3.93","a","COGS219_2020_25","Sounds/correct.wav","null","1","","","","","","",""
"null","","audio-keyboard-response","428","3017166","0.0-13.0-0.94","a","COGS219_2020_25","Sounds/gun_label.wav","null","1","","","","","","",""
"null","","html-keyboard-response","429","3018162","0.0-13.0-1.94","a","COGS219_2020_25","<p style=""font-size: 48px;"">+</p>","null","1","","","","","","",""
"572.455000015907","","image-keyboard-response","430","3018735","0.0-13.0-2.94","a","COGS219_2020_25","Images/train_orig.png","76","1","1582509348396","non-match","train","gun","label","test","true"
"null","","audio-keyboard-response","431","3020746","0.0-13.0-3.94","a","COGS219_2020_25","Sounds/correct.wav","null","1","","","","","","",""
"null","","audio-keyboard-response","432","3022046","0.0-13.0-0.95","a","COGS219_2020_25","Sounds/train_sound.wav","null","1","","","","","","",""
"null","","html-keyboard-response","433","3023045","0.0-13.0-1.95","a","COGS219_2020_25","<p style=""font-size: 48px;"">+</p>","null","1","","","","","","",""
"544.0349999116734","","image-keyboard-response","434","3023591","0.0-13.0-2.95","a","COGS219_2020_25","Images/gun_orig.png","76","1","1582509353279","non-match","gun","train","sound","test","true"
"null","","audio-keyboard-response","435","3025607","0.0-13.0-3.95","a","COGS219_2020_25","Sounds/correct.wav","null","1","","","","","","",""
"null","","audio-keyboard-response","436","3026306","0.0-13.0-0.96","a","COGS219_2020_25","Sounds/dog_sound.wav","null","1","","","","","","",""
"null","","html-keyboard-response","437","3027295","0.0-13.0-1.96","a","COGS219_2020_25","<p style=""font-size: 48px;"">+</p>","null","1","","","","","","",""
"447.165000019595","","image-keyboard-response","438","3027744","0.0-13.0-2.96","a","COGS219_2020_25","Images/dog_3.png","65","1","1582509357529","match","dog","dog","sound","test","true"
"null","","audio-keyboard-response","439","3029747","0.0-13.0-3.96","a","COGS219_2020_25","Sounds/correct.wav","null","1","","","","","","",""
"null","","audio-keyboard-response","440","3030646","0.0-13.0-0.97","a","COGS219_2020_25","Sounds/frog_sound.wav","null","1","","","","","","",""
"null","","html-keyboard-response","441","3031645","0.0-13.0-1.97","a","COGS219_2020_25","<p style=""font-size: 48px;"">+</p>","null","1","","","","","","",""
"777.0849999506027","","image-keyboard-response","442","3032423","0.0-13.0-2.97","a","COGS219_2020_25","Images/frog_2.png","65","1","1582509361879","match","frog","frog","sound","test","true"
"null","","audio-keyboard-response","443","3034435","0.0-13.0-3.97","a","COGS219_2020_25","Sounds/correct.wav","null","1","","","","","","",""
"null","","audio-keyboard-response","444","3035266","0.0-13.0-0.98","a","COGS219_2020_25","Sounds/cat_label.wav","null","1","","","","","","",""
"null","","html-keyboard-response","445","3036262","0.0-13.0-1.98","a","COGS219_2020_25","<p style=""font-size: 48px;"">+</p>","null","1","","","","","","",""
"584.3399999430403","","image-keyboard-response","446","3036847","0.0-13.0-2.98","a","COGS219_2020_25","Images/cat_3.png","65","1","1582509366496","match","cat","cat","label","test","true"
"null","","audio-keyboard-response","447","3038852","0.0-13.0-3.98","a","COGS219_2020_25","Sounds/correct.wav","null","1","","","","","","",""
"null","","audio-keyboard-response","448","3039426","0.0-13.0-0.99","a","COGS219_2020_25","Sounds/gun_label.wav","null","1","","","","","","",""
"null","","html-keyboard-response","449","3040429","0.0-13.0-1.99","a","COGS219_2020_25","<p style=""font-size: 48px;"">+</p>","null","1","","","","","","",""
"593.8499999465421","","image-keyboard-response","450","3041024","0.0-13.0-2.99","a","COGS219_2020_25","Images/whistle_3.png","76","1","1582509370663","non-match","whistle","gun","label","test","true"
"null","","audio-keyboard-response","451","3043032","0.0-13.0-3.99","a","COGS219_2020_25","Sounds/correct.wav","null","1","","","","","","",""
"23351.325000054203","","html-keyboard-response","452","3066384","0.0-14.0","a","COGS219_2020_25","<p>Please take this opportunity to rest your eyes before proceeding.</p><p>When ready, press the enter key to continue to the next set of trials.</p>","76","","","","","","","",""
"null","","audio-keyboard-response","453","3069120","0.0-15.0-0.0","a","COGS219_2020_25","Sounds/rooster_sound.wav","null","2","","","","","","",""
"null","","html-keyboard-response","454","3070112","0.0-15.0-1.0","a","COGS219_2020_25","<p style=""font-size: 48px;"">+</p>","null","2","","","","","","",""
"588.895000051707","","image-keyboard-response","455","3070703","0.0-15.0-2.0","a","COGS219_2020_25","Images/rooster_cartoon.png","65","2","1582509400347","match","rooster","rooster","sound","test","true"
"null","","audio-keyboard-response","456","3072717","0.0-15.0-3.0","a","COGS219_2020_25","Sounds/correct.wav","null","2","","","","","","",""
"null","","audio-keyboard-response","457","3074021","0.0-15.0-0.1","a","COGS219_2020_25","Sounds/train_sound.wav","null","2","","","","","","",""
"null","","html-keyboard-response","458","3075014","0.0-15.0-1.1","a","COGS219_2020_25","<p style=""font-size: 48px;"">+</p>","null","2","","","","","","",""
"465.83999996073544","","image-keyboard-response","459","3075480","0.0-15.0-2.1","a","COGS219_2020_25","Images/train_2.png","65","2","1582509405248","match","train","train","sound","test","true"
"null","","audio-keyboard-response","460","3077493","0.0-15.0-3.1","a","COGS219_2020_25","Sounds/correct.wav","null","2","","","","","","",""
"null","","audio-keyboard-response","461","3078181","0.0-15.0-0.2","a","COGS219_2020_25","Sounds/whistle_sound.wav","null","2","","","","","","",""
"null","","html-keyboard-response","462","3079180","0.0-15.0-1.2","a","COGS219_2020_25","<p style=""font-size: 48px;"">+</p>","null","2","","","","","","",""
"467.2949999803677","","image-keyboard-response","463","3079649","0.0-15.0-2.2","a","COGS219_2020_25","Images/cat_2.png","76","2","1582509409414","non-match","cat","whistle","sound","test","true"
"null","","audio-keyboard-response","464","3081659","0.0-15.0-3.2","a","COGS219_2020_25","Sounds/correct.wav","null","2","","","","","","",""
"null","","audio-keyboard-response","465","3082561","0.0-15.0-0.3","a","COGS219_2020_25","Sounds/frog_sound.wav","null","2","","","","","","",""
"null","","html-keyboard-response","466","3083564","0.0-15.0-1.3","a","COGS219_2020_25","<p style=""font-size: 48px;"">+</p>","null","2","","","","","","",""
"411.59500007051975","","image-keyboard-response","467","3083976","0.0-15.0-2.3","a","COGS219_2020_25","Images/gun_orig.png","76","2","1582509413798","non-match","gun","frog","sound","test","true"
"null","","audio-keyboard-response","468","3085981","0.0-15.0-3.3","a","COGS219_2020_25","Sounds/correct.wav","null","2","","","","","","",""
"null","","audio-keyboard-response","469","3086821","0.0-15.0-0.4","a","COGS219_2020_25","Sounds/cat_sound.wav","null","2","","","","","","",""
"null","","html-keyboard-response","470","3087814","0.0-15.0-1.4","a","COGS219_2020_25","<p style=""font-size: 48px;"">+</p>","null","2","","","","","","",""
"417.61000000406057","","image-keyboard-response","471","3088232","0.0-15.0-2.4","a","COGS219_2020_25","Images/cat_1.png","65","2","1582509418048","match","cat","cat","sound","test","true"
"null","","audio-keyboard-response","472","3090248","0.0-15.0-3.4","a","COGS219_2020_25","Sounds/correct.wav","null","2","","","","","","",""
"null","","audio-keyboard-response","473","3091081","0.0-15.0-0.5","a","COGS219_2020_25","Sounds/cat_label.wav","null","2","","","","","","",""
"null","","html-keyboard-response","474","3092080","0.0-15.0-1.5","a","COGS219_2020_25","<p style=""font-size: 48px;"">+</p>","null","2","","","","","","",""
"455.3849999792874","","image-keyboard-response","475","3092537","0.0-15.0-2.5","a","COGS219_2020_25","Images/cat_cartoon.png","65","2","1582509422314","match","cat","cat","label","test","true"
"null","","audio-keyboard-response","476","3094545","0.0-15.0-3.5","a","COGS219_2020_25","Sounds/correct.wav","null","2","","","","","","",""
"null","","audio-keyboard-response","477","3095241","0.0-15.0-0.6","a","COGS219_2020_25","Sounds/rooster_label.wav","null","2","","","","","","",""
"null","","html-keyboard-response","478","3096230","0.0-15.0-1.6","a","COGS219_2020_25","<p style=""font-size: 48px;"">+</p>","null","2","","","","","","",""
"536.9499999796972","","image-keyboard-response","479","3096768","0.0-15.0-2.6","a","COGS219_2020_25","Images/rooster_orig.png","65","2","1582509426465","match","rooster","rooster","label","test","true"
"null","","audio-keyboard-response","480","3098773","0.0-15.0-3.6","a","COGS219_2020_25","Sounds/correct.wav","null","2","","","","","","",""
"null","","audio-keyboard-response","481","3099841","0.0-15.0-0.7","a","COGS219_2020_25","Sounds/car_sound.wav","null","2","","","","","","",""
"null","","html-keyboard-response","482","3100847","0.0-15.0-1.7","a","COGS219_2020_25","<p style=""font-size: 48px;"">+</p>","null","2","","","","","","",""
"575.8849999401718","","image-keyboard-response","483","3101424","0.0-15.0-2.7","a","COGS219_2020_25","Images/car_2.png","65","2","1582509431081","match","car","car","sound","test","true"
"null","","audio-keyboard-response","484","3103435","0.0-15.0-3.7","a","COGS219_2020_25","Sounds/correct.wav","null","2","","","","","","",""
"null","","audio-keyboard-response","485","3104561","0.0-15.0-0.8","a","COGS219_2020_25","Sounds/motorcycle_sound.wav","null","2","","","","","","",""
"null","","html-keyboard-response","486","3105564","0.0-15.0-1.8","a","COGS219_2020_25","<p style=""font-size: 48px;"">+</p>","null","2","","","","","","",""
"547.9250000789762","","image-keyboard-response","487","3106113","0.0-15.0-2.8","a","COGS219_2020_25","Images/motorcycle_1.png","65","2","1582509435798","match","motorcycle","motorcycle","sound","test","true"
"null","","audio-keyboard-response","488","3108121","0.0-15.0-3.8","a","COGS219_2020_25","Sounds/correct.wav","null","2","","","","","","",""
"null","","audio-keyboard-response","489","3108781","0.0-15.0-0.9","a","COGS219_2020_25","Sounds/dog_label.wav","null","2","","","","","","",""
"null","","html-keyboard-response","490","3109780","0.0-15.0-1.9","a","COGS219_2020_25","<p style=""font-size: 48px;"">+</p>","null","2","","","","","","",""
"426.865000044927","","image-keyboard-response","491","3110208","0.0-15.0-2.9","a","COGS219_2020_25","Images/dog_cartoon.png","65","2","1582509440015","match","dog","dog","label","test","true"
"null","","audio-keyboard-response","492","3112217","0.0-15.0-3.9","a","COGS219_2020_25","Sounds/correct.wav","null","2","","","","","","",""
"null","","audio-keyboard-response","493","3113301","0.0-15.0-0.10","a","COGS219_2020_25","Sounds/car_label.wav","null","2","","","","","","",""
"null","","html-keyboard-response","494","3114297","0.0-15.0-1.10","a","COGS219_2020_25","<p style=""font-size: 48px;"">+</p>","null","2","","","","","","",""
"414.11000001244247","","image-keyboard-response","495","3114712","0.0-15.0-2.10","a","COGS219_2020_25","Images/dog_2.png","76","2","1582509444531","non-match","dog","car","label","test","true"
"null","","audio-keyboard-response","496","3116716","0.0-15.0-3.10","a","COGS219_2020_25","Sounds/correct.wav","null","2","","","","","","",""
"null","","audio-keyboard-response","497","3117621","0.0-15.0-0.11","a","COGS219_2020_25","Sounds/frog_sound.wav","null","2","","","","","","",""
"null","","html-keyboard-response","498","3118614","0.0-15.0-1.11","a","COGS219_2020_25","<p style=""font-size: 48px;"">+</p>","null","2","","","","","","",""
"433.71000001206994","","image-keyboard-response","499","3119049","0.0-15.0-2.11","a","COGS219_2020_25","Images/frog_cartoon.png","65","2","1582509448848","match","frog","frog","sound","test","true"
"null","","audio-keyboard-response","500","3121064","0.0-15.0-3.11","a","COGS219_2020_25","Sounds/correct.wav","null","2","","","","","","",""
"null","","audio-keyboard-response","501","3122161","0.0-15.0-0.12","a","COGS219_2020_25","Sounds/motorcycle_sound.wav","null","2","","","","","","",""
"null","","html-keyboard-response","502","3123164","0.0-15.0-1.12","a","COGS219_2020_25","<p style=""font-size: 48px;"">+</p>","null","2","","","","","","",""
"475.3400000045076","","image-keyboard-response","503","3123640","0.0-15.0-2.12","a","COGS219_2020_25","Images/cat_3.png","76","2","1582509453398","non-match","cat","motorcycle","sound","test","true"
"null","","audio-keyboard-response","504","3125644","0.0-15.0-3.12","a","COGS219_2020_25","Sounds/correct.wav","null","2","","","","","","",""
"null","","audio-keyboard-response","505","3126721","0.0-15.0-0.13","a","COGS219_2020_25","Sounds/car_sound.wav","null","2","","","","","","",""
"null","","html-keyboard-response","506","3127714","0.0-15.0-1.13","a","COGS219_2020_25","<p style=""font-size: 48px;"">+</p>","null","2","","","","","","",""
"389.47499997448176","","image-keyboard-response","507","3128105","0.0-15.0-2.13","a","COGS219_2020_25","Images/cat_orig.png","76","2","1582509457948","non-match","cat","car","sound","test","true"
"null","","audio-keyboard-response","508","3130117","0.0-15.0-3.13","a","COGS219_2020_25","Sounds/correct.wav","null","2","","","","","","",""
"null","","audio-keyboard-response","509","3130701","0.0-15.0-0.14","a","COGS219_2020_25","Sounds/gun_label.wav","null","2","","","","","","",""
"null","","html-keyboard-response","510","3131697","0.0-15.0-1.14","a","COGS219_2020_25","<p style=""font-size: 48px;"">+</p>","null","2","","","","","","",""
"670.2900000382215","","image-keyboard-response","511","3132369","0.0-15.0-2.14","a","COGS219_2020_25","Images/gun_2.png","65","2","1582509461932","match","gun","gun","label","test","true"
"null","","audio-keyboard-response","512","3134378","0.0-15.0-3.14","a","COGS219_2020_25","Sounds/correct.wav","null","2","","","","","","",""
"null","","audio-keyboard-response","513","3135082","0.0-15.0-0.15","a","COGS219_2020_25","Sounds/whistle_label.wav","null","2","","","","","","",""
"null","","html-keyboard-response","514","3136081","0.0-15.0-1.15","a","COGS219_2020_25","<p style=""font-size: 48px;"">+</p>","null","2","","","","","","",""
"398.7200000556186","","image-keyboard-response","515","3136481","0.0-15.0-2.15","a","COGS219_2020_25","Images/whistle_1.png","65","2","1582509466315","match","whistle","whistle","label","test","true"
"null","","audio-keyboard-response","516","3138484","0.0-15.0-3.15","a","COGS219_2020_25","Sounds/correct.wav","null","2","","","","","","",""
"null","","audio-keyboard-response","517","3139781","0.0-15.0-0.16","a","COGS219_2020_25","Sounds/train_sound.wav","null","2","","","","","","",""
"null","","html-keyboard-response","518","3140781","0.0-15.0-1.16","a","COGS219_2020_25","<p style=""font-size: 48px;"">+</p>","null","2","","","","","","",""
"466.0049999365583","","image-keyboard-response","519","3141249","0.0-15.0-2.16","a","COGS219_2020_25","Images/train_orig.png","65","2","1582509471015","match","train","train","sound","test","true"
"null","","audio-keyboard-response","520","3143253","0.0-15.0-3.16","a","COGS219_2020_25","Sounds/correct.wav","null","2","","","","","","",""
"null","","audio-keyboard-response","521","3144082","0.0-15.0-0.17","a","COGS219_2020_25","Sounds/cat_sound.wav","null","2","","","","","","",""
"null","","html-keyboard-response","522","3145081","0.0-15.0-1.17","a","COGS219_2020_25","<p style=""font-size: 48px;"">+</p>","null","2","","","","","","",""
"414.8849999764934","","image-keyboard-response","523","3145497","0.0-15.0-2.17","a","COGS219_2020_25","Images/rooster_3.png","76","2","1582509475315","non-match","rooster","cat","sound","test","true"
"null","","audio-keyboard-response","524","3147514","0.0-15.0-3.17","a","COGS219_2020_25","Sounds/correct.wav","null","2","","","","","","",""
"null","","audio-keyboard-response","525","3148161","0.0-15.0-0.18","a","COGS219_2020_25","Sounds/dog_label.wav","null","2","","","","","","",""
"null","","html-keyboard-response","526","3149165","0.0-15.0-1.18","a","COGS219_2020_25","<p style=""font-size: 48px;"">+</p>","null","2","","","","","","",""
"467.11000008508563","","image-keyboard-response","527","3149633","0.0-15.0-2.18","a","COGS219_2020_25","Images/frog_cartoon.png","76","2","1582509479399","non-match","frog","dog","label","test","true"
"null","","audio-keyboard-response","528","3151645","0.0-15.0-3.18","a","COGS219_2020_25","Sounds/correct.wav","null","2","","","","","","",""
"null","","audio-keyboard-response","529","3152321","0.0-15.0-0.19","a","COGS219_2020_25","Sounds/whistle_label.wav","null","2","","","","","","",""
"null","","html-keyboard-response","530","3153315","0.0-15.0-1.19","a","COGS219_2020_25","<p style=""font-size: 48px;"">+</p>","null","2","","","","","","",""
"397.0299999928102","","image-keyboard-response","531","3153713","0.0-15.0-2.19","a","COGS219_2020_25","Images/whistle_2.png","65","2","1582509483549","match","whistle","whistle","label","test","true"
"null","","audio-keyboard-response","532","3155717","0.0-15.0-3.19","a","COGS219_2020_25","Sounds/correct.wav","null","2","","","","","","",""
"null","","audio-keyboard-response","533","3156802","0.0-15.0-0.20","a","COGS219_2020_25","Sounds/car_sound.wav","null","2","","","","","","",""
"null","","html-keyboard-response","534","3157798","0.0-15.0-1.20","a","COGS219_2020_25","<p style=""font-size: 48px;"">+</p>","null","2","","","","","","",""
"569.8799999663606","","image-keyboard-response","535","3158369","0.0-15.0-2.20","a","COGS219_2020_25","Images/frog_2.png","76","2","1582509488032","non-match","frog","car","sound","test","true"
"null","","audio-keyboard-response","536","3160372","0.0-15.0-3.20","a","COGS219_2020_25","Sounds/correct.wav","null","2","","","","","","",""
"null","","audio-keyboard-response","537","3161441","0.0-15.0-0.21","a","COGS219_2020_25","Sounds/car_label.wav","null","2","","","","","","",""
"null","","html-keyboard-response","538","3162431","0.0-15.0-1.21","a","COGS219_2020_25","<p style=""font-size: 48px;"">+</p>","null","2","","","","","","",""
"400.3549999324605","","image-keyboard-response","539","3162833","0.0-15.0-2.21","a","COGS219_2020_25","Images/car_orig.png","65","2","1582509492666","match","car","car","label","test","true"
"null","","audio-keyboard-response","540","3164850","0.0-15.0-3.21","a","COGS219_2020_25","Sounds/correct.wav","null","2","","","","","","",""
"null","","audio-keyboard-response","541","3165421","0.0-15.0-0.22","a","COGS219_2020_25","Sounds/gun_sound.wav","null","2","","","","","","",""
"null","","html-keyboard-response","542","3166415","0.0-15.0-1.22","a","COGS219_2020_25","<p style=""font-size: 48px;"">+</p>","null","2","","","","","","",""
"696.9800000078976","","image-keyboard-response","543","3167113","0.0-15.0-2.22","a","COGS219_2020_25","Images/motorcycle_3.png","76","2","1582509496649","non-match","motorcycle","gun","sound","test","true"
"null","","audio-keyboard-response","544","3169127","0.0-15.0-3.22","a","COGS219_2020_25","Sounds/correct.wav","null","2","","","","","","",""
"null","","audio-keyboard-response","545","3170261","0.0-15.0-0.23","a","COGS219_2020_25","Sounds/motorcycle_label.wav","null","2","","","","","","",""
"null","","html-keyboard-response","546","3171265","0.0-15.0-1.23","a","COGS219_2020_25","<p style=""font-size: 48px;"">+</p>","null","2","","","","","","",""
"543.2300000684336","","image-keyboard-response","547","3171809","0.0-15.0-2.23","a","COGS219_2020_25","Images/whistle_orig.png","76","2","1582509501499","non-match","whistle","motorcycle","label","test","true"
"null","","audio-keyboard-response","548","3173820","0.0-15.0-3.23","a","COGS219_2020_25","Sounds/correct.wav","null","2","","","","","","",""
"null","","audio-keyboard-response","549","3174721","0.0-15.0-0.24","a","COGS219_2020_25","Sounds/frog_label.wav","null","2","","","","","","",""
"null","","html-keyboard-response","550","3175715","0.0-15.0-1.24","a","COGS219_2020_25","<p style=""font-size: 48px;"">+</p>","null","2","","","","","","",""
"532.7950000064448","","image-keyboard-response","551","3176249","0.0-15.0-2.24","a","COGS219_2020_25","Images/frog_2.png","65","2","1582509505949","match","frog","frog","label","test","true"
"null","","audio-keyboard-response","552","3178256","0.0-15.0-3.24","a","COGS219_2020_25","Sounds/correct.wav","null","2","","","","","","",""
"null","","audio-keyboard-response","553","3178941","0.0-15.0-0.25","a","COGS219_2020_25","Sounds/whistle_sound.wav","null","2","","","","","","",""
"null","","html-keyboard-response","554","3179932","0.0-15.0-1.25","a","COGS219_2020_25","<p style=""font-size: 48px;"">+</p>","null","2","","","","","","",""
"740.1199999731034","","image-keyboard-response","555","3180673","0.0-15.0-2.25","a","COGS219_2020_25","Images/whistle_3.png","65","2","1582509510166","match","whistle","whistle","sound","test","true"
"null","","audio-keyboard-response","556","3182690","0.0-15.0-3.25","a","COGS219_2020_25","Sounds/correct.wav","null","2","","","","","","",""
"null","","audio-keyboard-response","557","3183801","0.0-15.0-0.26","a","COGS219_2020_25","Sounds/motorcycle_label.wav","null","2","","","","","","",""
"null","","html-keyboard-response","558","3184798","0.0-15.0-1.26","a","COGS219_2020_25","<p style=""font-size: 48px;"">+</p>","null","2","","","","","","",""
"447.50999996904284","","image-keyboard-response","559","3185249","0.0-15.0-2.26","a","COGS219_2020_25","Images/frog_3.png","76","2","1582509515032","non-match","frog","motorcycle","label","test","true"
"null","","audio-keyboard-response","560","3187263","0.0-15.0-3.26","a","COGS219_2020_25","Sounds/correct.wav","null","2","","","","","","",""
"null","","audio-keyboard-response","561","3187941","0.0-15.0-0.27","a","COGS219_2020_25","Sounds/whistle_sound.wav","null","2","","","","","","",""
"null","","html-keyboard-response","562","3188932","0.0-15.0-1.27","a","COGS219_2020_25","<p style=""font-size: 48px;"">+</p>","null","2","","","","","","",""
"419.8149999137968","","image-keyboard-response","563","3189353","0.0-15.0-2.27","a","COGS219_2020_25","Images/whistle_orig.png","65","2","1582509519166","match","whistle","whistle","sound","test","true"
"null","","audio-keyboard-response","564","3191366","0.0-15.0-3.27","a","COGS219_2020_25","Sounds/correct.wav","null","2","","","","","","",""
"null","","audio-keyboard-response","565","3192062","0.0-15.0-0.28","a","COGS219_2020_25","Sounds/rooster_sound.wav","null","2","","","","","","",""
"null","","html-keyboard-response","566","3193065","0.0-15.0-1.28","a","COGS219_2020_25","<p style=""font-size: 48px;"">+</p>","null","2","","","","","","",""
"406.2199998879805","","image-keyboard-response","567","3193473","0.0-15.0-2.28","a","COGS219_2020_25","Images/rooster_3.png","65","2","1582509523299","match","rooster","rooster","sound","test","true"
"null","","audio-keyboard-response","568","3195485","0.0-15.0-3.28","a","COGS219_2020_25","Sounds/correct.wav","null","2","","","","","","",""
"null","","audio-keyboard-response","569","3196502","0.0-15.0-0.29","a","COGS219_2020_25","Sounds/cow_label.wav","null","2","","","","","","",""
"null","","html-keyboard-response","570","3197499","0.0-15.0-1.29","a","COGS219_2020_25","<p style=""font-size: 48px;"">+</p>","null","2","","","","","","",""
"549.5850000297651","","image-keyboard-response","571","3198050","0.0-15.0-2.29","a","COGS219_2020_25","Images/dog_cartoon.png","76","2","1582509527733","non-match","dog","cow","label","test","true"
"null","","audio-keyboard-response","572","3200059","0.0-15.0-3.29","a","COGS219_2020_25","Sounds/correct.wav","null","2","","","","","","",""
"null","","audio-keyboard-response","573","3200902","0.0-15.0-0.30","a","COGS219_2020_25","Sounds/cat_label.wav","null","2","","","","","","",""
"null","","html-keyboard-response","574","3201899","0.0-15.0-1.30","a","COGS219_2020_25","<p style=""font-size: 48px;"">+</p>","null","2","","","","","","",""
"421.14999995101243","","image-keyboard-response","575","3202322","0.0-15.0-2.30","a","COGS219_2020_25","Images/cat_3.png","65","2","1582509532133","match","cat","cat","label","test","true"
"null","","audio-keyboard-response","576","3204332","0.0-15.0-3.30","a","COGS219_2020_25","Sounds/correct.wav","null","2","","","","","","",""
"null","","audio-keyboard-response","577","3204982","0.0-15.0-0.31","a","COGS219_2020_25","Sounds/dog_label.wav","null","2","","","","","","",""
"null","","html-keyboard-response","578","3205983","0.0-15.0-1.31","a","COGS219_2020_25","<p style=""font-size: 48px;"">+</p>","null","2","","","","","","",""
"473.71000004932284","","image-keyboard-response","579","3206457","0.0-15.0-2.31","a","COGS219_2020_25","Images/motorcycle_2.png","76","2","1582509536217","non-match","motorcycle","dog","label","test","true"
"null","","audio-keyboard-response","580","3208470","0.0-15.0-3.31","a","COGS219_2020_25","Sounds/correct.wav","null","2","","","","","","",""
"null","","audio-keyboard-response","581","3209482","0.0-15.0-0.32","a","COGS219_2020_25","Sounds/cow_sound.wav","null","2","","","","","","",""
"null","","html-keyboard-response","582","3210483","0.0-15.0-1.32","a","COGS219_2020_25","<p style=""font-size: 48px;"">+</p>","null","2","","","","","","",""
"460.74000000953674","","image-keyboard-response","583","3210946","0.0-15.0-2.32","a","COGS219_2020_25","Images/cow_3.png","65","2","1582509540717","match","cow","cow","sound","test","true"
"null","","audio-keyboard-response","584","3212962","0.0-15.0-3.32","a","COGS219_2020_25","Sounds/correct.wav","null","2","","","","","","",""
"null","","audio-keyboard-response","585","3213662","0.0-15.0-0.33","a","COGS219_2020_25","Sounds/rooster_sound.wav","null","2","","","","","","",""
"null","","html-keyboard-response","586","3214666","0.0-15.0-1.33","a","COGS219_2020_25","<p style=""font-size: 48px;"">+</p>","null","2","","","","","","",""
"326.340000028722","","image-keyboard-response","587","3214994","0.0-15.0-2.33","a","COGS219_2020_25","Images/rooster_1.png","65","2","1582509544900","match","rooster","rooster","sound","test","true"
"null","","audio-keyboard-response","588","3217007","0.0-15.0-3.33","a","COGS219_2020_25","Sounds/correct.wav","null","2","","","","","","",""
"null","","audio-keyboard-response","589","3217722","0.0-15.0-0.34","a","COGS219_2020_25","Sounds/dog_sound.wav","null","2","","","","","","",""
"null","","html-keyboard-response","590","3218716","0.0-15.0-1.34","a","COGS219_2020_25","<p style=""font-size: 48px;"">+</p>","null","2","","","","","","",""
"492.2950000036508","","image-keyboard-response","591","3219210","0.0-15.0-2.34","a","COGS219_2020_25","Images/gun_2.png","76","2","1582509548950","non-match","gun","dog","sound","test","true"
"null","","audio-keyboard-response","592","3221221","0.0-15.0-3.34","a","COGS219_2020_25","Sounds/correct.wav","null","2","","","","","","",""
"null","","audio-keyboard-response","593","3221922","0.0-15.0-0.35","a","COGS219_2020_25","Sounds/whistle_sound.wav","null","2","","","","","","",""
"null","","html-keyboard-response","594","3222916","0.0-15.0-1.35","a","COGS219_2020_25","<p style=""font-size: 48px;"">+</p>","null","2","","","","","","",""
"516.4400000358","","image-keyboard-response","595","3223434","0.0-15.0-2.35","a","COGS219_2020_25","Images/cow_3.png","65","2","1582509553150","non-match","cow","whistle","sound","test","false"
"null","","audio-keyboard-response","596","3225442","0.0-15.0-3.35","a","COGS219_2020_25","Sounds/incorrect.wav","null","2","","","","","","",""
"null","","audio-keyboard-response","597","3226122","0.0-15.0-0.36","a","COGS219_2020_25","Sounds/whistle_sound.wav","null","2","","","","","","",""
"null","","html-keyboard-response","598","3227116","0.0-15.0-1.36","a","COGS219_2020_25","<p style=""font-size: 48px;"">+</p>","null","2","","","","","","",""
"684.2800000449643","","image-keyboard-response","599","3227802","0.0-15.0-2.36","a","COGS219_2020_25","Images/train_1.png","76","2","1582509557351","non-match","train","whistle","sound","test","true"
"null","","audio-keyboard-response","600","3229805","0.0-15.0-3.36","a","COGS219_2020_25","Sounds/correct.wav","null","2","","","","","","",""
"null","","audio-keyboard-response","601","3230922","0.0-15.0-0.37","a","COGS219_2020_25","Sounds/motorcycle_sound.wav","null","2","","","","","","",""
"null","","html-keyboard-response","602","3231916","0.0-15.0-1.37","a","COGS219_2020_25","<p style=""font-size: 48px;"">+</p>","null","2","","","","","","",""
"884.3200000701472","","image-keyboard-response","603","3232802","0.0-15.0-2.37","a","COGS219_2020_25","Images/motorcycle_cartoon.png","65","2","1582509562150","match","motorcycle","motorcycle","sound","test","true"
"null","","audio-keyboard-response","604","3234815","0.0-15.0-3.37","a","COGS219_2020_25","Sounds/correct.wav","null","2","","","","","","",""
