"rt","responses","trial_type","trial_index","time_elapsed","internal_node_id","match_key","participant_id","stimulus","key_press","block","stim_onset","match_type","image_category","sound_category","audio_type","phase","correct"
"17664.10999999789","{""Q0"":""11""}","survey-text","0","17711","0.0-0.0","a","11","","","","","","","","","",""
"33726.75499999605","","html-keyboard-response","1","51449","0.0-1.0","a","11","<p>Use KEYBOARD 2 (match LEFT)</p><p>Press MATCH to continue.</p>","65","","","","","","","",""
"2945357.335000008","","html-keyboard-response","2","2995676","0.0-2.0","a","11","<p>Welcome to the experiment.</p>","32","","","","","","","",""
"16120.720000006258","","html-keyboard-response","3","3011804","0.0-3.0","a","11","<p>Thank you for agreeing to participate in this study.</p><p>If during any part of the procedure you must stop for any reason, please inform the researcher that you do not wish to continue.</p>","32","","","","","","","",""
"24862.630000003148","","html-keyboard-response","4","3036668","0.0-4.0","a","11","<p>In this experiment, you will hear various words or sounds and see pictures of various animals and objects.</p><p>Most of the images will be of common everyday objects, such as cars, cats, cows, firearms, frogs, chickens, whistles, trains, motorcycles, and dogs.</p><p>Some of the images will be real-life stills, while others will be cartoons.</p>","32","","","","","","","",""
"20214.980000004638","","html-keyboard-response","5","3056880","0.0-5.0","a","11","<p>Sometimes, the word/sound will match the picture, for example you'll hear a meowing sound and see a cat.</p><p>Other times, the picture will not match the sound or word.</p><p>Your task is to decide as quickly as possible if the word/sound matches the picture or not. </p>","32","","","","","","","",""
"15550.30500001181","","html-keyboard-response","6","3072431","0.0-6.0","a","11","<p>For example, if you hear the word ""cat"" or hear a meowing sound, and then see a picture of a cat, you should press the MATCH key.</p><p> If the sound and image do not match, press the NOT-MATCH key to indicate that there is not a match.</p>","32","","","","","","","",""
"15375.180000002496","","html-keyboard-response","7","3087808","0.0-7.0","a","11","<p>If you make a mistake, you will hear a buzzing sound instead of a more pleasant sound.</p><p> Try to respond as quickly as possible, while making as few errors as possible. If you are making mistakes, you are probably rushing.</p>","32","","","","","","","",""
"16790.854999999516","","html-keyboard-response","8","3104600","0.0-8.0","a","11","<p>Please try to not move or blink your eyes during the presentation of the images. You can move and blink between images.</p><p>During the experiment there will be some breaks during which you can rest your eyes.</p>","32","","","","","","","",""
"8286.245000010356","","html-keyboard-response","9","3112887","0.0-9.0","a","11","<p>We will begin with 10 practice trials. Please let the experimenter know if you have any questions.</p>","32","","","","","","","",""
"null","","audio-keyboard-response","10","3113667","0.0-10.0-0.0","a","11","Sounds/whistle_label.wav","null","0","","","","","","",""
"null","","html-keyboard-response","11","3114670","0.0-10.0-1.0","a","11","<p style=""font-size: 48px;"">+</p>","null","0","","","","","","",""
"447.4449999979697","","image-keyboard-response","12","3115120","0.0-10.0-2.0","a","11","Images/dog_1.png","76","0","1581633136877","non-match","dog","whistle","label","practice","true"
"null","","audio-keyboard-response","13","3117153","0.0-10.0-3.0","a","11","Sounds/correct.wav","null","0","","","","","","",""
"null","","audio-keyboard-response","14","3118046","0.0-10.0-0.1","a","11","Sounds/frog_label.wav","null","0","","","","","","",""
"null","","html-keyboard-response","15","3119039","0.0-10.0-1.1","a","11","<p style=""font-size: 48px;"">+</p>","null","0","","","","","","",""
"457.8600000096485","","image-keyboard-response","16","3119498","0.0-10.0-2.1","a","11","Images/frog_1.png","65","0","1581633141246","match","frog","frog","label","practice","true"
"null","","audio-keyboard-response","17","3121504","0.0-10.0-3.1","a","11","Sounds/correct.wav","null","0","","","","","","",""
"null","","audio-keyboard-response","18","3122586","0.0-10.0-0.2","a","11","Sounds/car_label.wav","null","0","","","","","","",""
"null","","html-keyboard-response","19","3123589","0.0-10.0-1.2","a","11","<p style=""font-size: 48px;"">+</p>","null","0","","","","","","",""
"435.8650000067428","","image-keyboard-response","20","3124026","0.0-10.0-2.2","a","11","Images/cow_1.png","65","0","1581633145796","non-match","cow","car","label","practice","false"
"null","","audio-keyboard-response","21","3126037","0.0-10.0-3.2","a","11","Sounds/incorrect.wav","null","0","","","","","","",""
"null","","audio-keyboard-response","22","3126746","0.0-10.0-0.3","a","11","Sounds/dog_sound.wav","null","0","","","","","","",""
"null","","html-keyboard-response","23","3127739","0.0-10.0-1.3","a","11","<p style=""font-size: 48px;"">+</p>","null","0","","","","","","",""
"382.0500000002794","","image-keyboard-response","24","3128122","0.0-10.0-2.3","a","11","Images/cow_2.png","76","0","1581633149946","non-match","cow","dog","sound","practice","true"
"null","","audio-keyboard-response","25","3130126","0.0-10.0-3.3","a","11","Sounds/correct.wav","null","0","","","","","","",""
"null","","audio-keyboard-response","26","3131006","0.0-10.0-0.4","a","11","Sounds/frog_label.wav","null","0","","","","","","",""
"null","","html-keyboard-response","27","3132006","0.0-10.0-1.4","a","11","<p style=""font-size: 48px;"">+</p>","null","0","","","","","","",""
"459.16499999305233","","image-keyboard-response","28","3132466","0.0-10.0-2.4","a","11","Images/frog_orig.png","65","0","1581633154213","match","frog","frog","label","practice","true"
"null","","audio-keyboard-response","29","3134469","0.0-10.0-3.4","a","11","Sounds/correct.wav","null","0","","","","","","",""
"null","","audio-keyboard-response","30","3135166","0.0-10.0-0.5","a","11","Sounds/whistle_label.wav","null","0","","","","","","",""
"null","","html-keyboard-response","31","3136156","0.0-10.0-1.5","a","11","<p style=""font-size: 48px;"">+</p>","null","0","","","","","","",""
"701.0299999965355","","image-keyboard-response","32","3136858","0.0-10.0-2.5","a","11","Images/whistle_2.png","65","0","1581633158363","match","whistle","whistle","label","practice","true"
"null","","audio-keyboard-response","33","3138869","0.0-10.0-3.5","a","11","Sounds/correct.wav","null","0","","","","","","",""
"null","","audio-keyboard-response","34","3139926","0.0-10.0-0.6","a","11","Sounds/car_label.wav","null","0","","","","","","",""
"null","","html-keyboard-response","35","3140922","0.0-10.0-1.6","a","11","<p style=""font-size: 48px;"">+</p>","null","0","","","","","","",""
"366.59499999927357","","image-keyboard-response","36","3141290","0.0-10.0-2.6","a","11","Images/frog_orig.png","76","0","1581633163129","non-match","frog","car","label","practice","true"
"null","","audio-keyboard-response","37","3143296","0.0-10.0-3.6","a","11","Sounds/correct.wav","null","0","","","","","","",""
"null","","audio-keyboard-response","38","3144126","0.0-10.0-0.7","a","11","Sounds/cat_sound.wav","null","0","","","","","","",""
"null","","html-keyboard-response","39","3145122","0.0-10.0-1.7","a","11","<p style=""font-size: 48px;"">+</p>","null","0","","","","","","",""
"454.6949999933131","","image-keyboard-response","40","3145578","0.0-10.0-2.7","a","11","Images/cat_1.png","65","0","1581633167329","match","cat","cat","sound","practice","true"
"null","","audio-keyboard-response","41","3147594","0.0-10.0-3.7","a","11","Sounds/correct.wav","null","0","","","","","","",""
"null","","audio-keyboard-response","42","3148666","0.0-10.0-0.8","a","11","Sounds/car_sound.wav","null","0","","","","","","",""
"null","","html-keyboard-response","43","3149656","0.0-10.0-1.8","a","11","<p style=""font-size: 48px;"">+</p>","null","0","","","","","","",""
"440.9750000052154","","image-keyboard-response","44","3150098","0.0-10.0-2.8","a","11","Images/cat_1.png","76","0","1581633171863","non-match","cat","car","sound","practice","true"
"null","","audio-keyboard-response","45","3152111","0.0-10.0-3.8","a","11","Sounds/correct.wav","null","0","","","","","","",""
"null","","audio-keyboard-response","46","3153386","0.0-10.0-0.9","a","11","Sounds/train_label.wav","null","0","","","","","","",""
"null","","html-keyboard-response","47","3154389","0.0-10.0-1.9","a","11","<p style=""font-size: 48px;"">+</p>","null","0","","","","","","",""
"547.7299999911338","","image-keyboard-response","48","3154938","0.0-10.0-2.9","a","11","Images/car_cartoon.png","65","0","1581633176597","non-match","car","train","label","practice","false"
"null","","audio-keyboard-response","49","3156946","0.0-10.0-3.9","a","11","Sounds/incorrect.wav","null","0","","","","","","",""
"50920.12500000419","","html-keyboard-response","50","3207870","0.0-11.0","a","11","<p>The rest of the experiment is divided into five blocks with 100 trials in each block. It will take about 45 minutes to complete.</p><p>The experimenter will be in the outer room and you can communicate with them through the monitor if you have any questions or wish to stop the experiment.</p>","32","","","","","","","",""
"14086.280000003055","","html-keyboard-response","51","3221957","0.0-12.0","a","11","<p>Remember, please try not to move or blink your eyes during the presentation of the images. </p><p>At the end of the experiment, we will show you your scores on the task so you can see how you did.</p><p>The experiment will start on the next screen.</p>","32","","","","","","","",""
"null","","audio-keyboard-response","52","3224822","0.0-13.0-0.0","a","11","Sounds/cat_sound.wav","null","1","","","","","","",""
"null","","html-keyboard-response","53","3225827","0.0-13.0-1.0","a","11","<p style=""font-size: 48px;"">+</p>","null","1","","","","","","",""
"449.2250000038184","","image-keyboard-response","54","3226278","0.0-13.0-2.0","a","11","Images/cat_cartoon.png","65","1","1581633248034","match","cat","cat","sound","test","true"
"null","","audio-keyboard-response","55","3228291","0.0-13.0-3.0","a","11","Sounds/correct.wav","null","1","","","","","","",""
"null","","audio-keyboard-response","56","3228982","0.0-13.0-0.1","a","11","Sounds/whistle_sound.wav","null","1","","","","","","",""
"null","","html-keyboard-response","57","3229976","0.0-13.0-1.1","a","11","<p style=""font-size: 48px;"">+</p>","null","1","","","","","","",""
"403.38999999221414","","image-keyboard-response","58","3230381","0.0-13.0-2.1","a","11","Images/whistle_1.png","76","1","1581633252184","match","whistle","whistle","sound","test","false"
"null","","audio-keyboard-response","59","3232395","0.0-13.0-3.1","a","11","Sounds/incorrect.wav","null","1","","","","","","",""
"null","","audio-keyboard-response","60","3232982","0.0-13.0-0.2","a","11","Sounds/gun_label.wav","null","1","","","","","","",""
"null","","html-keyboard-response","61","3233976","0.0-13.0-1.2","a","11","<p style=""font-size: 48px;"">+</p>","null","1","","","","","","",""
"475.70000000996515","","image-keyboard-response","62","3234453","0.0-13.0-2.2","a","11","Images/train_2.png","76","1","1581633256184","non-match","train","gun","label","test","true"
"null","","audio-keyboard-response","63","3236456","0.0-13.0-3.2","a","11","Sounds/correct.wav","null","1","","","","","","",""
"null","","audio-keyboard-response","64","3237302","0.0-13.0-0.3","a","11","Sounds/cat_label.wav","null","1","","","","","","",""
"null","","html-keyboard-response","65","3238293","0.0-13.0-1.3","a","11","<p style=""font-size: 48px;"">+</p>","null","1","","","","","","",""
"430.47500000102445","","image-keyboard-response","66","3238725","0.0-13.0-2.3","a","11","Images/cat_2.png","65","1","1581633260500","match","cat","cat","label","test","true"
"null","","audio-keyboard-response","67","3240732","0.0-13.0-3.3","a","11","Sounds/correct.wav","null","1","","","","","","",""
"null","","audio-keyboard-response","68","3241622","0.0-13.0-0.4","a","11","Sounds/frog_label.wav","null","1","","","","","","",""
"null","","html-keyboard-response","69","3242627","0.0-13.0-1.4","a","11","<p style=""font-size: 48px;"">+</p>","null","1","","","","","","",""
"409.30500000854954","","image-keyboard-response","70","3243037","0.0-13.0-2.4","a","11","Images/gun_2.png","76","1","1581633264834","non-match","gun","frog","label","test","true"
"null","","audio-keyboard-response","71","3245044","0.0-13.0-3.4","a","11","Sounds/correct.wav","null","1","","","","","","",""
"null","","audio-keyboard-response","72","3245602","0.0-13.0-0.5","a","11","Sounds/gun_label.wav","null","1","","","","","","",""
"null","","html-keyboard-response","73","3246593","0.0-13.0-1.5","a","11","<p style=""font-size: 48px;"">+</p>","null","1","","","","","","",""
"426.8799999989569","","image-keyboard-response","74","3247021","0.0-13.0-2.5","a","11","Images/gun_1.png","65","1","1581633268800","match","gun","gun","label","test","true"
"null","","audio-keyboard-response","75","3249028","0.0-13.0-3.5","a","11","Sounds/correct.wav","null","1","","","","","","",""
"null","","audio-keyboard-response","76","3250322","0.0-13.0-0.6","a","11","Sounds/train_sound.wav","null","1","","","","","","",""
"null","","html-keyboard-response","77","3251327","0.0-13.0-1.6","a","11","<p style=""font-size: 48px;"">+</p>","null","1","","","","","","",""
"365.1399999940768","","image-keyboard-response","78","3251693","0.0-13.0-2.6","a","11","Images/train_orig.png","65","1","1581633273534","match","train","train","sound","test","true"
"null","","audio-keyboard-response","79","3253698","0.0-13.0-3.6","a","11","Sounds/correct.wav","null","1","","","","","","",""
"null","","audio-keyboard-response","80","3254403","0.0-13.0-0.7","a","11","Sounds/whistle_label.wav","null","1","","","","","","",""
"null","","html-keyboard-response","81","3255394","0.0-13.0-1.7","a","11","<p style=""font-size: 48px;"">+</p>","null","1","","","","","","",""
"442.664999994915","","image-keyboard-response","82","3255838","0.0-13.0-2.7","a","11","Images/whistle_orig.png","65","1","1581633277602","match","whistle","whistle","label","test","true"
"null","","audio-keyboard-response","83","3257849","0.0-13.0-3.7","a","11","Sounds/correct.wav","null","1","","","","","","",""
"null","","audio-keyboard-response","84","3259123","0.0-13.0-0.8","a","11","Sounds/train_label.wav","null","1","","","","","","",""
"null","","html-keyboard-response","85","3260128","0.0-13.0-1.8","a","11","<p style=""font-size: 48px;"">+</p>","null","1","","","","","","",""
"452.4600000004284","","image-keyboard-response","86","3260582","0.0-13.0-2.8","a","11","Images/motorcycle_cartoon.png","76","1","1581633282335","non-match","motorcycle","train","label","test","true"
"null","","audio-keyboard-response","87","3262592","0.0-13.0-3.8","a","11","Sounds/correct.wav","null","1","","","","","","",""
"null","","audio-keyboard-response","88","3263263","0.0-13.0-0.9","a","11","Sounds/whistle_label.wav","null","1","","","","","","",""
"null","","html-keyboard-response","89","3264261","0.0-13.0-1.9","a","11","<p style=""font-size: 48px;"">+</p>","null","1","","","","","","",""
"543.839999998454","","image-keyboard-response","90","3264806","0.0-13.0-2.9","a","11","Images/car_1.png","76","1","1581633286468","non-match","car","whistle","label","test","true"
"null","","audio-keyboard-response","91","3266818","0.0-13.0-3.9","a","11","Sounds/correct.wav","null","1","","","","","","",""
"null","","audio-keyboard-response","92","3267483","0.0-13.0-0.10","a","11","Sounds/dog_label.wav","null","1","","","","","","",""
"null","","html-keyboard-response","93","3268478","0.0-13.0-1.10","a","11","<p style=""font-size: 48px;"">+</p>","null","1","","","","","","",""
"503.2249999931082","","image-keyboard-response","94","3268982","0.0-13.0-2.10","a","11","Images/cow_3.png","76","1","1581633290685","non-match","cow","dog","label","test","true"
"null","","audio-keyboard-response","95","3270988","0.0-13.0-3.10","a","11","Sounds/correct.wav","null","1","","","","","","",""
"null","","audio-keyboard-response","96","3271703","0.0-13.0-0.11","a","11","Sounds/dog_sound.wav","null","1","","","","","","",""
"null","","html-keyboard-response","97","3272695","0.0-13.0-1.11","a","11","<p style=""font-size: 48px;"">+</p>","null","1","","","","","","",""
"598.679999995511","","image-keyboard-response","98","3273294","0.0-13.0-2.11","a","11","Images/cat_3.png","76","1","1581633294902","non-match","cat","dog","sound","test","true"
"null","","audio-keyboard-response","99","3275301","0.0-13.0-3.11","a","11","Sounds/correct.wav","null","1","","","","","","",""
"null","","audio-keyboard-response","100","3276203","0.0-13.0-0.12","a","11","Sounds/frog_sound.wav","null","1","","","","","","",""
"null","","html-keyboard-response","101","3277195","0.0-13.0-1.12","a","11","<p style=""font-size: 48px;"">+</p>","null","1","","","","","","",""
"314.23500001244247","","image-keyboard-response","102","3277510","0.0-13.0-2.12","a","11","Images/frog_1.png","65","1","1581633299402","match","frog","frog","sound","test","true"
"null","","audio-keyboard-response","103","3279520","0.0-13.0-3.12","a","11","Sounds/correct.wav","null","1","","","","","","",""
"null","","audio-keyboard-response","104","3280183","0.0-13.0-0.13","a","11","Sounds/whistle_label.wav","null","1","","","","","","",""
"null","","html-keyboard-response","105","3281178","0.0-13.0-1.13","a","11","<p style=""font-size: 48px;"">+</p>","null","1","","","","","","",""
"579.1199999949895","","image-keyboard-response","106","3281758","0.0-13.0-2.13","a","11","Images/motorcycle_3.png","76","1","1581633303385","non-match","motorcycle","whistle","label","test","true"
"null","","audio-keyboard-response","107","3283767","0.0-13.0-3.13","a","11","Sounds/correct.wav","null","1","","","","","","",""
"null","","audio-keyboard-response","108","3284343","0.0-13.0-0.14","a","11","Sounds/gun_sound.wav","null","1","","","","","","",""
"null","","html-keyboard-response","109","3285361","0.0-13.0-1.14","a","11","<p style=""font-size: 48px;"">+</p>","null","1","","","","","","",""
"531.6600000080653","","image-keyboard-response","110","3285894","0.0-13.0-2.14","a","11","Images/cow_orig.png","76","1","1581633307569","non-match","cow","gun","sound","test","true"
"null","","audio-keyboard-response","111","3287902","0.0-13.0-3.14","a","11","Sounds/correct.wav","null","1","","","","","","",""
"null","","audio-keyboard-response","112","3288983","0.0-13.0-0.15","a","11","Sounds/car_sound.wav","null","1","","","","","","",""
"null","","html-keyboard-response","113","3289978","0.0-13.0-1.15","a","11","<p style=""font-size: 48px;"">+</p>","null","1","","","","","","",""
"386.88500000024214","","image-keyboard-response","114","3290366","0.0-13.0-2.15","a","11","Images/car_2.png","65","1","1581633312185","match","car","car","sound","test","true"
"null","","audio-keyboard-response","115","3292381","0.0-13.0-3.15","a","11","Sounds/correct.wav","null","1","","","","","","",""
"null","","audio-keyboard-response","116","3293223","0.0-13.0-0.16","a","11","Sounds/cat_sound.wav","null","1","","","","","","",""
"null","","html-keyboard-response","117","3294212","0.0-13.0-1.16","a","11","<p style=""font-size: 48px;"">+</p>","null","1","","","","","","",""
"441.43000000622123","","image-keyboard-response","118","3294654","0.0-13.0-2.16","a","11","Images/dog_cartoon.png","76","1","1581633316419","non-match","dog","cat","sound","test","true"
"null","","audio-keyboard-response","119","3296661","0.0-13.0-3.16","a","11","Sounds/correct.wav","null","1","","","","","","",""
"null","","audio-keyboard-response","120","3297463","0.0-13.0-0.17","a","11","Sounds/cat_sound.wav","null","1","","","","","","",""
"null","","html-keyboard-response","121","3298461","0.0-13.0-1.17","a","11","<p style=""font-size: 48px;"">+</p>","null","1","","","","","","",""
"263.68000000342727","","image-keyboard-response","122","3298726","0.0-13.0-2.17","a","11","Images/frog_orig.png","65","1","1581633320669","non-match","frog","cat","sound","test","false"
"null","","audio-keyboard-response","123","3300739","0.0-13.0-3.17","a","11","Sounds/incorrect.wav","null","1","","","","","","",""
"null","","audio-keyboard-response","124","3301823","0.0-13.0-0.18","a","11","Sounds/car_label.wav","null","1","","","","","","",""
"null","","html-keyboard-response","125","3302828","0.0-13.0-1.18","a","11","<p style=""font-size: 48px;"">+</p>","null","1","","","","","","",""
"736.6100000068545","","image-keyboard-response","126","3303566","0.0-13.0-2.18","a","11","Images/car_1.png","65","1","1581633325035","match","car","car","label","test","true"
"null","","audio-keyboard-response","127","3305570","0.0-13.0-3.18","a","11","Sounds/correct.wav","null","1","","","","","","",""
"null","","audio-keyboard-response","128","3306263","0.0-13.0-0.19","a","11","Sounds/rooster_sound.wav","null","1","","","","","","",""
"null","","html-keyboard-response","129","3307262","0.0-13.0-1.19","a","11","<p style=""font-size: 48px;"">+</p>","null","1","","","","","","",""
"431.3600000021979","","image-keyboard-response","130","3307694","0.0-13.0-2.19","a","11","Images/rooster_cartoon.png","65","1","1581633329469","match","rooster","rooster","sound","test","true"
"null","","audio-keyboard-response","131","3309710","0.0-13.0-3.19","a","11","Sounds/correct.wav","null","1","","","","","","",""
"null","","audio-keyboard-response","132","3310783","0.0-13.0-0.20","a","11","Sounds/car_sound.wav","null","1","","","","","","",""
"null","","html-keyboard-response","133","3311778","0.0-13.0-1.20","a","11","<p style=""font-size: 48px;"">+</p>","null","1","","","","","","",""
"466.8950000051409","","image-keyboard-response","134","3312246","0.0-13.0-2.20","a","11","Images/cow_cartoon.png","76","1","1581633333985","non-match","cow","car","sound","test","true"
"null","","audio-keyboard-response","135","3314258","0.0-13.0-3.20","a","11","Sounds/correct.wav","null","1","","","","","","",""
"null","","audio-keyboard-response","136","3315064","0.0-13.0-0.21","a","11","Sounds/cat_sound.wav","null","1","","","","","","",""
"null","","html-keyboard-response","137","3316063","0.0-13.0-1.21","a","11","<p style=""font-size: 48px;"">+</p>","null","1","","","","","","",""
"735.2649999954738","","image-keyboard-response","138","3316799","0.0-13.0-2.21","a","11","Images/cow_2.png","76","1","1581633338270","non-match","cow","cat","sound","test","true"
"null","","audio-keyboard-response","139","3318808","0.0-13.0-3.21","a","11","Sounds/correct.wav","null","1","","","","","","",""
"null","","audio-keyboard-response","140","3319824","0.0-13.0-0.22","a","11","Sounds/cow_label.wav","null","1","","","","","","",""
"null","","html-keyboard-response","141","3320830","0.0-13.0-1.22","a","11","<p style=""font-size: 48px;"">+</p>","null","1","","","","","","",""
"504.50500000454485","","image-keyboard-response","142","3321335","0.0-13.0-2.22","a","11","Images/motorcycle_2.png","76","1","1581633343036","non-match","motorcycle","cow","label","test","true"
"null","","audio-keyboard-response","143","3323339","0.0-13.0-3.22","a","11","Sounds/correct.wav","null","1","","","","","","",""
"null","","audio-keyboard-response","144","3324644","0.0-13.0-0.23","a","11","Sounds/train_sound.wav","null","1","","","","","","",""
"null","","html-keyboard-response","145","3325646","0.0-13.0-1.23","a","11","<p style=""font-size: 48px;"">+</p>","null","1","","","","","","",""
"544.08999999566","","image-keyboard-response","146","3326191","0.0-13.0-2.23","a","11","Images/gun_1.png","76","1","1581633347853","non-match","gun","train","sound","test","true"
"null","","audio-keyboard-response","147","3328203","0.0-13.0-3.23","a","11","Sounds/correct.wav","null","1","","","","","","",""
"null","","audio-keyboard-response","148","3329284","0.0-13.0-0.24","a","11","Sounds/car_label.wav","null","1","","","","","","",""
"null","","html-keyboard-response","149","3330279","0.0-13.0-1.24","a","11","<p style=""font-size: 48px;"">+</p>","null","1","","","","","","",""
"574.4549999944866","","image-keyboard-response","150","3330855","0.0-13.0-2.24","a","11","Images/car_3.png","65","1","1581633352487","match","car","car","label","test","true"
"null","","audio-keyboard-response","151","3332870","0.0-13.0-3.24","a","11","Sounds/correct.wav","null","1","","","","","","",""
"null","","audio-keyboard-response","152","3333764","0.0-13.0-0.25","a","11","Sounds/frog_label.wav","null","1","","","","","","",""
"null","","html-keyboard-response","153","3334763","0.0-13.0-1.25","a","11","<p style=""font-size: 48px;"">+</p>","null","1","","","","","","",""
"371.20500000333413","","image-keyboard-response","154","3335135","0.0-13.0-2.25","a","11","Images/cow_1.png","76","1","1581633356970","non-match","cow","frog","label","test","true"
"null","","audio-keyboard-response","155","3337150","0.0-13.0-3.25","a","11","Sounds/correct.wav","null","1","","","","","","",""
"null","","audio-keyboard-response","156","3338224","0.0-13.0-0.26","a","11","Sounds/car_sound.wav","null","1","","","","","","",""
"null","","html-keyboard-response","157","3339230","0.0-13.0-1.26","a","11","<p style=""font-size: 48px;"">+</p>","null","1","","","","","","",""
"648.3500000028871","","image-keyboard-response","158","3339879","0.0-13.0-2.26","a","11","Images/whistle_3.png","76","1","1581633361437","non-match","whistle","car","sound","test","true"
"null","","audio-keyboard-response","159","3341896","0.0-13.0-3.26","a","11","Sounds/correct.wav","null","1","","","","","","",""
"null","","audio-keyboard-response","160","3343164","0.0-13.0-0.27","a","11","Sounds/train_label.wav","null","1","","","","","","",""
"null","","html-keyboard-response","161","3344163","0.0-13.0-1.27","a","11","<p style=""font-size: 48px;"">+</p>","null","1","","","","","","",""
"594.8999999961816","","image-keyboard-response","162","3344759","0.0-13.0-2.27","a","11","Images/train_1.png","65","1","1581633366370","match","train","train","label","test","true"
"null","","audio-keyboard-response","163","3346767","0.0-13.0-3.27","a","11","Sounds/correct.wav","null","1","","","","","","",""
"null","","audio-keyboard-response","164","3347844","0.0-13.0-0.28","a","11","Sounds/car_label.wav","null","1","","","","","","",""
"null","","html-keyboard-response","165","3348846","0.0-13.0-1.28","a","11","<p style=""font-size: 48px;"">+</p>","null","1","","","","","","",""
"479.72500001173466","","image-keyboard-response","166","3349327","0.0-13.0-2.28","a","11","Images/cat_orig.png","76","1","1581633371053","non-match","cat","car","label","test","true"
"null","","audio-keyboard-response","167","3351342","0.0-13.0-3.28","a","11","Sounds/correct.wav","null","1","","","","","","",""
"null","","audio-keyboard-response","168","3352404","0.0-13.0-0.29","a","11","Sounds/car_label.wav","null","1","","","","","","",""
"null","","html-keyboard-response","169","3353396","0.0-13.0-1.29","a","11","<p style=""font-size: 48px;"">+</p>","null","1","","","","","","",""
"617.6699999924749","","image-keyboard-response","170","3354015","0.0-13.0-2.29","a","11","Images/train_1.png","76","1","1581633375604","non-match","train","car","label","test","true"
"null","","audio-keyboard-response","171","3356032","0.0-13.0-3.29","a","11","Sounds/correct.wav","null","1","","","","","","",""
"null","","audio-keyboard-response","172","3356604","0.0-13.0-0.30","a","11","Sounds/gun_label.wav","null","1","","","","","","",""
"null","","html-keyboard-response","173","3357596","0.0-13.0-1.30","a","11","<p style=""font-size: 48px;"">+</p>","null","1","","","","","","",""
"449.3349999971688","","image-keyboard-response","174","3358047","0.0-13.0-2.30","a","11","Images/gun_3.png","65","1","1581633379804","match","gun","gun","label","test","true"
"null","","audio-keyboard-response","175","3360060","0.0-13.0-3.30","a","11","Sounds/correct.wav","null","1","","","","","","",""
"null","","audio-keyboard-response","176","3360764","0.0-13.0-0.31","a","11","Sounds/dog_sound.wav","null","1","","","","","","",""
"null","","html-keyboard-response","177","3361763","0.0-13.0-1.31","a","11","<p style=""font-size: 48px;"">+</p>","null","1","","","","","","",""
"562.8850000062957","","image-keyboard-response","178","3362327","0.0-13.0-2.31","a","11","Images/dog_2.png","65","1","1581633383970","match","dog","dog","sound","test","true"
"null","","audio-keyboard-response","179","3364336","0.0-13.0-3.31","a","11","Sounds/correct.wav","null","1","","","","","","",""
"null","","audio-keyboard-response","180","3365024","0.0-13.0-0.32","a","11","Sounds/dog_sound.wav","null","1","","","","","","",""
"null","","html-keyboard-response","181","3366013","0.0-13.0-1.32","a","11","<p style=""font-size: 48px;"">+</p>","null","1","","","","","","",""
"384.8250000006519","","image-keyboard-response","182","3366399","0.0-13.0-2.32","a","11","Images/rooster_orig.png","76","1","1581633388220","non-match","rooster","dog","sound","test","true"
"null","","audio-keyboard-response","183","3368403","0.0-13.0-3.32","a","11","Sounds/correct.wav","null","1","","","","","","",""
"null","","audio-keyboard-response","184","3369244","0.0-13.0-0.33","a","11","Sounds/cat_sound.wav","null","1","","","","","","",""
"null","","html-keyboard-response","185","3370247","0.0-13.0-1.33","a","11","<p style=""font-size: 48px;"">+</p>","null","1","","","","","","",""
"591.4000000050291","","image-keyboard-response","186","3370839","0.0-13.0-2.33","a","11","Images/whistle_1.png","76","1","1581633392454","non-match","whistle","cat","sound","test","true"
"null","","audio-keyboard-response","187","3372851","0.0-13.0-3.33","a","11","Sounds/correct.wav","null","1","","","","","","",""
"null","","audio-keyboard-response","188","3373544","0.0-13.0-0.34","a","11","Sounds/rooster_sound.wav","null","1","","","","","","",""
"null","","html-keyboard-response","189","3374547","0.0-13.0-1.34","a","11","<p style=""font-size: 48px;"">+</p>","null","1","","","","","","",""
"435.30500000622123","","image-keyboard-response","190","3374984","0.0-13.0-2.34","a","11","Images/whistle_2.png","76","1","1581633396755","non-match","whistle","rooster","sound","test","true"
"null","","audio-keyboard-response","191","3376996","0.0-13.0-3.34","a","11","Sounds/correct.wav","null","1","","","","","","",""
"null","","audio-keyboard-response","192","3377905","0.0-13.0-0.35","a","11","Sounds/frog_sound.wav","null","1","","","","","","",""
"null","","html-keyboard-response","193","3378897","0.0-13.0-1.35","a","11","<p style=""font-size: 48px;"">+</p>","null","1","","","","","","",""
"405.6199999903329","","image-keyboard-response","194","3379304","0.0-13.0-2.35","a","11","Images/frog_orig.png","65","1","1581633401105","match","frog","frog","sound","test","true"
"null","","audio-keyboard-response","195","3381316","0.0-13.0-3.35","a","11","Sounds/correct.wav","null","1","","","","","","",""
"null","","audio-keyboard-response","196","3382005","0.0-13.0-0.36","a","11","Sounds/dog_sound.wav","null","1","","","","","","",""
"null","","html-keyboard-response","197","3382998","0.0-13.0-1.36","a","11","<p style=""font-size: 48px;"">+</p>","null","1","","","","","","",""
"561.1749999956228","","image-keyboard-response","198","3383560","0.0-13.0-2.36","a","11","Images/dog_orig.png","65","1","1581633405205","match","dog","dog","sound","test","true"
"null","","audio-keyboard-response","199","3385571","0.0-13.0-3.36","a","11","Sounds/correct.wav","null","1","","","","","","",""
"null","","audio-keyboard-response","200","3386265","0.0-13.0-0.37","a","11","Sounds/whistle_sound.wav","null","1","","","","","","",""
"null","","html-keyboard-response","201","3387264","0.0-13.0-1.37","a","11","<p style=""font-size: 48px;"">+</p>","null","1","","","","","","",""
"486.5950000095181","","image-keyboard-response","202","3387752","0.0-13.0-2.37","a","11","Images/dog_3.png","76","1","1581633409471","non-match","dog","whistle","sound","test","true"
"null","","audio-keyboard-response","203","3389759","0.0-13.0-3.37","a","11","Sounds/correct.wav","null","1","","","","","","",""
"null","","audio-keyboard-response","204","3390425","0.0-13.0-0.38","a","11","Sounds/rooster_sound.wav","null","1","","","","","","",""
"null","","html-keyboard-response","205","3391414","0.0-13.0-1.38","a","11","<p style=""font-size: 48px;"">+</p>","null","1","","","","","","",""
"504.7599999960512","","image-keyboard-response","206","3391920","0.0-13.0-2.38","a","11","Images/rooster_1.png","65","1","1581633413621","match","rooster","rooster","sound","test","true"
"null","","audio-keyboard-response","207","3393924","0.0-13.0-3.38","a","11","Sounds/correct.wav","null","1","","","","","","",""
"null","","audio-keyboard-response","208","3394605","0.0-13.0-0.39","a","11","Sounds/whistle_sound.wav","null","1","","","","","","",""
"null","","html-keyboard-response","209","3395598","0.0-13.0-1.39","a","11","<p style=""font-size: 48px;"">+</p>","null","1","","","","","","",""
"609.1650000018999","","image-keyboard-response","210","3396208","0.0-13.0-2.39","a","11","Images/whistle_cartoon.png","65","1","1581633417805","match","whistle","whistle","sound","test","true"
"null","","audio-keyboard-response","211","3398217","0.0-13.0-3.39","a","11","Sounds/correct.wav","null","1","","","","","","",""
"null","","audio-keyboard-response","212","3399245","0.0-13.0-0.40","a","11","Sounds/cow_sound.wav","null","1","","","","","","",""
"null","","html-keyboard-response","213","3400248","0.0-13.0-1.40","a","11","<p style=""font-size: 48px;"">+</p>","null","1","","","","","","",""
"855.0400000093505","","image-keyboard-response","214","3401104","0.0-13.0-2.40","a","11","Images/gun_orig.png","76","1","1581633422455","non-match","gun","cow","sound","test","true"
"null","","audio-keyboard-response","215","3403117","0.0-13.0-3.40","a","11","Sounds/correct.wav","null","1","","","","","","",""
"null","","audio-keyboard-response","216","3404225","0.0-13.0-0.41","a","11","Sounds/motorcycle_sound.wav","null","1","","","","","","",""
"null","","html-keyboard-response","217","3405214","0.0-13.0-1.41","a","11","<p style=""font-size: 48px;"">+</p>","null","1","","","","","","",""
"576.7850000117905","","image-keyboard-response","218","3405792","0.0-13.0-2.41","a","11","Images/train_cartoon.png","76","1","1581633427422","non-match","train","motorcycle","sound","test","true"
"null","","audio-keyboard-response","219","3407804","0.0-13.0-3.41","a","11","Sounds/correct.wav","null","1","","","","","","",""
"null","","audio-keyboard-response","220","3408905","0.0-13.0-0.42","a","11","Sounds/motorcycle_sound.wav","null","1","","","","","","",""
"null","","html-keyboard-response","221","3409898","0.0-13.0-1.42","a","11","<p style=""font-size: 48px;"">+</p>","null","1","","","","","","",""
"364.9199999924749","","image-keyboard-response","222","3410264","0.0-13.0-2.42","a","11","Images/motorcycle_orig.png","65","1","1581633432105","match","motorcycle","motorcycle","sound","test","true"
"null","","audio-keyboard-response","223","3412270","0.0-13.0-3.42","a","11","Sounds/correct.wav","null","1","","","","","","",""
"null","","audio-keyboard-response","224","3412965","0.0-13.0-0.43","a","11","Sounds/rooster_label.wav","null","1","","","","","","",""
"null","","html-keyboard-response","225","3413964","0.0-13.0-1.43","a","11","<p style=""font-size: 48px;"">+</p>","null","1","","","","","","",""
"362.26500000339","","image-keyboard-response","226","3414328","0.0-13.0-2.43","a","11","Images/rooster_2.png","65","1","1581633436172","match","rooster","rooster","label","test","true"
"null","","audio-keyboard-response","227","3416336","0.0-13.0-3.43","a","11","Sounds/correct.wav","null","1","","","","","","",""
"null","","audio-keyboard-response","228","3417605","0.0-13.0-0.44","a","11","Sounds/train_label.wav","null","1","","","","","","",""
"null","","html-keyboard-response","229","3418598","0.0-13.0-1.44","a","11","<p style=""font-size: 48px;"">+</p>","null","1","","","","","","",""
"568.2499999967404","","image-keyboard-response","230","3419168","0.0-13.0-2.44","a","11","Images/car_orig.png","76","1","1581633440805","non-match","car","train","label","test","true"
"null","","audio-keyboard-response","231","3421171","0.0-13.0-3.44","a","11","Sounds/correct.wav","null","1","","","","","","",""
"null","","audio-keyboard-response","232","3421885","0.0-13.0-0.45","a","11","Sounds/dog_sound.wav","null","1","","","","","","",""
"null","","html-keyboard-response","233","3422881","0.0-13.0-1.45","a","11","<p style=""font-size: 48px;"">+</p>","null","1","","","","","","",""
"517.5699999961071","","image-keyboard-response","234","3423400","0.0-13.0-2.45","a","11","Images/dog_3.png","65","1","1581633445088","match","dog","dog","sound","test","true"
"null","","audio-keyboard-response","235","3425408","0.0-13.0-3.45","a","11","Sounds/correct.wav","null","1","","","","","","",""
"null","","audio-keyboard-response","236","3426085","0.0-13.0-0.46","a","11","Sounds/rooster_label.wav","null","1","","","","","","",""
"null","","html-keyboard-response","237","3427083","0.0-13.0-1.46","a","11","<p style=""font-size: 48px;"">+</p>","null","1","","","","","","",""
"403.3699999996461","","image-keyboard-response","238","3427488","0.0-13.0-2.46","a","11","Images/rooster_3.png","65","1","1581633449289","match","rooster","rooster","label","test","true"
"null","","audio-keyboard-response","239","3429499","0.0-13.0-3.46","a","11","Sounds/correct.wav","null","1","","","","","","",""
"null","","audio-keyboard-response","240","3430205","0.0-13.0-0.47","a","11","Sounds/rooster_sound.wav","null","1","","","","","","",""
"null","","html-keyboard-response","241","3431198","0.0-13.0-1.47","a","11","<p style=""font-size: 48px;"">+</p>","null","1","","","","","","",""
"384.9500000071712","","image-keyboard-response","242","3431584","0.0-13.0-2.47","a","11","Images/rooster_orig.png","65","1","1581633453405","match","rooster","rooster","sound","test","true"
"null","","audio-keyboard-response","243","3433601","0.0-13.0-3.47","a","11","Sounds/correct.wav","null","1","","","","","","",""
"null","","audio-keyboard-response","244","3434305","0.0-13.0-0.48","a","11","Sounds/whistle_label.wav","null","1","","","","","","",""
"null","","html-keyboard-response","245","3435299","0.0-13.0-1.48","a","11","<p style=""font-size: 48px;"">+</p>","null","1","","","","","","",""
"500.6949999947101","","image-keyboard-response","246","3435801","0.0-13.0-2.48","a","11","Images/whistle_3.png","76","1","1581633457506","match","whistle","whistle","label","test","false"
"null","","audio-keyboard-response","247","3437809","0.0-13.0-3.48","a","11","Sounds/incorrect.wav","null","1","","","","","","",""
"null","","audio-keyboard-response","248","3438886","0.0-13.0-0.49","a","11","Sounds/car_sound.wav","null","1","","","","","","",""
"null","","html-keyboard-response","249","3439882","0.0-13.0-1.49","a","11","<p style=""font-size: 48px;"">+</p>","null","1","","","","","","",""
"565.4599999981001","","image-keyboard-response","250","3440449","0.0-13.0-2.49","a","11","Images/frog_cartoon.png","76","1","1581633462089","non-match","frog","car","sound","test","true"
"null","","audio-keyboard-response","251","3442456","0.0-13.0-3.49","a","11","Sounds/correct.wav","null","1","","","","","","",""
"null","","audio-keyboard-response","252","3443585","0.0-13.0-0.50","a","11","Sounds/motorcycle_label.wav","null","1","","","","","","",""
"null","","html-keyboard-response","253","3444582","0.0-13.0-1.50","a","11","<p style=""font-size: 48px;"">+</p>","null","1","","","","","","",""
"433.6449999976903","","image-keyboard-response","254","3445017","0.0-13.0-2.50","a","11","Images/dog_orig.png","76","1","1581633466789","non-match","dog","motorcycle","label","test","true"
"null","","audio-keyboard-response","255","3447031","0.0-13.0-3.50","a","11","Sounds/correct.wav","null","1","","","","","","",""
"null","","audio-keyboard-response","256","3447605","0.0-13.0-0.51","a","11","Sounds/gun_label.wav","null","1","","","","","","",""
"null","","html-keyboard-response","257","3448599","0.0-13.0-1.51","a","11","<p style=""font-size: 48px;"">+</p>","null","1","","","","","","",""
"432.6099999891594","","image-keyboard-response","258","3449033","0.0-13.0-2.51","a","11","Images/frog_3.png","76","1","1581633470806","non-match","frog","gun","label","test","true"
"null","","audio-keyboard-response","259","3451047","0.0-13.0-3.51","a","11","Sounds/correct.wav","null","1","","","","","","",""
"null","","audio-keyboard-response","260","3451706","0.0-13.0-0.52","a","11","Sounds/dog_label.wav","null","1","","","","","","",""
"null","","html-keyboard-response","261","3452699","0.0-13.0-1.52","a","11","<p style=""font-size: 48px;"">+</p>","null","1","","","","","","",""
"572.6149999974295","","image-keyboard-response","262","3453273","0.0-13.0-2.52","a","11","Images/motorcycle_1.png","76","1","1581633474906","non-match","motorcycle","dog","label","test","true"
"null","","audio-keyboard-response","263","3455288","0.0-13.0-3.52","a","11","Sounds/correct.wav","null","1","","","","","","",""
"null","","audio-keyboard-response","264","3456125","0.0-13.0-0.53","a","11","Sounds/cat_sound.wav","null","1","","","","","","",""
"null","","html-keyboard-response","265","3457116","0.0-13.0-1.53","a","11","<p style=""font-size: 48px;"">+</p>","null","1","","","","","","",""
"548.0600000009872","","image-keyboard-response","266","3457665","0.0-13.0-2.53","a","11","Images/train_3.png","76","1","1581633479323","non-match","train","cat","sound","test","true"
"null","","audio-keyboard-response","267","3459674","0.0-13.0-3.53","a","11","Sounds/correct.wav","null","1","","","","","","",""
"null","","audio-keyboard-response","268","3460385","0.0-13.0-0.54","a","11","Sounds/dog_sound.wav","null","1","","","","","","",""
"null","","html-keyboard-response","269","3461382","0.0-13.0-1.54","a","11","<p style=""font-size: 48px;"">+</p>","null","1","","","","","","",""
"409.07999999728054","","image-keyboard-response","270","3461793","0.0-13.0-2.54","a","11","Images/dog_1.png","65","1","1581633483589","match","dog","dog","sound","test","true"
"null","","audio-keyboard-response","271","3463802","0.0-13.0-3.54","a","11","Sounds/correct.wav","null","1","","","","","","",""
"null","","audio-keyboard-response","272","3464705","0.0-13.0-0.55","a","11","Sounds/frog_label.wav","null","1","","","","","","",""
"null","","html-keyboard-response","273","3465699","0.0-13.0-1.55","a","11","<p style=""font-size: 48px;"">+</p>","null","1","","","","","","",""
"364.29500000644475","","image-keyboard-response","274","3466065","0.0-13.0-2.55","a","11","Images/train_orig.png","76","1","1581633487906","non-match","train","frog","label","test","true"
"null","","audio-keyboard-response","275","3468074","0.0-13.0-3.55","a","11","Sounds/correct.wav","null","1","","","","","","",""
"null","","audio-keyboard-response","276","3468646","0.0-13.0-0.56","a","11","Sounds/gun_sound.wav","null","1","","","","","","",""
"null","","html-keyboard-response","277","3469649","0.0-13.0-1.56","a","11","<p style=""font-size: 48px;"">+</p>","null","1","","","","","","",""
"454.2749999961816","","image-keyboard-response","278","3470105","0.0-13.0-2.56","a","11","Images/gun_2.png","65","1","1581633491856","match","gun","gun","sound","test","true"
"null","","audio-keyboard-response","279","3472113","0.0-13.0-3.56","a","11","Sounds/correct.wav","null","1","","","","","","",""
"null","","audio-keyboard-response","280","3473245","0.0-13.0-0.57","a","11","Sounds/motorcycle_label.wav","null","1","","","","","","",""
"null","","html-keyboard-response","281","3474249","0.0-13.0-1.57","a","11","<p style=""font-size: 48px;"">+</p>","null","1","","","","","","",""
"486.19999999925494","","image-keyboard-response","282","3474737","0.0-13.0-2.57","a","11","Images/motorcycle_3.png","65","1","1581633496456","match","motorcycle","motorcycle","label","test","true"
"null","","audio-keyboard-response","283","3476744","0.0-13.0-3.57","a","11","Sounds/correct.wav","null","1","","","","","","",""
"null","","audio-keyboard-response","284","3477446","0.0-13.0-0.58","a","11","Sounds/dog_sound.wav","null","1","","","","","","",""
"null","","html-keyboard-response","285","3478449","0.0-13.0-1.58","a","11","<p style=""font-size: 48px;"">+</p>","null","1","","","","","","",""
"414.19500000495464","","image-keyboard-response","286","3478865","0.0-13.0-2.58","a","11","Images/gun_3.png","76","1","1581633500656","non-match","gun","dog","sound","test","true"
"null","","audio-keyboard-response","287","3480882","0.0-13.0-3.58","a","11","Sounds/correct.wav","null","1","","","","","","",""
"null","","audio-keyboard-response","288","3481906","0.0-13.0-0.59","a","11","Sounds/cow_label.wav","null","1","","","","","","",""
"null","","html-keyboard-response","289","3482899","0.0-13.0-1.59","a","11","<p style=""font-size: 48px;"">+</p>","null","1","","","","","","",""
"524.6599999954924","","image-keyboard-response","290","3483425","0.0-13.0-2.59","a","11","Images/cow_cartoon.png","65","1","1581633505106","match","cow","cow","label","test","true"
"null","","audio-keyboard-response","291","3485441","0.0-13.0-3.59","a","11","Sounds/correct.wav","null","1","","","","","","",""
"null","","audio-keyboard-response","292","3486126","0.0-13.0-0.60","a","11","Sounds/dog_sound.wav","null","1","","","","","","",""
"null","","html-keyboard-response","293","3487116","0.0-13.0-1.60","a","11","<p style=""font-size: 48px;"">+</p>","null","1","","","","","","",""
"571.4850000077859","","image-keyboard-response","294","3487689","0.0-13.0-2.60","a","11","Images/dog_cartoon.png","65","1","1581633509323","match","dog","dog","sound","test","true"
"null","","audio-keyboard-response","295","3489705","0.0-13.0-3.60","a","11","Sounds/correct.wav","null","1","","","","","","",""
"null","","audio-keyboard-response","296","3490826","0.0-13.0-0.61","a","11","Sounds/motorcycle_label.wav","null","1","","","","","","",""
"null","","html-keyboard-response","297","3491816","0.0-13.0-1.61","a","11","<p style=""font-size: 48px;"">+</p>","null","1","","","","","","",""
"375.56999998912215","","image-keyboard-response","298","3492193","0.0-13.0-2.61","a","11","Images/cat_2.png","76","1","1581633514023","non-match","cat","motorcycle","label","test","true"
"null","","audio-keyboard-response","299","3494203","0.0-13.0-3.61","a","11","Sounds/correct.wav","null","1","","","","","","",""
"null","","audio-keyboard-response","300","3495106","0.0-13.0-0.62","a","11","Sounds/frog_label.wav","null","1","","","","","","",""
"null","","html-keyboard-response","301","3496100","0.0-13.0-1.62","a","11","<p style=""font-size: 48px;"">+</p>","null","1","","","","","","",""
"388.3899999926798","","image-keyboard-response","302","3496489","0.0-13.0-2.62","a","11","Images/frog_cartoon.png","65","1","1581633518307","match","frog","frog","label","test","true"
"null","","audio-keyboard-response","303","3498502","0.0-13.0-3.62","a","11","Sounds/correct.wav","null","1","","","","","","",""
"null","","audio-keyboard-response","304","3499206","0.0-13.0-0.63","a","11","Sounds/rooster_label.wav","null","1","","","","","","",""
"null","","html-keyboard-response","305","3500200","0.0-13.0-1.63","a","11","<p style=""font-size: 48px;"">+</p>","null","1","","","","","","",""
"376.0550000006333","","image-keyboard-response","306","3500577","0.0-13.0-2.63","a","11","Images/car_cartoon.png","76","1","1581633522407","non-match","car","rooster","label","test","true"
"null","","audio-keyboard-response","307","3502587","0.0-13.0-3.63","a","11","Sounds/correct.wav","null","1","","","","","","",""
"null","","audio-keyboard-response","308","3503706","0.0-13.0-0.64","a","11","Sounds/motorcycle_sound.wav","null","1","","","","","","",""
"null","","html-keyboard-response","309","3504700","0.0-13.0-1.64","a","11","<p style=""font-size: 48px;"">+</p>","null","1","","","","","","",""
"483.96000001206994","","image-keyboard-response","310","3505185","0.0-13.0-2.64","a","11","Images/motorcycle_1.png","65","1","1581633526907","match","motorcycle","motorcycle","sound","test","true"
"null","","audio-keyboard-response","311","3507196","0.0-13.0-3.64","a","11","Sounds/correct.wav","null","1","","","","","","",""
"null","","audio-keyboard-response","312","3508306","0.0-13.0-0.65","a","11","Sounds/motorcycle_label.wav","null","1","","","","","","",""
"null","","html-keyboard-response","313","3509300","0.0-13.0-1.65","a","11","<p style=""font-size: 48px;"">+</p>","null","1","","","","","","",""
"364.0500000040047","","image-keyboard-response","314","3509665","0.0-13.0-2.65","a","11","Images/motorcycle_cartoon.png","65","1","1581633531507","match","motorcycle","motorcycle","label","test","true"
"null","","audio-keyboard-response","315","3511672","0.0-13.0-3.65","a","11","Sounds/correct.wav","null","1","","","","","","",""
"null","","audio-keyboard-response","316","3512346","0.0-13.0-0.66","a","11","Sounds/rooster_label.wav","null","1","","","","","","",""
"null","","html-keyboard-response","317","3513350","0.0-13.0-1.66","a","11","<p style=""font-size: 48px;"">+</p>","null","1","","","","","","",""
"473.7849999945611","","image-keyboard-response","318","3513825","0.0-13.0-2.66","a","11","Images/dog_2.png","76","1","1581633535557","non-match","dog","rooster","label","test","true"
"null","","audio-keyboard-response","319","3515829","0.0-13.0-3.66","a","11","Sounds/correct.wav","null","1","","","","","","",""
"null","","audio-keyboard-response","320","3516406","0.0-13.0-0.67","a","11","Sounds/gun_sound.wav","null","1","","","","","","",""
"null","","html-keyboard-response","321","3517400","0.0-13.0-1.67","a","11","<p style=""font-size: 48px;"">+</p>","null","1","","","","","","",""
"463.99000000348315","","image-keyboard-response","322","3517865","0.0-13.0-2.67","a","11","Images/cat_cartoon.png","76","1","1581633539607","non-match","cat","gun","sound","test","true"
"null","","audio-keyboard-response","323","3519879","0.0-13.0-3.67","a","11","Sounds/correct.wav","null","1","","","","","","",""
"null","","audio-keyboard-response","324","3520726","0.0-13.0-0.68","a","11","Sounds/cat_label.wav","null","1","","","","","","",""
"null","","html-keyboard-response","325","3521717","0.0-13.0-1.68","a","11","<p style=""font-size: 48px;"">+</p>","null","1","","","","","","",""
"491.3000000086613","","image-keyboard-response","326","3522209","0.0-13.0-2.68","a","11","Images/cat_3.png","65","1","1581633543924","match","cat","cat","label","test","true"
"null","","audio-keyboard-response","327","3524213","0.0-13.0-3.68","a","11","Sounds/correct.wav","null","1","","","","","","",""
"null","","audio-keyboard-response","328","3525486","0.0-13.0-0.69","a","11","Sounds/train_label.wav","null","1","","","","","","",""
"null","","html-keyboard-response","329","3526483","0.0-13.0-1.69","a","11","<p style=""font-size: 48px;"">+</p>","null","1","","","","","","",""
"380.3400000031106","","image-keyboard-response","330","3526865","0.0-13.0-2.69","a","11","Images/train_2.png","65","1","1581633548691","match","train","train","label","test","true"
"null","","audio-keyboard-response","331","3528870","0.0-13.0-3.69","a","11","Sounds/correct.wav","null","1","","","","","","",""
"null","","audio-keyboard-response","332","3529766","0.0-13.0-0.70","a","11","Sounds/frog_label.wav","null","1","","","","","","",""
"null","","html-keyboard-response","333","3530784","0.0-13.0-1.70","a","11","<p style=""font-size: 48px;"">+</p>","null","1","","","","","","",""
"336.2199999978766","","image-keyboard-response","334","3531121","0.0-13.0-2.70","a","11","Images/frog_2.png","65","1","1581633552990","match","frog","frog","label","test","true"
"null","","audio-keyboard-response","335","3533137","0.0-13.0-3.70","a","11","Sounds/correct.wav","null","1","","","","","","",""
"null","","audio-keyboard-response","336","3534426","0.0-13.0-0.71","a","11","Sounds/train_sound.wav","null","1","","","","","","",""
"null","","html-keyboard-response","337","3535417","0.0-13.0-1.71","a","11","<p style=""font-size: 48px;"">+</p>","null","1","","","","","","",""
"351.149999987334","","image-keyboard-response","338","3535769","0.0-13.0-2.71","a","11","Images/train_cartoon.png","65","1","1581633557624","match","train","train","sound","test","true"
"null","","audio-keyboard-response","339","3537773","0.0-13.0-3.71","a","11","Sounds/correct.wav","null","1","","","","","","",""
"null","","audio-keyboard-response","340","3538786","0.0-13.0-0.72","a","11","Sounds/cow_sound.wav","null","1","","","","","","",""
"null","","html-keyboard-response","341","3539783","0.0-13.0-1.72","a","11","<p style=""font-size: 48px;"">+</p>","null","1","","","","","","",""
"360.24500000383705","","image-keyboard-response","342","3540145","0.0-13.0-2.72","a","11","Images/cow_2.png","65","1","1581633561991","match","cow","cow","sound","test","true"
"null","","audio-keyboard-response","343","3542156","0.0-13.0-3.72","a","11","Sounds/correct.wav","null","1","","","","","","",""
"null","","audio-keyboard-response","344","3543146","0.0-13.0-0.73","a","11","Sounds/cow_sound.wav","null","1","","","","","","",""
"null","","html-keyboard-response","345","3544150","0.0-13.0-1.73","a","11","<p style=""font-size: 48px;"">+</p>","null","1","","","","","","",""
"377.3050000020303","","image-keyboard-response","346","3544529","0.0-13.0-2.73","a","11","Images/cat_1.png","76","1","1581633566358","non-match","cat","cow","sound","test","true"
"null","","audio-keyboard-response","347","3546536","0.0-13.0-3.73","a","11","Sounds/correct.wav","null","1","","","","","","",""
"null","","audio-keyboard-response","348","3547106","0.0-13.0-0.74","a","11","Sounds/gun_sound.wav","null","1","","","","","","",""
"null","","html-keyboard-response","349","3548100","0.0-13.0-1.74","a","11","<p style=""font-size: 48px;"">+</p>","null","1","","","","","","",""
"411.86999999638647","","image-keyboard-response","350","3548513","0.0-13.0-2.74","a","11","Images/gun_orig.png","65","1","1581633570307","match","gun","gun","sound","test","true"
"null","","audio-keyboard-response","351","3550519","0.0-13.0-3.74","a","11","Sounds/correct.wav","null","1","","","","","","",""
"null","","audio-keyboard-response","352","3551206","0.0-13.0-0.75","a","11","Sounds/rooster_sound.wav","null","1","","","","","","",""
"null","","html-keyboard-response","353","3552200","0.0-13.0-1.75","a","11","<p style=""font-size: 48px;"">+</p>","null","1","","","","","","",""
"375.29999999981374","","image-keyboard-response","354","3552577","0.0-13.0-2.75","a","11","Images/motorcycle_orig.png","76","1","1581633574407","non-match","motorcycle","rooster","sound","test","true"
"null","","audio-keyboard-response","355","3554588","0.0-13.0-3.75","a","11","Sounds/correct.wav","null","1","","","","","","",""
"null","","audio-keyboard-response","356","3555706","0.0-13.0-0.76","a","11","Sounds/motorcycle_sound.wav","null","1","","","","","","",""
"null","","html-keyboard-response","357","3556700","0.0-13.0-1.76","a","11","<p style=""font-size: 48px;"">+</p>","null","1","","","","","","",""
"442.09500000532717","","image-keyboard-response","358","3557145","0.0-13.0-2.76","a","11","Images/frog_2.png","65","1","1581633578908","non-match","frog","motorcycle","sound","test","false"
"null","","audio-keyboard-response","359","3559148","0.0-13.0-3.76","a","11","Sounds/incorrect.wav","null","1","","","","","","",""
"null","","audio-keyboard-response","360","3559846","0.0-13.0-0.77","a","11","Sounds/whistle_label.wav","null","1","","","","","","",""
"null","","html-keyboard-response","361","3560851","0.0-13.0-1.77","a","11","<p style=""font-size: 48px;"">+</p>","null","1","","","","","","",""
"397.38500000396743","","image-keyboard-response","362","3561249","0.0-13.0-2.77","a","11","Images/whistle_2.png","65","1","1581633583058","match","whistle","whistle","label","test","true"
"null","","audio-keyboard-response","363","3563252","0.0-13.0-3.77","a","11","Sounds/correct.wav","null","1","","","","","","",""
"null","","audio-keyboard-response","364","3564526","0.0-13.0-0.78","a","11","Sounds/train_label.wav","null","1","","","","","","",""
"null","","html-keyboard-response","365","3565517","0.0-13.0-1.78","a","11","<p style=""font-size: 48px;"">+</p>","null","1","","","","","","",""
"402.6799999992363","","image-keyboard-response","366","3565921","0.0-13.0-2.78","a","11","Images/rooster_2.png","76","1","1581633587724","non-match","rooster","train","label","test","true"
"null","","audio-keyboard-response","367","3567936","0.0-13.0-3.78","a","11","Sounds/correct.wav","null","1","","","","","","",""
"null","","audio-keyboard-response","368","3568826","0.0-13.0-0.79","a","11","Sounds/frog_label.wav","null","1","","","","","","",""
"null","","html-keyboard-response","369","3569817","0.0-13.0-1.79","a","11","<p style=""font-size: 48px;"">+</p>","null","1","","","","","","",""
"350.59499999601394","","image-keyboard-response","370","3570169","0.0-13.0-2.79","a","11","Images/rooster_1.png","76","1","1581633592024","non-match","rooster","frog","label","test","true"
"null","","audio-keyboard-response","371","3572173","0.0-13.0-3.79","a","11","Sounds/correct.wav","null","1","","","","","","",""
"null","","audio-keyboard-response","372","3573266","0.0-13.0-0.80","a","11","Sounds/motorcycle_sound.wav","null","1","","","","","","",""
"null","","html-keyboard-response","373","3574284","0.0-13.0-1.80","a","11","<p style=""font-size: 48px;"">+</p>","null","1","","","","","","",""
"395.95000000530854","","image-keyboard-response","374","3574681","0.0-13.0-2.80","a","11","Images/whistle_cartoon.png","76","1","1581633596491","non-match","whistle","motorcycle","sound","test","true"
"null","","audio-keyboard-response","375","3576689","0.0-13.0-3.80","a","11","Sounds/correct.wav","null","1","","","","","","",""
"null","","audio-keyboard-response","376","3577266","0.0-13.0-0.81","a","11","Sounds/gun_label.wav","null","1","","","","","","",""
"null","","html-keyboard-response","377","3578284","0.0-13.0-1.81","a","11","<p style=""font-size: 48px;"">+</p>","null","1","","","","","","",""
"427.9200000022538","","image-keyboard-response","378","3578713","0.0-13.0-2.81","a","11","Images/gun_cartoon.png","65","1","1581633600491","match","gun","gun","label","test","true"
"null","","audio-keyboard-response","379","3580716","0.0-13.0-3.81","a","11","Sounds/correct.wav","null","1","","","","","","",""
"null","","audio-keyboard-response","380","3581546","0.0-13.0-0.82","a","11","Sounds/cat_sound.wav","null","1","","","","","","",""
"null","","html-keyboard-response","381","3582534","0.0-13.0-1.82","a","11","<p style=""font-size: 48px;"">+</p>","null","1","","","","","","",""
"362.36500000813976","","image-keyboard-response","382","3582897","0.0-13.0-2.82","a","11","Images/cat_orig.png","76","1","1581633604741","match","cat","cat","sound","test","false"
"null","","audio-keyboard-response","383","3584906","0.0-13.0-3.82","a","11","Sounds/incorrect.wav","null","1","","","","","","",""
"null","","audio-keyboard-response","384","3585746","0.0-13.0-0.83","a","11","Sounds/cat_label.wav","null","1","","","","","","",""
"null","","html-keyboard-response","385","3586734","0.0-13.0-1.83","a","11","<p style=""font-size: 48px;"">+</p>","null","1","","","","","","",""
"353.88499998953193","","image-keyboard-response","386","3587089","0.0-13.0-2.83","a","11","Images/cat_1.png","65","1","1581633608941","match","cat","cat","label","test","true"
"null","","audio-keyboard-response","387","3589106","0.0-13.0-3.83","a","11","Sounds/correct.wav","null","1","","","","","","",""
"null","","audio-keyboard-response","388","3590126","0.0-13.0-0.84","a","11","Sounds/cow_label.wav","null","1","","","","","","",""
"null","","html-keyboard-response","389","3591117","0.0-13.0-1.84","a","11","<p style=""font-size: 48px;"">+</p>","null","1","","","","","","",""
"361.1499999971129","","image-keyboard-response","390","3591481","0.0-13.0-2.84","a","11","Images/cow_1.png","65","1","1581633613325","match","cow","cow","label","test","true"
"null","","audio-keyboard-response","391","3593491","0.0-13.0-3.84","a","11","Sounds/correct.wav","null","1","","","","","","",""
"null","","audio-keyboard-response","392","3594766","0.0-13.0-0.85","a","11","Sounds/train_label.wav","null","1","","","","","","",""
"null","","html-keyboard-response","393","3595784","0.0-13.0-1.85","a","11","<p style=""font-size: 48px;"">+</p>","null","1","","","","","","",""
"429.1899999952875","","image-keyboard-response","394","3596217","0.0-13.0-2.85","a","11","Images/dog_1.png","76","1","1581633617992","non-match","dog","train","label","test","true"
"null","","audio-keyboard-response","395","3598232","0.0-13.0-3.85","a","11","Sounds/correct.wav","null","1","","","","","","",""
"null","","audio-keyboard-response","396","3598926","0.0-13.0-0.86","a","11","Sounds/whistle_label.wav","null","1","","","","","","",""
"null","","html-keyboard-response","397","3599918","0.0-13.0-1.86","a","11","<p style=""font-size: 48px;"">+</p>","null","1","","","","","","",""
"490.5200000065379","","image-keyboard-response","398","3600409","0.0-13.0-2.86","a","11","Images/frog_1.png","76","1","1581633622125","non-match","frog","whistle","label","test","true"
"null","","audio-keyboard-response","399","3602412","0.0-13.0-3.86","a","11","Sounds/correct.wav","null","1","","","","","","",""
"null","","audio-keyboard-response","400","3603306","0.0-13.0-0.87","a","11","Sounds/frog_label.wav","null","1","","","","","","",""
"null","","html-keyboard-response","401","3604301","0.0-13.0-1.87","a","11","<p style=""font-size: 48px;"">+</p>","null","1","","","","","","",""
"402.9900000025518","","image-keyboard-response","402","3604705","0.0-13.0-2.87","a","11","Images/car_3.png","76","1","1581633626508","non-match","car","frog","label","test","true"
"null","","audio-keyboard-response","403","3606719","0.0-13.0-3.87","a","11","Sounds/correct.wav","null","1","","","","","","",""
"null","","audio-keyboard-response","404","3607406","0.0-13.0-0.88","a","11","Sounds/rooster_label.wav","null","1","","","","","","",""
"null","","html-keyboard-response","405","3608401","0.0-13.0-1.88","a","11","<p style=""font-size: 48px;"">+</p>","null","1","","","","","","",""
"503.25500000314787","","image-keyboard-response","406","3608905","0.0-13.0-2.88","a","11","Images/gun_cartoon.png","76","1","1581633630608","non-match","gun","rooster","label","test","true"
"null","","audio-keyboard-response","407","3610912","0.0-13.0-3.88","a","11","Sounds/correct.wav","null","1","","","","","","",""
"null","","audio-keyboard-response","408","3611926","0.0-13.0-0.89","a","11","Sounds/cow_sound.wav","null","1","","","","","","",""
"null","","html-keyboard-response","409","3612918","0.0-13.0-1.89","a","11","<p style=""font-size: 48px;"">+</p>","null","1","","","","","","",""
"450.33500000089407","","image-keyboard-response","410","3613369","0.0-13.0-2.89","a","11","Images/car_2.png","76","1","1581633635125","non-match","car","cow","sound","test","true"
"null","","audio-keyboard-response","411","3615374","0.0-13.0-3.89","a","11","Sounds/correct.wav","null","1","","","","","","",""
"null","","audio-keyboard-response","412","3616446","0.0-13.0-0.90","a","11","Sounds/car_sound.wav","null","1","","","","","","",""
"null","","html-keyboard-response","413","3617451","0.0-13.0-1.90","a","11","<p style=""font-size: 48px;"">+</p>","null","1","","","","","","",""
"508.42499999236315","","image-keyboard-response","414","3617961","0.0-13.0-2.90","a","11","Images/car_orig.png","65","1","1581633639658","match","car","car","sound","test","true"
"null","","audio-keyboard-response","415","3619975","0.0-13.0-3.90","a","11","Sounds/correct.wav","null","1","","","","","","",""
"null","","audio-keyboard-response","416","3620546","0.0-13.0-0.91","a","11","Sounds/gun_sound.wav","null","1","","","","","","",""
"null","","html-keyboard-response","417","3621534","0.0-13.0-1.91","a","11","<p style=""font-size: 48px;"">+</p>","null","1","","","","","","",""
"353.47999999066815","","image-keyboard-response","418","3621889","0.0-13.0-2.91","a","11","Images/rooster_3.png","76","1","1581633643741","non-match","rooster","gun","sound","test","true"
"null","","audio-keyboard-response","419","3623906","0.0-13.0-3.91","a","11","Sounds/correct.wav","null","1","","","","","","",""
"null","","audio-keyboard-response","420","3624906","0.0-13.0-0.92","a","11","Sounds/cow_sound.wav","null","1","","","","","","",""
"null","","html-keyboard-response","421","3625901","0.0-13.0-1.92","a","11","<p style=""font-size: 48px;"">+</p>","null","1","","","","","","",""
"378.88999999314547","","image-keyboard-response","422","3626281","0.0-13.0-2.92","a","11","Images/cow_orig.png","76","1","1581633648108","match","cow","cow","sound","test","false"
"null","","audio-keyboard-response","423","3628288","0.0-13.0-3.92","a","11","Sounds/incorrect.wav","null","1","","","","","","",""
"null","","audio-keyboard-response","424","3629206","0.0-13.0-0.93","a","11","Sounds/frog_sound.wav","null","1","","","","","","",""
"null","","html-keyboard-response","425","3630201","0.0-13.0-1.93","a","11","<p style=""font-size: 48px;"">+</p>","null","1","","","","","","",""
"382.769999996759","","image-keyboard-response","426","3630585","0.0-13.0-2.93","a","11","Images/frog_3.png","65","1","1581633652408","match","frog","frog","sound","test","true"
"null","","audio-keyboard-response","427","3632587","0.0-13.0-3.93","a","11","Sounds/correct.wav","null","1","","","","","","",""
"null","","audio-keyboard-response","428","3633866","0.0-13.0-0.94","a","11","Sounds/train_label.wav","null","1","","","","","","",""
"null","","html-keyboard-response","429","3634868","0.0-13.0-1.94","a","11","<p style=""font-size: 48px;"">+</p>","null","1","","","","","","",""
"652.0149999996647","","image-keyboard-response","430","3635521","0.0-13.0-2.94","a","11","Images/train_3.png","65","1","1581633657075","match","train","train","label","test","true"
"null","","audio-keyboard-response","431","3637533","0.0-13.0-3.94","a","11","Sounds/correct.wav","null","1","","","","","","",""
"null","","audio-keyboard-response","432","3638546","0.0-13.0-0.95","a","11","Sounds/cow_label.wav","null","1","","","","","","",""
"null","","html-keyboard-response","433","3639551","0.0-13.0-1.95","a","11","<p style=""font-size: 48px;"">+</p>","null","1","","","","","","",""
"399.3449999978766","","image-keyboard-response","434","3639953","0.0-13.0-2.95","a","11","Images/whistle_orig.png","76","1","1581633661758","non-match","whistle","cow","label","test","true"
"null","","audio-keyboard-response","435","3641968","0.0-13.0-3.95","a","11","Sounds/correct.wav","null","1","","","","","","",""
"null","","audio-keyboard-response","436","3643046","0.0-13.0-0.96","a","11","Sounds/car_label.wav","null","1","","","","","","",""
"null","","html-keyboard-response","437","3644051","0.0-13.0-1.96","a","11","<p style=""font-size: 48px;"">+</p>","null","1","","","","","","",""
"612.1799999964423","","image-keyboard-response","438","3644665","0.0-13.0-2.96","a","11","Images/car_cartoon.png","65","1","1581633666258","match","car","car","label","test","true"
"null","","audio-keyboard-response","439","3646671","0.0-13.0-3.96","a","11","Sounds/correct.wav","null","1","","","","","","",""
"null","","audio-keyboard-response","440","3647746","0.0-13.0-0.97","a","11","Sounds/car_sound.wav","null","1","","","","","","",""
"null","","html-keyboard-response","441","3648751","0.0-13.0-1.97","a","11","<p style=""font-size: 48px;"">+</p>","null","1","","","","","","",""
"384.8250000006519","","image-keyboard-response","442","3649137","0.0-13.0-2.97","a","11","Images/rooster_cartoon.png","76","1","1581633670958","non-match","rooster","car","sound","test","true"
"null","","audio-keyboard-response","443","3651153","0.0-13.0-3.97","a","11","Sounds/correct.wav","null","1","","","","","","",""
"null","","audio-keyboard-response","444","3652286","0.0-13.0-0.98","a","11","Sounds/motorcycle_label.wav","null","1","","","","","","",""
"null","","html-keyboard-response","445","3653285","0.0-13.0-1.98","a","11","<p style=""font-size: 48px;"">+</p>","null","1","","","","","","",""
"395.14500000234693","","image-keyboard-response","446","3653681","0.0-13.0-2.98","a","11","Images/motorcycle_2.png","65","1","1581633675492","match","motorcycle","motorcycle","label","test","true"
"null","","audio-keyboard-response","447","3655686","0.0-13.0-3.98","a","11","Sounds/correct.wav","null","1","","","","","","",""
"null","","audio-keyboard-response","448","3656686","0.0-13.0-0.99","a","11","Sounds/cow_label.wav","null","1","","","","","","",""
"null","","html-keyboard-response","449","3657685","0.0-13.0-1.99","a","11","<p style=""font-size: 48px;"">+</p>","null","1","","","","","","",""
"419.12500000046566","","image-keyboard-response","450","3658105","0.0-13.0-2.99","a","11","Images/cow_3.png","65","1","1581633679892","match","cow","cow","label","test","true"
"null","","audio-keyboard-response","451","3660118","0.0-13.0-3.99","a","11","Sounds/correct.wav","null","1","","","","","","",""
"10730.669999989681","","html-keyboard-response","452","3670849","0.0-14.0","a","11","<p>Please take this opportunity to rest your eyes before proceeding.</p><p>When ready, press the enter key to continue to the next set of trials.</p>","13","","","","","","","",""
"null","","audio-keyboard-response","453","3673531","0.0-15.0-0.0","a","11","Sounds/rooster_label.wav","null","2","","","","","","",""
"null","","html-keyboard-response","454","3674535","0.0-15.0-1.0","a","11","<p style=""font-size: 48px;"">+</p>","null","2","","","","","","",""
"376.74499998707324","","image-keyboard-response","455","3674913","0.0-15.0-2.0","a","11","Images/rooster_orig.png","65","2","1581633696742","match","rooster","rooster","label","test","true"
"null","","audio-keyboard-response","456","3676921","0.0-15.0-3.0","a","11","Sounds/correct.wav","null","2","","","","","","",""
"null","","audio-keyboard-response","457","3677491","0.0-15.0-0.1","a","11","Sounds/gun_sound.wav","null","2","","","","","","",""
"null","","html-keyboard-response","458","3678485","0.0-15.0-1.1","a","11","<p style=""font-size: 48px;"">+</p>","null","2","","","","","","",""
"482.8049999922514","","image-keyboard-response","459","3678969","0.0-15.0-2.1","a","11","Images/gun_3.png","76","2","1581633700692","match","gun","gun","sound","test","false"
"null","","audio-keyboard-response","460","3680980","0.0-15.0-3.1","a","11","Sounds/incorrect.wav","null","2","","","","","","",""
"null","","audio-keyboard-response","461","3681671","0.0-15.0-0.2","a","11","Sounds/rooster_sound.wav","null","2","","","","","","",""
"null","","html-keyboard-response","462","3682668","0.0-15.0-1.2","a","11","<p style=""font-size: 48px;"">+</p>","null","2","","","","","","",""
"491.5199999958277","","image-keyboard-response","463","3683161","0.0-15.0-2.2","a","11","Images/dog_3.png","76","2","1581633704875","non-match","dog","rooster","sound","test","true"
"null","","audio-keyboard-response","464","3685164","0.0-15.0-3.2","a","11","Sounds/correct.wav","null","2","","","","","","",""
"null","","audio-keyboard-response","465","3686191","0.0-15.0-0.3","a","11","Sounds/cow_sound.wav","null","2","","","","","","",""
"null","","html-keyboard-response","466","3687185","0.0-15.0-1.3","a","11","<p style=""font-size: 48px;"">+</p>","null","2","","","","","","",""
"374.6800000080839","","image-keyboard-response","467","3687561","0.0-15.0-2.3","a","11","Images/cow_2.png","65","2","1581633709392","match","cow","cow","sound","test","true"
"null","","audio-keyboard-response","468","3689573","0.0-15.0-3.3","a","11","Sounds/correct.wav","null","2","","","","","","",""
"null","","audio-keyboard-response","469","3690131","0.0-15.0-0.4","a","11","Sounds/gun_sound.wav","null","2","","","","","","",""
"null","","html-keyboard-response","470","3691135","0.0-15.0-1.4","a","11","<p style=""font-size: 48px;"">+</p>","null","2","","","","","","",""
"464.6450000000186","","image-keyboard-response","471","3691601","0.0-15.0-2.4","a","11","Images/gun_cartoon.png","65","2","1581633713342","match","gun","gun","sound","test","true"
"null","","audio-keyboard-response","472","3693617","0.0-15.0-3.4","a","11","Sounds/correct.wav","null","2","","","","","","",""
"null","","audio-keyboard-response","473","3694691","0.0-15.0-0.5","a","11","Sounds/car_label.wav","null","2","","","","","","",""
"null","","html-keyboard-response","474","3695685","0.0-15.0-1.5","a","11","<p style=""font-size: 48px;"">+</p>","null","2","","","","","","",""
"530.8550000041723","","image-keyboard-response","475","3696217","0.0-15.0-2.5","a","11","Images/whistle_cartoon.png","76","2","1581633717892","non-match","whistle","car","label","test","true"
"null","","audio-keyboard-response","476","3698227","0.0-15.0-3.5","a","11","Sounds/correct.wav","null","2","","","","","","",""
"null","","audio-keyboard-response","477","3698891","0.0-15.0-0.6","a","11","Sounds/dog_label.wav","null","2","","","","","","",""
"null","","html-keyboard-response","478","3699885","0.0-15.0-1.6","a","11","<p style=""font-size: 48px;"">+</p>","null","2","","","","","","",""
"402.66000000713393","","image-keyboard-response","479","3700289","0.0-15.0-2.6","a","11","Images/dog_orig.png","65","2","1581633722092","match","dog","dog","label","test","true"
"null","","audio-keyboard-response","480","3702304","0.0-15.0-3.6","a","11","Sounds/correct.wav","null","2","","","","","","",""
"null","","audio-keyboard-response","481","3703351","0.0-15.0-0.7","a","11","Sounds/car_label.wav","null","2","","","","","","",""
"null","","html-keyboard-response","482","3704352","0.0-15.0-1.7","a","11","<p style=""font-size: 48px;"">+</p>","null","2","","","","","","",""
"407.93499999539927","","image-keyboard-response","483","3704761","0.0-15.0-2.7","a","11","Images/motorcycle_3.png","65","2","1581633726559","non-match","motorcycle","car","label","test","false"
"null","","audio-keyboard-response","484","3706769","0.0-15.0-3.7","a","11","Sounds/incorrect.wav","null","2","","","","","","",""
"null","","audio-keyboard-response","485","3707811","0.0-15.0-0.8","a","11","Sounds/car_label.wav","null","2","","","","","","",""
"null","","html-keyboard-response","486","3708802","0.0-15.0-1.8","a","11","<p style=""font-size: 48px;"">+</p>","null","2","","","","","","",""
"341.6300000096671","","image-keyboard-response","487","3709145","0.0-15.0-2.8","a","11","Images/car_2.png","65","2","1581633731009","match","car","car","label","test","true"
"null","","audio-keyboard-response","488","3711158","0.0-15.0-3.8","a","11","Sounds/correct.wav","null","2","","","","","","",""
"null","","audio-keyboard-response","489","3711851","0.0-15.0-0.9","a","11","Sounds/whistle_sound.wav","null","2","","","","","","",""
"null","","html-keyboard-response","490","3712852","0.0-15.0-1.9","a","11","<p style=""font-size: 48px;"">+</p>","null","2","","","","","","",""
"467.8799999966286","","image-keyboard-response","491","3713321","0.0-15.0-2.9","a","11","Images/whistle_orig.png","65","2","1581633735059","match","whistle","whistle","sound","test","true"
"null","","audio-keyboard-response","492","3715331","0.0-15.0-3.9","a","11","Sounds/correct.wav","null","2","","","","","","",""
"null","","audio-keyboard-response","493","3716171","0.0-15.0-0.10","a","11","Sounds/cat_sound.wav","null","2","","","","","","",""
"null","","html-keyboard-response","494","3717169","0.0-15.0-1.10","a","11","<p style=""font-size: 48px;"">+</p>","null","2","","","","","","",""
"431.08500000368804","","image-keyboard-response","495","3717601","0.0-15.0-2.10","a","11","Images/cat_cartoon.png","65","2","1581633739376","match","cat","cat","sound","test","true"
"null","","audio-keyboard-response","496","3719618","0.0-15.0-3.10","a","11","Sounds/correct.wav","null","2","","","","","","",""
"null","","audio-keyboard-response","497","3720751","0.0-15.0-0.11","a","11","Sounds/motorcycle_label.wav","null","2","","","","","","",""
"null","","html-keyboard-response","498","3721752","0.0-15.0-1.11","a","11","<p style=""font-size: 48px;"">+</p>","null","2","","","","","","",""
"439.8849999997765","","image-keyboard-response","499","3722193","0.0-15.0-2.11","a","11","Images/motorcycle_cartoon.png","65","2","1581633743959","match","motorcycle","motorcycle","label","test","true"
"null","","audio-keyboard-response","500","3724200","0.0-15.0-3.11","a","11","Sounds/correct.wav","null","2","","","","","","",""
"null","","audio-keyboard-response","501","3725011","0.0-15.0-0.12","a","11","Sounds/cat_sound.wav","null","2","","","","","","",""
"null","","html-keyboard-response","502","3726002","0.0-15.0-1.12","a","11","<p style=""font-size: 48px;"">+</p>","null","2","","","","","","",""
"548.5349999945611","","image-keyboard-response","503","3726553","0.0-15.0-2.12","a","11","Images/motorcycle_1.png","76","2","1581633748209","non-match","motorcycle","cat","sound","test","true"
"null","","audio-keyboard-response","504","3728561","0.0-15.0-3.12","a","11","Sounds/correct.wav","null","2","","","","","","",""
"null","","audio-keyboard-response","505","3729451","0.0-15.0-0.13","a","11","Sounds/frog_label.wav","null","2","","","","","","",""
"null","","html-keyboard-response","506","3730469","0.0-15.0-1.13","a","11","<p style=""font-size: 48px;"">+</p>","null","2","","","","","","",""
"346.96499998960644","","image-keyboard-response","507","3730817","0.0-15.0-2.13","a","11","Images/frog_orig.png","65","2","1581633752676","match","frog","frog","label","test","true"
"null","","audio-keyboard-response","508","3732823","0.0-15.0-3.13","a","11","Sounds/correct.wav","null","2","","","","","","",""
"null","","audio-keyboard-response","509","3733511","0.0-15.0-0.14","a","11","Sounds/rooster_label.wav","null","2","","","","","","",""
"null","","html-keyboard-response","510","3734502","0.0-15.0-1.14","a","11","<p style=""font-size: 48px;"">+</p>","null","2","","","","","","",""
"425.8249999987893","","image-keyboard-response","511","3734929","0.0-15.0-2.14","a","11","Images/rooster_cartoon.png","65","2","1581633756709","match","rooster","rooster","label","test","true"
"null","","audio-keyboard-response","512","3736936","0.0-15.0-3.14","a","11","Sounds/correct.wav","null","2","","","","","","",""
"null","","audio-keyboard-response","513","3737591","0.0-15.0-0.15","a","11","Sounds/dog_label.wav","null","2","","","","","","",""
"null","","html-keyboard-response","514","3738585","0.0-15.0-1.15","a","11","<p style=""font-size: 48px;"">+</p>","null","2","","","","","","",""
"366.3100000121631","","image-keyboard-response","515","3738953","0.0-15.0-2.15","a","11","Images/motorcycle_orig.png","76","2","1581633760793","non-match","motorcycle","dog","label","test","true"
"null","","audio-keyboard-response","516","3740958","0.0-15.0-3.15","a","11","Sounds/correct.wav","null","2","","","","","","",""
"null","","audio-keyboard-response","517","3741651","0.0-15.0-0.16","a","11","Sounds/rooster_sound.wav","null","2","","","","","","",""
"null","","html-keyboard-response","518","3742669","0.0-15.0-1.16","a","11","<p style=""font-size: 48px;"">+</p>","null","2","","","","","","",""
"626.8450000062585","","image-keyboard-response","519","3743297","0.0-15.0-2.16","a","11","Images/whistle_3.png","76","2","1581633764876","non-match","whistle","rooster","sound","test","true"
"null","","audio-keyboard-response","520","3745304","0.0-15.0-3.16","a","11","Sounds/correct.wav","null","2","","","","","","",""
"null","","audio-keyboard-response","521","3746331","0.0-15.0-0.17","a","11","Sounds/cow_label.wav","null","2","","","","","","",""
"null","","html-keyboard-response","522","3747336","0.0-15.0-1.17","a","11","<p style=""font-size: 48px;"">+</p>","null","2","","","","","","",""
"376.4300000038929","","image-keyboard-response","523","3747713","0.0-15.0-2.17","a","11","Images/rooster_orig.png","76","2","1581633769543","non-match","rooster","cow","label","test","true"
"null","","audio-keyboard-response","524","3749722","0.0-15.0-3.17","a","11","Sounds/correct.wav","null","2","","","","","","",""
"null","","audio-keyboard-response","525","3750351","0.0-15.0-0.18","a","11","Sounds/dog_label.wav","null","2","","","","","","",""
"null","","html-keyboard-response","526","3751369","0.0-15.0-1.18","a","11","<p style=""font-size: 48px;"">+</p>","null","2","","","","","","",""
"462.91000000201166","","image-keyboard-response","527","3751833","0.0-15.0-2.18","a","11","Images/dog_cartoon.png","65","2","1581633773576","match","dog","dog","label","test","true"
"null","","audio-keyboard-response","528","3753848","0.0-15.0-3.18","a","11","Sounds/correct.wav","null","2","","","","","","",""
"null","","audio-keyboard-response","529","3754691","0.0-15.0-0.19","a","11","Sounds/cat_sound.wav","null","2","","","","","","",""
"null","","html-keyboard-response","530","3755686","0.0-15.0-1.19","a","11","<p style=""font-size: 48px;"">+</p>","null","2","","","","","","",""
"394.09499999601394","","image-keyboard-response","531","3756081","0.0-15.0-2.19","a","11","Images/cat_2.png","65","2","1581633777893","match","cat","cat","sound","test","true"
"null","","audio-keyboard-response","532","3758088","0.0-15.0-3.19","a","11","Sounds/correct.wav","null","2","","","","","","",""
"null","","audio-keyboard-response","533","3758991","0.0-15.0-0.20","a","11","Sounds/frog_sound.wav","null","2","","","","","","",""
"null","","html-keyboard-response","534","3759986","0.0-15.0-1.20","a","11","<p style=""font-size: 48px;"">+</p>","null","2","","","","","","",""
"390.0900000007823","","image-keyboard-response","535","3760377","0.0-15.0-2.20","a","11","Images/motorcycle_2.png","76","2","1581633782193","non-match","motorcycle","frog","sound","test","true"
"null","","audio-keyboard-response","536","3762388","0.0-15.0-3.20","a","11","Sounds/correct.wav","null","2","","","","","","",""
"null","","audio-keyboard-response","537","3763411","0.0-15.0-0.21","a","11","Sounds/cow_sound.wav","null","2","","","","","","",""
"null","","html-keyboard-response","538","3764402","0.0-15.0-1.21","a","11","<p style=""font-size: 48px;"">+</p>","null","2","","","","","","",""
"333.2149999914691","","image-keyboard-response","539","3764737","0.0-15.0-2.21","a","11","Images/cow_3.png","65","2","1581633786609","match","cow","cow","sound","test","true"
"null","","audio-keyboard-response","540","3766744","0.0-15.0-3.21","a","11","Sounds/correct.wav","null","2","","","","","","",""
"null","","audio-keyboard-response","541","3767312","0.0-15.0-0.22","a","11","Sounds/gun_label.wav","null","2","","","","","","",""
"null","","html-keyboard-response","542","3768303","0.0-15.0-1.22","a","11","<p style=""font-size: 48px;"">+</p>","null","2","","","","","","",""
"393.4699999955483","","image-keyboard-response","543","3768697","0.0-15.0-2.22","a","11","Images/cow_orig.png","76","2","1581633790510","non-match","cow","gun","label","test","true"
"null","","audio-keyboard-response","544","3770707","0.0-15.0-3.22","a","11","Sounds/correct.wav","null","2","","","","","","",""
"null","","audio-keyboard-response","545","3771411","0.0-15.0-0.23","a","11","Sounds/whistle_sound.wav","null","2","","","","","","",""
"null","","html-keyboard-response","546","3772403","0.0-15.0-1.23","a","11","<p style=""font-size: 48px;"">+</p>","null","2","","","","","","",""
"413.35499999672174","","image-keyboard-response","547","3772817","0.0-15.0-2.23","a","11","Images/car_orig.png","76","2","1581633794610","non-match","car","whistle","sound","test","true"
"null","","audio-keyboard-response","548","3774821","0.0-15.0-3.23","a","11","Sounds/correct.wav","null","2","","","","","","",""
"null","","audio-keyboard-response","549","3775832","0.0-15.0-0.24","a","11","Sounds/cow_label.wav","null","2","","","","","","",""
"null","","html-keyboard-response","550","3776836","0.0-15.0-1.24","a","11","<p style=""font-size: 48px;"">+</p>","null","2","","","","","","",""
"395.79499998968095","","image-keyboard-response","551","3777233","0.0-15.0-2.24","a","11","Images/dog_orig.png","76","2","1581633799043","non-match","dog","cow","label","test","true"
"null","","audio-keyboard-response","552","3779238","0.0-15.0-3.24","a","11","Sounds/correct.wav","null","2","","","","","","",""
"null","","audio-keyboard-response","553","3780131","0.0-15.0-0.25","a","11","Sounds/frog_label.wav","null","2","","","","","","",""
"null","","html-keyboard-response","554","3781136","0.0-15.0-1.25","a","11","<p style=""font-size: 48px;"">+</p>","null","2","","","","","","",""
"415.64500000094995","","image-keyboard-response","555","3781553","0.0-15.0-2.25","a","11","Images/frog_1.png","65","2","1581633803343","match","frog","frog","label","test","true"
"null","","audio-keyboard-response","556","3783558","0.0-15.0-3.25","a","11","Sounds/correct.wav","null","2","","","","","","",""
"null","","audio-keyboard-response","557","3784631","0.0-15.0-0.26","a","11","Sounds/car_label.wav","null","2","","","","","","",""
"null","","html-keyboard-response","558","3785637","0.0-15.0-1.26","a","11","<p style=""font-size: 48px;"">+</p>","null","2","","","","","","",""
"425.5000000121072","","image-keyboard-response","559","3786065","0.0-15.0-2.26","a","11","Images/cow_3.png","76","2","1581633807843","non-match","cow","car","label","test","true"
"null","","audio-keyboard-response","560","3788068","0.0-15.0-3.26","a","11","Sounds/correct.wav","null","2","","","","","","",""
"null","","audio-keyboard-response","561","3788931","0.0-15.0-0.27","a","11","Sounds/frog_label.wav","null","2","","","","","","",""
"null","","html-keyboard-response","562","3789919","0.0-15.0-1.27","a","11","<p style=""font-size: 48px;"">+</p>","null","2","","","","","","",""
"336.574999993667","","image-keyboard-response","563","3790257","0.0-15.0-2.27","a","11","Images/car_2.png","76","2","1581633812127","non-match","car","frog","label","test","true"
"null","","audio-keyboard-response","564","3792261","0.0-15.0-3.27","a","11","Sounds/correct.wav","null","2","","","","","","",""
"null","","audio-keyboard-response","565","3793251","0.0-15.0-0.28","a","11","Sounds/cow_label.wav","null","2","","","","","","",""
"null","","html-keyboard-response","566","3794286","0.0-15.0-1.28","a","11","<p style=""font-size: 48px;"">+</p>","null","2","","","","","","",""
"361.60999999241903","","image-keyboard-response","567","3794649","0.0-15.0-2.28","a","11","Images/motorcycle_cartoon.png","76","2","1581633816493","non-match","motorcycle","cow","label","test","true"
"null","","audio-keyboard-response","568","3796658","0.0-15.0-3.28","a","11","Sounds/correct.wav","null","2","","","","","","",""
"null","","audio-keyboard-response","569","3797531","0.0-15.0-0.29","a","11","Sounds/frog_label.wav","null","2","","","","","","",""
"null","","html-keyboard-response","570","3798520","0.0-15.0-1.29","a","11","<p style=""font-size: 48px;"">+</p>","null","2","","","","","","",""
"296.3400000007823","","image-keyboard-response","571","3798817","0.0-15.0-2.29","a","11","Images/frog_cartoon.png","65","2","1581633820727","match","frog","frog","label","test","true"
"null","","audio-keyboard-response","572","3800828","0.0-15.0-3.29","a","11","Sounds/correct.wav","null","2","","","","","","",""
"null","","audio-keyboard-response","573","3802132","0.0-15.0-0.30","a","11","Sounds/train_sound.wav","null","2","","","","","","",""
"null","","html-keyboard-response","574","3803137","0.0-15.0-1.30","a","11","<p style=""font-size: 48px;"">+</p>","null","2","","","","","","",""
"383.46500000637025","","image-keyboard-response","575","3803521","0.0-15.0-2.30","a","11","Images/frog_1.png","76","2","1581633825344","non-match","frog","train","sound","test","true"
"null","","audio-keyboard-response","576","3805538","0.0-15.0-3.30","a","11","Sounds/correct.wav","null","2","","","","","","",""
"null","","audio-keyboard-response","577","3806372","0.0-15.0-0.31","a","11","Sounds/cat_label.wav","null","2","","","","","","",""
"null","","html-keyboard-response","578","3807370","0.0-15.0-1.31","a","11","<p style=""font-size: 48px;"">+</p>","null","2","","","","","","",""
"534.0599999912083","","image-keyboard-response","579","3807905","0.0-15.0-2.31","a","11","Images/rooster_3.png","76","2","1581633829577","non-match","rooster","cat","label","test","true"
"null","","audio-keyboard-response","580","3809912","0.0-15.0-3.31","a","11","Sounds/correct.wav","null","2","","","","","","",""
"null","","audio-keyboard-response","581","3811192","0.0-15.0-0.32","a","11","Sounds/train_sound.wav","null","2","","","","","","",""
"null","","html-keyboard-response","582","3812187","0.0-15.0-1.32","a","11","<p style=""font-size: 48px;"">+</p>","null","2","","","","","","",""
"661.7699999911711","","image-keyboard-response","583","3812850","0.0-15.0-2.32","a","11","Images/train_1.png","65","2","1581633834394","match","train","train","sound","test","true"
"null","","audio-keyboard-response","584","3814867","0.0-15.0-3.32","a","11","Sounds/correct.wav","null","2","","","","","","",""
"null","","audio-keyboard-response","585","3815452","0.0-15.0-0.33","a","11","Sounds/gun_sound.wav","null","2","","","","","","",""
"null","","html-keyboard-response","586","3816470","0.0-15.0-1.33","a","11","<p style=""font-size: 48px;"">+</p>","null","2","","","","","","",""
"337.8550000055693","","image-keyboard-response","587","3816809","0.0-15.0-2.33","a","11","Images/gun_2.png","65","2","1581633838677","match","gun","gun","sound","test","true"
"null","","audio-keyboard-response","588","3818824","0.0-15.0-3.33","a","11","Sounds/correct.wav","null","2","","","","","","",""
"null","","audio-keyboard-response","589","3819892","0.0-15.0-0.34","a","11","Sounds/car_label.wav","null","2","","","","","","",""
"null","","html-keyboard-response","590","3820887","0.0-15.0-1.34","a","11","<p style=""font-size: 48px;"">+</p>","null","2","","","","","","",""
"497.53500000201166","","image-keyboard-response","591","3821385","0.0-15.0-2.34","a","11","Images/car_cartoon.png","76","2","1581633843094","match","car","car","label","test","false"
"null","","audio-keyboard-response","592","3823398","0.0-15.0-3.34","a","11","Sounds/incorrect.wav","null","2","","","","","","",""
"null","","audio-keyboard-response","593","3824052","0.0-15.0-0.35","a","11","Sounds/dog_label.wav","null","2","","","","","","",""
"null","","html-keyboard-response","594","3825070","0.0-15.0-1.35","a","11","<p style=""font-size: 48px;"">+</p>","null","2","","","","","","",""
"378.04499999061227","","image-keyboard-response","595","3825449","0.0-15.0-2.35","a","11","Images/gun_orig.png","76","2","1581633847277","non-match","gun","dog","label","test","true"
"null","","audio-keyboard-response","596","3827455","0.0-15.0-3.35","a","11","Sounds/correct.wav","null","2","","","","","","",""
"null","","audio-keyboard-response","597","3828572","0.0-15.0-0.36","a","11","Sounds/motorcycle_sound.wav","null","2","","","","","","",""
"null","","html-keyboard-response","598","3829570","0.0-15.0-1.36","a","11","<p style=""font-size: 48px;"">+</p>","null","2","","","","","","",""
"373.83499999158084","","image-keyboard-response","599","3829945","0.0-15.0-2.36","a","11","Images/motorcycle_2.png","65","2","1581633851777","match","motorcycle","motorcycle","sound","test","true"
"null","","audio-keyboard-response","600","3831956","0.0-15.0-3.36","a","11","Sounds/correct.wav","null","2","","","","","","",""
"null","","audio-keyboard-response","601","3833092","0.0-15.0-0.37","a","11","Sounds/motorcycle_label.wav","null","2","","","","","","",""
"null","","html-keyboard-response","602","3834087","0.0-15.0-1.37","a","11","<p style=""font-size: 48px;"">+</p>","null","2","","","","","","",""
"513.0900000077672","","image-keyboard-response","603","3834601","0.0-15.0-2.37","a","11","Images/cow_cartoon.png","76","2","1581633856294","non-match","cow","motorcycle","label","test","true"
"null","","audio-keyboard-response","604","3836613","0.0-15.0-3.37","a","11","Sounds/correct.wav","null","2","","","","","","",""
"null","","audio-keyboard-response","605","3837312","0.0-15.0-0.38","a","11","Sounds/dog_sound.wav","null","2","","","","","","",""
"null","","html-keyboard-response","606","3838304","0.0-15.0-1.38","a","11","<p style=""font-size: 48px;"">+</p>","null","2","","","","","","",""
"424.6450000065379","","image-keyboard-response","607","3838729","0.0-15.0-2.38","a","11","Images/dog_2.png","65","2","1581633860511","match","dog","dog","sound","test","true"
"null","","audio-keyboard-response","608","3840738","0.0-15.0-3.38","a","11","Sounds/correct.wav","null","2","","","","","","",""
"null","","audio-keyboard-response","609","3841832","0.0-15.0-0.39","a","11","Sounds/motorcycle_sound.wav","null","2","","","","","","",""
"null","","html-keyboard-response","610","3842838","0.0-15.0-1.39","a","11","<p style=""font-size: 48px;"">+</p>","null","2","","","","","","",""
"490.34500001277775","","image-keyboard-response","611","3843329","0.0-15.0-2.39","a","11","Images/motorcycle_3.png","65","2","1581633865044","match","motorcycle","motorcycle","sound","test","true"
"null","","audio-keyboard-response","612","3845332","0.0-15.0-3.39","a","11","Sounds/correct.wav","null","2","","","","","","",""
"null","","audio-keyboard-response","613","3846632","0.0-15.0-0.40","a","11","Sounds/train_label.wav","null","2","","","","","","",""
"null","","html-keyboard-response","614","3847637","0.0-15.0-1.40","a","11","<p style=""font-size: 48px;"">+</p>","null","2","","","","","","",""
"394.61500001186505","","image-keyboard-response","615","3848033","0.0-15.0-2.40","a","11","Images/cat_3.png","76","2","1581633869844","non-match","cat","train","label","test","true"
"null","","audio-keyboard-response","616","3850043","0.0-15.0-3.40","a","11","Sounds/correct.wav","null","2","","","","","","",""
"null","","audio-keyboard-response","617","3850612","0.0-15.0-0.41","a","11","Sounds/gun_label.wav","null","2","","","","","","",""
"null","","html-keyboard-response","618","3851604","0.0-15.0-1.41","a","11","<p style=""font-size: 48px;"">+</p>","null","2","","","","","","",""
"388.54499999433756","","image-keyboard-response","619","3851993","0.0-15.0-2.41","a","11","Images/gun_1.png","65","2","1581633873811","match","gun","gun","label","test","true"
"null","","audio-keyboard-response","620","3854007","0.0-15.0-3.41","a","11","Sounds/correct.wav","null","2","","","","","","",""
"null","","audio-keyboard-response","621","3854852","0.0-15.0-0.42","a","11","Sounds/cat_label.wav","null","2","","","","","","",""
"null","","html-keyboard-response","622","3855854","0.0-15.0-1.42","a","11","<p style=""font-size: 48px;"">+</p>","null","2","","","","","","",""
"362.3499999959022","","image-keyboard-response","623","3856217","0.0-15.0-2.42","a","11","Images/cat_3.png","65","2","1581633878061","match","cat","cat","label","test","true"
"null","","audio-keyboard-response","624","3858224","0.0-15.0-3.42","a","11","Sounds/correct.wav","null","2","","","","","","",""
"null","","audio-keyboard-response","625","3859312","0.0-15.0-0.43","a","11","Sounds/car_label.wav","null","2","","","","","","",""
"null","","html-keyboard-response","626","3860304","0.0-15.0-1.43","a","11","<p style=""font-size: 48px;"">+</p>","null","2","","","","","","",""
"384.6900000059977","","image-keyboard-response","627","3860690","0.0-15.0-2.43","a","11","Images/cat_2.png","76","2","1581633882511","non-match","cat","car","label","test","true"
"null","","audio-keyboard-response","628","3862693","0.0-15.0-3.43","a","11","Sounds/correct.wav","null","2","","","","","","",""
"null","","audio-keyboard-response","629","3863392","0.0-15.0-0.44","a","11","Sounds/whistle_sound.wav","null","2","","","","","","",""
"null","","html-keyboard-response","630","3864388","0.0-15.0-1.44","a","11","<p style=""font-size: 48px;"">+</p>","null","2","","","","","","",""
"581.065000005532","","image-keyboard-response","631","3864970","0.0-15.0-2.44","a","11","Images/dog_cartoon.png","65","2","1581633886595","non-match","dog","whistle","sound","test","false"
"null","","audio-keyboard-response","632","3866977","0.0-15.0-3.44","a","11","Sounds/incorrect.wav","null","2","","","","","","",""
"null","","audio-keyboard-response","633","3867552","0.0-15.0-0.45","a","11","Sounds/gun_sound.wav","null","2","","","","","","",""
"null","","html-keyboard-response","634","3868555","0.0-15.0-1.45","a","11","<p style=""font-size: 48px;"">+</p>","null","2","","","","","","",""
"1062.065000005532","","image-keyboard-response","635","3869618","0.0-15.0-2.45","a","11","Images/train_cartoon.png","76","2","1581633890762","non-match","train","gun","sound","test","true"
"null","","audio-keyboard-response","636","3871623","0.0-15.0-3.45","a","11","Sounds/correct.wav","null","2","","","","","","",""
"null","","audio-keyboard-response","637","3872692","0.0-15.0-0.46","a","11","Sounds/car_sound.wav","null","2","","","","","","",""
"null","","html-keyboard-response","638","3873688","0.0-15.0-1.46","a","11","<p style=""font-size: 48px;"">+</p>","null","2","","","","","","",""
"408.71499999798834","","image-keyboard-response","639","3874098","0.0-15.0-2.46","a","11","Images/frog_2.png","76","2","1581633895895","non-match","frog","car","sound","test","true"
"null","","audio-keyboard-response","640","3876107","0.0-15.0-3.46","a","11","Sounds/correct.wav","null","2","","","","","","",""
"null","","audio-keyboard-response","641","3876952","0.0-15.0-0.47","a","11","Sounds/cat_sound.wav","null","2","","","","","","",""
"null","","html-keyboard-response","642","3877955","0.0-15.0-1.47","a","11","<p style=""font-size: 48px;"">+</p>","null","2","","","","","","",""
"566.4300000062212","","image-keyboard-response","643","3878522","0.0-15.0-2.47","a","11","Images/dog_2.png","76","2","1581633900162","non-match","dog","cat","sound","test","true"
"null","","audio-keyboard-response","644","3880527","0.0-15.0-3.47","a","11","Sounds/correct.wav","null","2","","","","","","",""
"null","","audio-keyboard-response","645","3881832","0.0-15.0-0.48","a","11","Sounds/train_label.wav","null","2","","","","","","",""
"null","","html-keyboard-response","646","3882838","0.0-15.0-1.48","a","11","<p style=""font-size: 48px;"">+</p>","null","2","","","","","","",""
"386.344999991823","","image-keyboard-response","647","3883226","0.0-15.0-2.48","a","11","Images/dog_1.png","76","2","1581633905045","non-match","dog","train","label","test","true"
"null","","audio-keyboard-response","648","3885243","0.0-15.0-3.48","a","11","Sounds/correct.wav","null","2","","","","","","",""
"null","","audio-keyboard-response","649","3885952","0.0-15.0-0.49","a","11","Sounds/rooster_label.wav","null","2","","","","","","",""
"null","","html-keyboard-response","650","3886955","0.0-15.0-1.49","a","11","<p style=""font-size: 48px;"">+</p>","null","2","","","","","","",""
"341.14999999292195","","image-keyboard-response","651","3887298","0.0-15.0-2.49","a","11","Images/rooster_2.png","65","2","1581633909162","match","rooster","rooster","label","test","true"
"null","","audio-keyboard-response","652","3889310","0.0-15.0-3.49","a","11","Sounds/correct.wav","null","2","","","","","","",""
"null","","audio-keyboard-response","653","3890012","0.0-15.0-0.50","a","11","Sounds/whistle_label.wav","null","2","","","","","","",""
"null","","html-keyboard-response","654","3891005","0.0-15.0-1.50","a","11","<p style=""font-size: 48px;"">+</p>","null","2","","","","","","",""
"347.79000000003725","","image-keyboard-response","655","3891354","0.0-15.0-2.50","a","11","Images/whistle_2.png","65","2","1581633913212","match","whistle","whistle","label","test","true"
"null","","audio-keyboard-response","656","3893362","0.0-15.0-3.50","a","11","Sounds/correct.wav","null","2","","","","","","",""
"null","","audio-keyboard-response","657","3894072","0.0-15.0-0.51","a","11","Sounds/dog_sound.wav","null","2","","","","","","",""
