"rt","responses","trial_type","trial_index","time_elapsed","internal_node_id","match_key","participant_id","stimulus","key_press","block","stim_onset","match_type","image_category","sound_category","audio_type","phase","correct"
"15100.70499998983","{""Q0"":""COGS219_2020_33""}","survey-text","0","15148","0.0-0.0","a","COGS219_2020_33","","","","","","","","","",""
"34725.749999983236","","html-keyboard-response","1","49885","0.0-1.0","a","COGS219_2020_33","<p>Use KEYBOARD 2 (match LEFT)</p><p>Press MATCH to continue.</p>","65","","","","","","","",""
"2199020.2600000193","","html-keyboard-response","2","2247923","0.0-2.0","a","COGS219_2020_33","<p>Welcome to the experiment.</p>","77","","","","","","","",""
"10587.240000022575","","html-keyboard-response","3","2258515","0.0-3.0","a","COGS219_2020_33","<p>Thank you for agreeing to participate in this study.</p><p>If during any part of the procedure you must stop for any reason, please inform the researcher that you do not wish to continue.</p>","77","","","","","","","",""
"17151.39499993529","","html-keyboard-response","4","2275668","0.0-4.0","a","COGS219_2020_33","<p>In this experiment, you will hear various words or sounds and see pictures of various animals and objects.</p><p>Most of the images will be of common everyday objects, such as cars, cats, cows, firearms, frogs, chickens, whistles, trains, motorcycles, and dogs.</p><p>Some of the images will be real-life stills, while others will be cartoons.</p>","77","","","","","","","",""
"13222.094999975525","","html-keyboard-response","5","2288891","0.0-5.0","a","COGS219_2020_33","<p>Sometimes, the word/sound will match the picture, for example you'll hear a meowing sound and see a cat.</p><p>Other times, the picture will not match the sound or word.</p><p>Your task is to decide as quickly as possible if the word/sound matches the picture or not. </p>","77","","","","","","","",""
"11910.724999965169","","html-keyboard-response","6","2300791","0.0-6.0","a","COGS219_2020_33","<p>For example, if you hear the word ""cat"" or hear a meowing sound, and then see a picture of a cat, you should press the MATCH key.</p><p> If the sound and image do not match, press the NOT-MATCH key to indicate that there is not a match.</p>","77","","","","","","","",""
"10798.73999999836","","html-keyboard-response","7","2311591","0.0-7.0","a","COGS219_2020_33","<p>If you make a mistake, you will hear a buzzing sound instead of a more pleasant sound.</p><p> Try to respond as quickly as possible, while making as few errors as possible. If you are making mistakes, you are probably rushing.</p>","77","","","","","","","",""
"10438.725000014529","","html-keyboard-response","8","2322031","0.0-8.0","a","COGS219_2020_33","<p>Please try to not move or blink your eyes during the presentation of the images. You can move and blink between images.</p><p>During the experiment there will be some breaks during which you can rest your eyes.</p>","77","","","","","","","",""
"37351.390000083484","","html-keyboard-response","9","2359384","0.0-9.0","a","COGS219_2020_33","<p>We will begin with 10 practice trials. Please let the experimenter know if you have any questions.</p>","76","","","","","","","",""
"null","","audio-keyboard-response","10","2360306","0.0-10.0-0.0","a","COGS219_2020_33","Sounds/cat_sound.wav","null","0","","","","","","",""
"null","","html-keyboard-response","11","2361312","0.0-10.0-1.0","a","COGS219_2020_33","<p style=""font-size: 48px;"">+</p>","null","0","","","","","","",""
"1408.449999988079","","image-keyboard-response","12","2362723","0.0-10.0-2.0","a","COGS219_2020_33","Images/motorcycle_2.png","76","0","1583001708903","non-match","motorcycle","cat","sound","practice","true"
"null","","audio-keyboard-response","13","2364733","0.0-10.0-3.0","a","COGS219_2020_33","Sounds/correct.wav","null","0","","","","","","",""
"null","","audio-keyboard-response","14","2365818","0.0-10.0-0.1","a","COGS219_2020_33","Sounds/car_label.wav","null","0","","","","","","",""
"null","","html-keyboard-response","15","2366812","0.0-10.0-1.1","a","COGS219_2020_33","<p style=""font-size: 48px;"">+</p>","null","0","","","","","","",""
"845.075000077486","","image-keyboard-response","16","2367659","0.0-10.0-2.1","a","COGS219_2020_33","Images/cow_3.png","76","0","1583001714403","non-match","cow","car","label","practice","true"
"null","","audio-keyboard-response","17","2369668","0.0-10.0-3.1","a","COGS219_2020_33","Sounds/correct.wav","null","0","","","","","","",""
"null","","audio-keyboard-response","18","2370358","0.0-10.0-0.2","a","COGS219_2020_33","Sounds/whistle_label.wav","null","0","","","","","","",""
"null","","html-keyboard-response","19","2371363","0.0-10.0-1.2","a","COGS219_2020_33","<p style=""font-size: 48px;"">+</p>","null","0","","","","","","",""
"847.2750000655651","","image-keyboard-response","20","2372211","0.0-10.0-2.2","a","COGS219_2020_33","Images/motorcycle_1.png","76","0","1583001718952","non-match","motorcycle","whistle","label","practice","true"
"null","","audio-keyboard-response","21","2374220","0.0-10.0-3.2","a","COGS219_2020_33","Sounds/correct.wav","null","0","","","","","","",""
"null","","audio-keyboard-response","22","2374918","0.0-10.0-0.3","a","COGS219_2020_33","Sounds/rooster_sound.wav","null","0","","","","","","",""
"null","","html-keyboard-response","23","2375912","0.0-10.0-1.3","a","COGS219_2020_33","<p style=""font-size: 48px;"">+</p>","null","0","","","","","","",""
"1065.1399999624118","","image-keyboard-response","24","2376979","0.0-10.0-2.3","a","COGS219_2020_33","Images/whistle_1.png","76","0","1583001723502","non-match","whistle","rooster","sound","practice","true"
"null","","audio-keyboard-response","25","2378984","0.0-10.0-3.3","a","COGS219_2020_33","Sounds/correct.wav","null","0","","","","","","",""
"null","","audio-keyboard-response","26","2379558","0.0-10.0-0.4","a","COGS219_2020_33","Sounds/gun_sound.wav","null","0","","","","","","",""
"null","","html-keyboard-response","27","2380563","0.0-10.0-1.4","a","COGS219_2020_33","<p style=""font-size: 48px;"">+</p>","null","0","","","","","","",""
"886.8050000164658","","image-keyboard-response","28","2381451","0.0-10.0-2.4","a","COGS219_2020_33","Images/cow_1.png","76","0","1583001728153","non-match","cow","gun","sound","practice","true"
"null","","audio-keyboard-response","29","2383466","0.0-10.0-3.4","a","COGS219_2020_33","Sounds/correct.wav","null","0","","","","","","",""
"null","","audio-keyboard-response","30","2384138","0.0-10.0-0.5","a","COGS219_2020_33","Sounds/whistle_label.wav","null","0","","","","","","",""
"null","","html-keyboard-response","31","2385129","0.0-10.0-1.5","a","COGS219_2020_33","<p style=""font-size: 48px;"">+</p>","null","0","","","","","","",""
"520.5299999797717","","image-keyboard-response","32","2385651","0.0-10.0-2.5","a","COGS219_2020_33","Images/whistle_1.png","65","0","1583001732719","match","whistle","whistle","label","practice","true"
"null","","audio-keyboard-response","33","2387667","0.0-10.0-3.5","a","COGS219_2020_33","Sounds/correct.wav","null","0","","","","","","",""
"null","","audio-keyboard-response","34","2388498","0.0-10.0-0.6","a","COGS219_2020_33","Sounds/cat_sound.wav","null","0","","","","","","",""
"null","","html-keyboard-response","35","2389496","0.0-10.0-1.6","a","COGS219_2020_33","<p style=""font-size: 48px;"">+</p>","null","0","","","","","","",""
"761.6249999264255","","image-keyboard-response","36","2390259","0.0-10.0-2.6","a","COGS219_2020_33","Images/frog_cartoon.png","76","0","1583001737086","non-match","frog","cat","sound","practice","true"
"null","","audio-keyboard-response","37","2392269","0.0-10.0-3.6","a","COGS219_2020_33","Sounds/correct.wav","null","0","","","","","","",""
"null","","audio-keyboard-response","38","2393298","0.0-10.0-0.7","a","COGS219_2020_33","Sounds/cow_sound.wav","null","0","","","","","","",""
"null","","html-keyboard-response","39","2394296","0.0-10.0-1.7","a","COGS219_2020_33","<p style=""font-size: 48px;"">+</p>","null","0","","","","","","",""
"1017.5949999829754","","image-keyboard-response","40","2395315","0.0-10.0-2.7","a","COGS219_2020_33","Images/cow_2.png","65","0","1583001741886","match","cow","cow","sound","practice","true"
"null","","audio-keyboard-response","41","2397318","0.0-10.0-3.7","a","COGS219_2020_33","Sounds/correct.wav","null","0","","","","","","",""
"null","","audio-keyboard-response","42","2398318","0.0-10.0-0.8","a","COGS219_2020_33","Sounds/cow_sound.wav","null","0","","","","","","",""
"null","","html-keyboard-response","43","2399313","0.0-10.0-1.8","a","COGS219_2020_33","<p style=""font-size: 48px;"">+</p>","null","0","","","","","","",""
"585.1350000593811","","image-keyboard-response","44","2399899","0.0-10.0-2.8","a","COGS219_2020_33","Images/frog_1.png","76","0","1583001746903","non-match","frog","cow","sound","practice","true"
"null","","audio-keyboard-response","45","2401917","0.0-10.0-3.8","a","COGS219_2020_33","Sounds/correct.wav","null","0","","","","","","",""
"null","","audio-keyboard-response","46","2402738","0.0-10.0-0.9","a","COGS219_2020_33","Sounds/cat_sound.wav","null","0","","","","","","",""
"null","","html-keyboard-response","47","2403729","0.0-10.0-1.9","a","COGS219_2020_33","<p style=""font-size: 48px;"">+</p>","null","0","","","","","","",""
"640.1599999517202","","image-keyboard-response","48","2404371","0.0-10.0-2.9","a","COGS219_2020_33","Images/cat_1.png","65","0","1583001751319","match","cat","cat","sound","practice","true"
"null","","audio-keyboard-response","49","2406385","0.0-10.0-3.9","a","COGS219_2020_33","Sounds/correct.wav","null","0","","","","","","",""
"39889.830000000075","","html-keyboard-response","50","2446274","0.0-11.0","a","COGS219_2020_33","<p>The rest of the experiment is divided into five blocks with 100 trials in each block. It will take about 45 minutes to complete.</p><p>The experimenter will be in the outer room and you can communicate with them through the monitor if you have any questions or wish to stop the experiment.</p>","76","","","","","","","",""
"6342.429999960586","","html-keyboard-response","51","2452618","0.0-12.0","a","COGS219_2020_33","<p>Remember, please try not to move or blink your eyes during the presentation of the images. </p><p>At the end of the experiment, we will show you your scores on the task so you can see how you did.</p><p>The experiment will start on the next screen.</p>","76","","","","","","","",""
"null","","audio-keyboard-response","52","2455722","0.0-13.0-0.0","a","COGS219_2020_33","Sounds/car_sound.wav","null","1","","","","","","",""
"null","","html-keyboard-response","53","2456713","0.0-13.0-1.0","a","COGS219_2020_33","<p style=""font-size: 48px;"">+</p>","null","1","","","","","","",""
"904.4749999884516","","image-keyboard-response","54","2457618","0.0-13.0-2.0","a","COGS219_2020_33","Images/gun_cartoon.png","76","1","1583001804303","non-match","gun","car","sound","test","true"
"null","","audio-keyboard-response","55","2459632","0.0-13.0-3.0","a","COGS219_2020_33","Sounds/correct.wav","null","1","","","","","","",""
"null","","audio-keyboard-response","56","2460523","0.0-13.0-0.1","a","COGS219_2020_33","Sounds/frog_label.wav","null","1","","","","","","",""
"null","","html-keyboard-response","57","2461513","0.0-13.0-1.1","a","COGS219_2020_33","<p style=""font-size: 48px;"">+</p>","null","1","","","","","","",""
"656.224999926053","","image-keyboard-response","58","2462170","0.0-13.0-2.1","a","COGS219_2020_33","Images/gun_3.png","76","1","1583001809103","non-match","gun","frog","label","test","true"
"null","","audio-keyboard-response","59","2464183","0.0-13.0-3.1","a","COGS219_2020_33","Sounds/correct.wav","null","1","","","","","","",""
"null","","audio-keyboard-response","60","2464762","0.0-13.0-0.2","a","COGS219_2020_33","Sounds/gun_sound.wav","null","1","","","","","","",""
"null","","html-keyboard-response","61","2465762","0.0-13.0-1.2","a","COGS219_2020_33","<p style=""font-size: 48px;"">+</p>","null","1","","","","","","",""
"646.7399999964982","","image-keyboard-response","62","2466410","0.0-13.0-2.2","a","COGS219_2020_33","Images/frog_3.png","76","1","1583001813353","non-match","frog","gun","sound","test","true"
"null","","audio-keyboard-response","63","2468419","0.0-13.0-3.2","a","COGS219_2020_33","Sounds/correct.wav","null","1","","","","","","",""
"null","","audio-keyboard-response","64","2469322","0.0-13.0-0.3","a","COGS219_2020_33","Sounds/frog_sound.wav","null","1","","","","","","",""
"null","","html-keyboard-response","65","2470313","0.0-13.0-1.3","a","COGS219_2020_33","<p style=""font-size: 48px;"">+</p>","null","1","","","","","","",""
"648.2149999355897","","image-keyboard-response","66","2470962","0.0-13.0-2.3","a","COGS219_2020_33","Images/motorcycle_3.png","76","1","1583001817903","non-match","motorcycle","frog","sound","test","true"
"null","","audio-keyboard-response","67","2472969","0.0-13.0-3.3","a","COGS219_2020_33","Sounds/correct.wav","null","1","","","","","","",""
"null","","audio-keyboard-response","68","2473662","0.0-13.0-0.4","a","COGS219_2020_33","Sounds/whistle_label.wav","null","1","","","","","","",""
"null","","html-keyboard-response","69","2474663","0.0-13.0-1.4","a","COGS219_2020_33","<p style=""font-size: 48px;"">+</p>","null","1","","","","","","",""
"633.9150000130758","","image-keyboard-response","70","2475298","0.0-13.0-2.4","a","COGS219_2020_33","Images/whistle_orig.png","65","1","1583001822253","match","whistle","whistle","label","test","true"
"null","","audio-keyboard-response","71","2477301","0.0-13.0-3.4","a","COGS219_2020_33","Sounds/correct.wav","null","1","","","","","","",""
"null","","audio-keyboard-response","72","2478142","0.0-13.0-0.5","a","COGS219_2020_33","Sounds/cat_label.wav","null","1","","","","","","",""
"null","","html-keyboard-response","73","2479146","0.0-13.0-1.5","a","COGS219_2020_33","<p style=""font-size: 48px;"">+</p>","null","1","","","","","","",""
"590.8399999607354","","image-keyboard-response","74","2479738","0.0-13.0-2.5","a","COGS219_2020_33","Images/cow_2.png","76","1","1583001826736","non-match","cow","cat","label","test","true"
"null","","audio-keyboard-response","75","2481751","0.0-13.0-3.5","a","COGS219_2020_33","Sounds/correct.wav","null","1","","","","","","",""
"null","","audio-keyboard-response","76","2482322","0.0-13.0-0.6","a","COGS219_2020_33","Sounds/gun_sound.wav","null","1","","","","","","",""
"null","","html-keyboard-response","77","2483313","0.0-13.0-1.6","a","COGS219_2020_33","<p style=""font-size: 48px;"">+</p>","null","1","","","","","","",""
"1488.3849999168888","","image-keyboard-response","78","2484802","0.0-13.0-2.6","a","COGS219_2020_33","Images/gun_cartoon.png","76","1","1583001830903","match","gun","gun","sound","test","false"
"null","","audio-keyboard-response","79","2486819","0.0-13.0-3.6","a","COGS219_2020_33","Sounds/incorrect.wav","null","1","","","","","","",""
"null","","audio-keyboard-response","80","2487722","0.0-13.0-0.7","a","COGS219_2020_33","Sounds/frog_sound.wav","null","1","","","","","","",""
"null","","html-keyboard-response","81","2488713","0.0-13.0-1.7","a","COGS219_2020_33","<p style=""font-size: 48px;"">+</p>","null","1","","","","","","",""
"944.1250000381842","","image-keyboard-response","82","2489658","0.0-13.0-2.7","a","COGS219_2020_33","Images/car_3.png","76","1","1583001836303","non-match","car","frog","sound","test","true"
"null","","audio-keyboard-response","83","2491668","0.0-13.0-3.7","a","COGS219_2020_33","Sounds/correct.wav","null","1","","","","","","",""
"null","","audio-keyboard-response","84","2492802","0.0-13.0-0.8","a","COGS219_2020_33","Sounds/motorcycle_label.wav","null","1","","","","","","",""
"null","","html-keyboard-response","85","2493796","0.0-13.0-1.8","a","COGS219_2020_33","<p style=""font-size: 48px;"">+</p>","null","1","","","","","","",""
"804.7349998960271","","image-keyboard-response","86","2494602","0.0-13.0-2.8","a","COGS219_2020_33","Images/motorcycle_3.png","65","1","1583001841386","match","motorcycle","motorcycle","label","test","true"
"null","","audio-keyboard-response","87","2496619","0.0-13.0-3.8","a","COGS219_2020_33","Sounds/correct.wav","null","1","","","","","","",""
"null","","audio-keyboard-response","88","2497442","0.0-13.0-0.9","a","COGS219_2020_33","Sounds/cat_label.wav","null","1","","","","","","",""
"null","","html-keyboard-response","89","2498446","0.0-13.0-1.9","a","COGS219_2020_33","<p style=""font-size: 48px;"">+</p>","null","1","","","","","","",""
"714.9999999674037","","image-keyboard-response","90","2499162","0.0-13.0-2.9","a","COGS219_2020_33","Images/cat_2.png","65","1","1583001846036","match","cat","cat","label","test","true"
"null","","audio-keyboard-response","91","2501170","0.0-13.0-3.9","a","COGS219_2020_33","Sounds/correct.wav","null","1","","","","","","",""
"null","","audio-keyboard-response","92","2501863","0.0-13.0-0.10","a","COGS219_2020_33","Sounds/rooster_label.wav","null","1","","","","","","",""
"null","","html-keyboard-response","93","2502864","0.0-13.0-1.10","a","COGS219_2020_33","<p style=""font-size: 48px;"">+</p>","null","1","","","","","","",""
"993.8400000100955","","image-keyboard-response","94","2503859","0.0-13.0-2.10","a","COGS219_2020_33","Images/rooster_3.png","65","1","1583001850454","match","rooster","rooster","label","test","true"
"null","","audio-keyboard-response","95","2505866","0.0-13.0-3.10","a","COGS219_2020_33","Sounds/correct.wav","null","1","","","","","","",""
"null","","audio-keyboard-response","96","2506583","0.0-13.0-0.11","a","COGS219_2020_33","Sounds/dog_sound.wav","null","1","","","","","","",""
"null","","html-keyboard-response","97","2507580","0.0-13.0-1.11","a","COGS219_2020_33","<p style=""font-size: 48px;"">+</p>","null","1","","","","","","",""
"933.3450000267476","","image-keyboard-response","98","2508515","0.0-13.0-2.11","a","COGS219_2020_33","Images/dog_2.png","65","1","1583001855171","match","dog","dog","sound","test","true"
"null","","audio-keyboard-response","99","2510519","0.0-13.0-3.11","a","COGS219_2020_33","Sounds/correct.wav","null","1","","","","","","",""
"null","","audio-keyboard-response","100","2511423","0.0-13.0-0.12","a","COGS219_2020_33","Sounds/frog_sound.wav","null","1","","","","","","",""
"null","","html-keyboard-response","101","2512414","0.0-13.0-1.12","a","COGS219_2020_33","<p style=""font-size: 48px;"">+</p>","null","1","","","","","","",""
"932.0949999382719","","image-keyboard-response","102","2513347","0.0-13.0-2.12","a","COGS219_2020_33","Images/frog_1.png","65","1","1583001860004","match","frog","frog","sound","test","true"
"null","","audio-keyboard-response","103","2515355","0.0-13.0-3.12","a","COGS219_2020_33","Sounds/correct.wav","null","1","","","","","","",""
"null","","audio-keyboard-response","104","2516063","0.0-13.0-0.13","a","COGS219_2020_33","Sounds/whistle_label.wav","null","1","","","","","","",""
"null","","html-keyboard-response","105","2517064","0.0-13.0-1.13","a","COGS219_2020_33","<p style=""font-size: 48px;"">+</p>","null","1","","","","","","",""
"873.7800000235438","","image-keyboard-response","106","2517939","0.0-13.0-2.13","a","COGS219_2020_33","Images/whistle_2.png","65","1","1583001864654","match","whistle","whistle","label","test","true"
"null","","audio-keyboard-response","107","2519952","0.0-13.0-3.13","a","COGS219_2020_33","Sounds/correct.wav","null","1","","","","","","",""
"null","","audio-keyboard-response","108","2521223","0.0-13.0-0.14","a","COGS219_2020_33","Sounds/train_label.wav","null","1","","","","","","",""
"null","","html-keyboard-response","109","2522214","0.0-13.0-1.14","a","COGS219_2020_33","<p style=""font-size: 48px;"">+</p>","null","1","","","","","","",""
"843.6300000175834","","image-keyboard-response","110","2523059","0.0-13.0-2.14","a","COGS219_2020_33","Images/car_1.png","76","1","1583001869804","non-match","car","train","label","test","true"
"null","","audio-keyboard-response","111","2525068","0.0-13.0-3.14","a","COGS219_2020_33","Sounds/correct.wav","null","1","","","","","","",""
"null","","audio-keyboard-response","112","2525723","0.0-13.0-0.15","a","COGS219_2020_33","Sounds/dog_label.wav","null","1","","","","","","",""
"null","","html-keyboard-response","113","2526714","0.0-13.0-1.15","a","COGS219_2020_33","<p style=""font-size: 48px;"">+</p>","null","1","","","","","","",""
"1199.7950000222772","","image-keyboard-response","114","2527915","0.0-13.0-2.15","a","COGS219_2020_33","Images/cat_3.png","76","1","1583001874304","non-match","cat","dog","label","test","true"
"null","","audio-keyboard-response","115","2529921","0.0-13.0-3.15","a","COGS219_2020_33","Sounds/correct.wav","null","1","","","","","","",""
"null","","audio-keyboard-response","116","2530823","0.0-13.0-0.16","a","COGS219_2020_33","Sounds/frog_label.wav","null","1","","","","","","",""
"null","","html-keyboard-response","117","2531814","0.0-13.0-1.16","a","COGS219_2020_33","<p style=""font-size: 48px;"">+</p>","null","1","","","","","","",""
"811.6500000469387","","image-keyboard-response","118","2532627","0.0-13.0-2.16","a","COGS219_2020_33","Images/frog_2.png","65","1","1583001879404","match","frog","frog","label","test","true"
"null","","audio-keyboard-response","119","2534636","0.0-13.0-3.16","a","COGS219_2020_33","Sounds/correct.wav","null","1","","","","","","",""
"null","","audio-keyboard-response","120","2535343","0.0-13.0-0.17","a","COGS219_2020_33","Sounds/dog_sound.wav","null","1","","","","","","",""
"null","","html-keyboard-response","121","2536347","0.0-13.0-1.17","a","COGS219_2020_33","<p style=""font-size: 48px;"">+</p>","null","1","","","","","","",""
"1030.1500000059605","","image-keyboard-response","122","2537379","0.0-13.0-2.17","a","COGS219_2020_33","Images/rooster_3.png","76","1","1583001883938","non-match","rooster","dog","sound","test","true"
"null","","audio-keyboard-response","123","2539396","0.0-13.0-3.17","a","COGS219_2020_33","Sounds/correct.wav","null","1","","","","","","",""
"null","","audio-keyboard-response","124","2540523","0.0-13.0-0.18","a","COGS219_2020_33","Sounds/motorcycle_label.wav","null","1","","","","","","",""
"null","","html-keyboard-response","125","2541514","0.0-13.0-1.18","a","COGS219_2020_33","<p style=""font-size: 48px;"">+</p>","null","1","","","","","","",""
"999.6299999766052","","image-keyboard-response","126","2542515","0.0-13.0-2.18","a","COGS219_2020_33","Images/car_orig.png","76","1","1583001889104","non-match","car","motorcycle","label","test","true"
"null","","audio-keyboard-response","127","2544519","0.0-13.0-3.18","a","COGS219_2020_33","Sounds/correct.wav","null","1","","","","","","",""
"null","","audio-keyboard-response","128","2545203","0.0-13.0-0.19","a","COGS219_2020_33","Sounds/dog_sound.wav","null","1","","","","","","",""
"null","","html-keyboard-response","129","2546197","0.0-13.0-1.19","a","COGS219_2020_33","<p style=""font-size: 48px;"">+</p>","null","1","","","","","","",""
"860.1650000782683","","image-keyboard-response","130","2547059","0.0-13.0-2.19","a","COGS219_2020_33","Images/dog_1.png","65","1","1583001893788","match","dog","dog","sound","test","true"
"null","","audio-keyboard-response","131","2549067","0.0-13.0-3.19","a","COGS219_2020_33","Sounds/correct.wav","null","1","","","","","","",""
"null","","audio-keyboard-response","132","2549983","0.0-13.0-0.20","a","COGS219_2020_33","Sounds/frog_sound.wav","null","1","","","","","","",""
"null","","html-keyboard-response","133","2550981","0.0-13.0-1.20","a","COGS219_2020_33","<p style=""font-size: 48px;"">+</p>","null","1","","","","","","",""
"796.875","","image-keyboard-response","134","2551779","0.0-13.0-2.20","a","COGS219_2020_33","Images/frog_cartoon.png","65","1","1583001898571","match","frog","frog","sound","test","true"
"null","","audio-keyboard-response","135","2553789","0.0-13.0-3.20","a","COGS219_2020_33","Sounds/correct.wav","null","1","","","","","","",""
"null","","audio-keyboard-response","136","2554483","0.0-13.0-0.21","a","COGS219_2020_33","Sounds/rooster_label.wav","null","1","","","","","","",""
"null","","html-keyboard-response","137","2555481","0.0-13.0-1.21","a","COGS219_2020_33","<p style=""font-size: 48px;"">+</p>","null","1","","","","","","",""
"848.9749999716878","","image-keyboard-response","138","2556331","0.0-13.0-2.21","a","COGS219_2020_33","Images/rooster_1.png","65","1","1583001903071","match","rooster","rooster","label","test","true"
"null","","audio-keyboard-response","139","2558338","0.0-13.0-3.21","a","COGS219_2020_33","Sounds/correct.wav","null","1","","","","","","",""
"null","","audio-keyboard-response","140","2559183","0.0-13.0-0.22","a","COGS219_2020_33","Sounds/cat_label.wav","null","1","","","","","","",""
"null","","html-keyboard-response","141","2560181","0.0-13.0-1.22","a","COGS219_2020_33","<p style=""font-size: 48px;"">+</p>","null","1","","","","","","",""
"868.4900000225753","","image-keyboard-response","142","2561051","0.0-13.0-2.22","a","COGS219_2020_33","Images/cat_cartoon.png","65","1","1583001907771","match","cat","cat","label","test","true"
"null","","audio-keyboard-response","143","2563054","0.0-13.0-3.22","a","COGS219_2020_33","Sounds/correct.wav","null","1","","","","","","",""
"null","","audio-keyboard-response","144","2563763","0.0-13.0-0.23","a","COGS219_2020_33","Sounds/dog_sound.wav","null","1","","","","","","",""
"null","","html-keyboard-response","145","2564781","0.0-13.0-1.23","a","COGS219_2020_33","<p style=""font-size: 48px;"">+</p>","null","1","","","","","","",""
"692.5300000002608","","image-keyboard-response","146","2565475","0.0-13.0-2.23","a","COGS219_2020_33","Images/train_3.png","76","1","1583001912372","non-match","train","dog","sound","test","true"
"null","","audio-keyboard-response","147","2567486","0.0-13.0-3.23","a","COGS219_2020_33","Sounds/correct.wav","null","1","","","","","","",""
"null","","audio-keyboard-response","148","2568063","0.0-13.0-0.24","a","COGS219_2020_33","Sounds/gun_label.wav","null","1","","","","","","",""
"null","","html-keyboard-response","149","2569081","0.0-13.0-1.24","a","COGS219_2020_33","<p style=""font-size: 48px;"">+</p>","null","1","","","","","","",""
"936.9449999649078","","image-keyboard-response","150","2570019","0.0-13.0-2.24","a","COGS219_2020_33","Images/gun_1.png","65","1","1583001916671","match","gun","gun","label","test","true"
"null","","audio-keyboard-response","151","2572021","0.0-13.0-3.24","a","COGS219_2020_33","Sounds/correct.wav","null","1","","","","","","",""
"null","","audio-keyboard-response","152","2573103","0.0-13.0-0.25","a","COGS219_2020_33","Sounds/car_label.wav","null","1","","","","","","",""
"null","","html-keyboard-response","153","2574098","0.0-13.0-1.25","a","COGS219_2020_33","<p style=""font-size: 48px;"">+</p>","null","1","","","","","","",""
"815.7600000267848","","image-keyboard-response","154","2574915","0.0-13.0-2.25","a","COGS219_2020_33","Images/train_orig.png","76","1","1583001921688","non-match","train","car","label","test","true"
"null","","audio-keyboard-response","155","2576920","0.0-13.0-3.25","a","COGS219_2020_33","Sounds/correct.wav","null","1","","","","","","",""
"null","","audio-keyboard-response","156","2577743","0.0-13.0-0.26","a","COGS219_2020_33","Sounds/cat_label.wav","null","1","","","","","","",""
"null","","html-keyboard-response","157","2578748","0.0-13.0-1.26","a","COGS219_2020_33","<p style=""font-size: 48px;"">+</p>","null","1","","","","","","",""
"1109.305000049062","","image-keyboard-response","158","2579859","0.0-13.0-2.26","a","COGS219_2020_33","Images/cat_3.png","65","1","1583001926338","match","cat","cat","label","test","true"
"null","","audio-keyboard-response","159","2581868","0.0-13.0-3.26","a","COGS219_2020_33","Sounds/correct.wav","null","1","","","","","","",""
"null","","audio-keyboard-response","160","2582563","0.0-13.0-0.27","a","COGS219_2020_33","Sounds/whistle_label.wav","null","1","","","","","","",""
"null","","html-keyboard-response","161","2583581","0.0-13.0-1.27","a","COGS219_2020_33","<p style=""font-size: 48px;"">+</p>","null","1","","","","","","",""
"1060.7549999840558","","image-keyboard-response","162","2584643","0.0-13.0-2.27","a","COGS219_2020_33","Images/frog_cartoon.png","76","1","1583001931171","non-match","frog","whistle","label","test","true"
"null","","audio-keyboard-response","163","2586652","0.0-13.0-3.27","a","COGS219_2020_33","Sounds/correct.wav","null","1","","","","","","",""
"null","","audio-keyboard-response","164","2587543","0.0-13.0-0.28","a","COGS219_2020_33","Sounds/frog_label.wav","null","1","","","","","","",""
"null","","html-keyboard-response","165","2588531","0.0-13.0-1.28","a","COGS219_2020_33","<p style=""font-size: 48px;"">+</p>","null","1","","","","","","",""
"510.41999994777143","","image-keyboard-response","166","2589043","0.0-13.0-2.28","a","COGS219_2020_33","Images/frog_3.png","65","1","1583001936122","match","frog","frog","label","test","true"
"null","","audio-keyboard-response","167","2591053","0.0-13.0-3.28","a","COGS219_2020_33","Sounds/correct.wav","null","1","","","","","","",""
"null","","audio-keyboard-response","168","2592123","0.0-13.0-0.29","a","COGS219_2020_33","Sounds/car_sound.wav","null","1","","","","","","",""
"null","","html-keyboard-response","169","2593115","0.0-13.0-1.29","a","COGS219_2020_33","<p style=""font-size: 48px;"">+</p>","null","1","","","","","","",""
"942.159999976866","","image-keyboard-response","170","2594059","0.0-13.0-2.29","a","COGS219_2020_33","Images/whistle_orig.png","76","1","1583001940705","non-match","whistle","car","sound","test","true"
"null","","audio-keyboard-response","171","2596069","0.0-13.0-3.29","a","COGS219_2020_33","Sounds/correct.wav","null","1","","","","","","",""
"null","","audio-keyboard-response","172","2596723","0.0-13.0-0.30","a","COGS219_2020_33","Sounds/dog_label.wav","null","1","","","","","","",""
"null","","html-keyboard-response","173","2597715","0.0-13.0-1.30","a","COGS219_2020_33","<p style=""font-size: 48px;"">+</p>","null","1","","","","","","",""
"639.1600000206381","","image-keyboard-response","174","2598355","0.0-13.0-2.30","a","COGS219_2020_33","Images/dog_cartoon.png","65","1","1583001945305","match","dog","dog","label","test","true"
"null","","audio-keyboard-response","175","2600368","0.0-13.0-3.30","a","COGS219_2020_33","Sounds/correct.wav","null","1","","","","","","",""
"null","","audio-keyboard-response","176","2601383","0.0-13.0-0.31","a","COGS219_2020_33","Sounds/cow_label.wav","null","1","","","","","","",""
"null","","html-keyboard-response","177","2602381","0.0-13.0-1.31","a","COGS219_2020_33","<p style=""font-size: 48px;"">+</p>","null","1","","","","","","",""
"748.2349999481812","","image-keyboard-response","178","2603131","0.0-13.0-2.31","a","COGS219_2020_33","Images/cat_2.png","76","1","1583001949972","non-match","cat","cow","label","test","true"
"null","","audio-keyboard-response","179","2605138","0.0-13.0-3.31","a","COGS219_2020_33","Sounds/correct.wav","null","1","","","","","","",""
"null","","audio-keyboard-response","180","2606223","0.0-13.0-0.32","a","COGS219_2020_33","Sounds/car_label.wav","null","1","","","","","","",""
"null","","html-keyboard-response","181","2607215","0.0-13.0-1.32","a","COGS219_2020_33","<p style=""font-size: 48px;"">+</p>","null","1","","","","","","",""
"682.5950000202283","","image-keyboard-response","182","2607899","0.0-13.0-2.32","a","COGS219_2020_33","Images/cat_orig.png","76","1","1583001954805","non-match","cat","car","label","test","true"
"null","","audio-keyboard-response","183","2609904","0.0-13.0-3.32","a","COGS219_2020_33","Sounds/correct.wav","null","1","","","","","","",""
"null","","audio-keyboard-response","184","2610983","0.0-13.0-0.33","a","COGS219_2020_33","Sounds/car_sound.wav","null","1","","","","","","",""
"null","","html-keyboard-response","185","2611982","0.0-13.0-1.33","a","COGS219_2020_33","<p style=""font-size: 48px;"">+</p>","null","1","","","","","","",""
"812.294999952428","","image-keyboard-response","186","2612795","0.0-13.0-2.33","a","COGS219_2020_33","Images/car_1.png","65","1","1583001959572","match","car","car","sound","test","true"
"null","","audio-keyboard-response","187","2614804","0.0-13.0-3.33","a","COGS219_2020_33","Sounds/correct.wav","null","1","","","","","","",""
"null","","audio-keyboard-response","188","2615503","0.0-13.0-0.34","a","COGS219_2020_33","Sounds/whistle_label.wav","null","1","","","","","","",""
"null","","html-keyboard-response","189","2616498","0.0-13.0-1.34","a","COGS219_2020_33","<p style=""font-size: 48px;"">+</p>","null","1","","","","","","",""
"951.3199999928474","","image-keyboard-response","190","2617451","0.0-13.0-2.34","a","COGS219_2020_33","Images/dog_orig.png","76","1","1583001964088","non-match","dog","whistle","label","test","true"
"null","","audio-keyboard-response","191","2619455","0.0-13.0-3.34","a","COGS219_2020_33","Sounds/correct.wav","null","1","","","","","","",""
"null","","audio-keyboard-response","192","2620583","0.0-13.0-0.35","a","COGS219_2020_33","Sounds/motorcycle_sound.wav","null","1","","","","","","",""
"null","","html-keyboard-response","193","2621582","0.0-13.0-1.35","a","COGS219_2020_33","<p style=""font-size: 48px;"">+</p>","null","1","","","","","","",""
"956.110000028275","","image-keyboard-response","194","2622539","0.0-13.0-2.35","a","COGS219_2020_33","Images/motorcycle_orig.png","65","1","1583001969172","match","motorcycle","motorcycle","sound","test","true"
"null","","audio-keyboard-response","195","2624553","0.0-13.0-3.35","a","COGS219_2020_33","Sounds/correct.wav","null","1","","","","","","",""
"null","","audio-keyboard-response","196","2625844","0.0-13.0-0.36","a","COGS219_2020_33","Sounds/train_sound.wav","null","1","","","","","","",""
"null","","html-keyboard-response","197","2626849","0.0-13.0-1.36","a","COGS219_2020_33","<p style=""font-size: 48px;"">+</p>","null","1","","","","","","",""
"849.0749999182299","","image-keyboard-response","198","2627699","0.0-13.0-2.36","a","COGS219_2020_33","Images/train_orig.png","65","1","1583001974439","match","train","train","sound","test","true"
"null","","audio-keyboard-response","199","2629709","0.0-13.0-3.36","a","COGS219_2020_33","Sounds/correct.wav","null","1","","","","","","",""
"null","","audio-keyboard-response","200","2630284","0.0-13.0-0.37","a","COGS219_2020_33","Sounds/gun_label.wav","null","1","","","","","","",""
"null","","html-keyboard-response","201","2631282","0.0-13.0-1.37","a","COGS219_2020_33","<p style=""font-size: 48px;"">+</p>","null","1","","","","","","",""
"894.2800000077114","","image-keyboard-response","202","2632179","0.0-13.0-2.37","a","COGS219_2020_33","Images/gun_2.png","65","1","1583001978873","match","gun","gun","label","test","true"
"null","","audio-keyboard-response","203","2634188","0.0-13.0-3.37","a","COGS219_2020_33","Sounds/correct.wav","null","1","","","","","","",""
"null","","audio-keyboard-response","204","2635264","0.0-13.0-0.38","a","COGS219_2020_33","Sounds/car_label.wav","null","1","","","","","","",""
"null","","html-keyboard-response","205","2636266","0.0-13.0-1.38","a","COGS219_2020_33","<p style=""font-size: 48px;"">+</p>","null","1","","","","","","",""
"720.365000073798","","image-keyboard-response","206","2636987","0.0-13.0-2.38","a","COGS219_2020_33","Images/cow_3.png","76","1","1583001983856","non-match","cow","car","label","test","true"
"null","","audio-keyboard-response","207","2639003","0.0-13.0-3.38","a","COGS219_2020_33","Sounds/correct.wav","null","1","","","","","","",""
"null","","audio-keyboard-response","208","2639904","0.0-13.0-0.39","a","COGS219_2020_33","Sounds/frog_sound.wav","null","1","","","","","","",""
"null","","html-keyboard-response","209","2640899","0.0-13.0-1.39","a","COGS219_2020_33","<p style=""font-size: 48px;"">+</p>","null","1","","","","","","",""
"839.2299999250099","","image-keyboard-response","210","2641739","0.0-13.0-2.39","a","COGS219_2020_33","Images/rooster_cartoon.png","76","1","1583001988489","non-match","rooster","frog","sound","test","true"
"null","","audio-keyboard-response","211","2643753","0.0-13.0-3.39","a","COGS219_2020_33","Sounds/correct.wav","null","1","","","","","","",""
"null","","audio-keyboard-response","212","2645024","0.0-13.0-0.40","a","COGS219_2020_33","Sounds/train_label.wav","null","1","","","","","","",""
"null","","html-keyboard-response","213","2646016","0.0-13.0-1.40","a","COGS219_2020_33","<p style=""font-size: 48px;"">+</p>","null","1","","","","","","",""
"930.2899999311194","","image-keyboard-response","214","2646947","0.0-13.0-2.40","a","COGS219_2020_33","Images/train_cartoon.png","65","1","1583001993606","match","train","train","label","test","true"
"null","","audio-keyboard-response","215","2648955","0.0-13.0-3.40","a","COGS219_2020_33","Sounds/correct.wav","null","1","","","","","","",""
"null","","audio-keyboard-response","216","2649644","0.0-13.0-0.41","a","COGS219_2020_33","Sounds/rooster_label.wav","null","1","","","","","","",""
"null","","html-keyboard-response","217","2650633","0.0-13.0-1.41","a","COGS219_2020_33","<p style=""font-size: 48px;"">+</p>","null","1","","","","","","",""
"809.5650000032037","","image-keyboard-response","218","2651443","0.0-13.0-2.41","a","COGS219_2020_33","Images/whistle_1.png","76","1","1583001998223","non-match","whistle","rooster","label","test","true"
"null","","audio-keyboard-response","219","2653452","0.0-13.0-3.41","a","COGS219_2020_33","Sounds/correct.wav","null","1","","","","","","",""
"null","","audio-keyboard-response","220","2654344","0.0-13.0-0.42","a","COGS219_2020_33","Sounds/frog_label.wav","null","1","","","","","","",""
"null","","html-keyboard-response","221","2655332","0.0-13.0-1.42","a","COGS219_2020_33","<p style=""font-size: 48px;"">+</p>","null","1","","","","","","",""
"621.8499999959022","","image-keyboard-response","222","2655955","0.0-13.0-2.42","a","COGS219_2020_33","Images/cow_cartoon.png","76","1","1583002002923","non-match","cow","frog","label","test","true"
"null","","audio-keyboard-response","223","2657970","0.0-13.0-3.42","a","COGS219_2020_33","Sounds/correct.wav","null","1","","","","","","",""
"null","","audio-keyboard-response","224","2658804","0.0-13.0-0.43","a","COGS219_2020_33","Sounds/cat_sound.wav","null","1","","","","","","",""
"null","","html-keyboard-response","225","2659799","0.0-13.0-1.43","a","COGS219_2020_33","<p style=""font-size: 48px;"">+</p>","null","1","","","","","","",""
"594.8400000343099","","image-keyboard-response","226","2660395","0.0-13.0-2.43","a","COGS219_2020_33","Images/gun_2.png","76","1","1583002007389","non-match","gun","cat","sound","test","true"
"null","","audio-keyboard-response","227","2662406","0.0-13.0-3.43","a","COGS219_2020_33","Sounds/correct.wav","null","1","","","","","","",""
"null","","audio-keyboard-response","228","2663704","0.0-13.0-0.44","a","COGS219_2020_33","Sounds/train_sound.wav","null","1","","","","","","",""
"null","","html-keyboard-response","229","2664699","0.0-13.0-1.44","a","COGS219_2020_33","<p style=""font-size: 48px;"">+</p>","null","1","","","","","","",""
"886.7850000970066","","image-keyboard-response","230","2665587","0.0-13.0-2.44","a","COGS219_2020_33","Images/dog_3.png","76","1","1583002012289","non-match","dog","train","sound","test","true"
"null","","audio-keyboard-response","231","2667595","0.0-13.0-3.44","a","COGS219_2020_33","Sounds/correct.wav","null","1","","","","","","",""
"null","","audio-keyboard-response","232","2668184","0.0-13.0-0.45","a","COGS219_2020_33","Sounds/gun_label.wav","null","1","","","","","","",""
"null","","html-keyboard-response","233","2669183","0.0-13.0-1.45","a","COGS219_2020_33","<p style=""font-size: 48px;"">+</p>","null","1","","","","","","",""
"803.4149999730289","","image-keyboard-response","234","2669988","0.0-13.0-2.45","a","COGS219_2020_33","Images/cat_1.png","76","1","1583002016773","non-match","cat","gun","label","test","true"
"null","","audio-keyboard-response","235","2671990","0.0-13.0-3.45","a","COGS219_2020_33","Sounds/correct.wav","null","1","","","","","","",""
"null","","audio-keyboard-response","236","2672804","0.0-13.0-0.46","a","COGS219_2020_33","Sounds/cat_sound.wav","null","1","","","","","","",""
"null","","html-keyboard-response","237","2673799","0.0-13.0-1.46","a","COGS219_2020_33","<p style=""font-size: 48px;"">+</p>","null","1","","","","","","",""
"1466.605000081472","","image-keyboard-response","238","2675267","0.0-13.0-2.46","a","COGS219_2020_33","Images/dog_1.png","76","1","1583002021390","non-match","dog","cat","sound","test","true"
"null","","audio-keyboard-response","239","2677277","0.0-13.0-3.46","a","COGS219_2020_33","Sounds/correct.wav","null","1","","","","","","",""
"null","","audio-keyboard-response","240","2677984","0.0-13.0-0.47","a","COGS219_2020_33","Sounds/rooster_label.wav","null","1","","","","","","",""
"null","","html-keyboard-response","241","2678983","0.0-13.0-1.47","a","COGS219_2020_33","<p style=""font-size: 48px;"">+</p>","null","1","","","","","","",""
"907.1700000204146","","image-keyboard-response","242","2679891","0.0-13.0-2.47","a","COGS219_2020_33","Images/rooster_cartoon.png","65","1","1583002026573","match","rooster","rooster","label","test","true"
"null","","audio-keyboard-response","243","2681904","0.0-13.0-3.47","a","COGS219_2020_33","Sounds/correct.wav","null","1","","","","","","",""
"null","","audio-keyboard-response","244","2683184","0.0-13.0-0.48","a","COGS219_2020_33","Sounds/train_sound.wav","null","1","","","","","","",""
"null","","html-keyboard-response","245","2684183","0.0-13.0-1.48","a","COGS219_2020_33","<p style=""font-size: 48px;"">+</p>","null","1","","","","","","",""
"955.3999999770895","","image-keyboard-response","246","2685140","0.0-13.0-2.48","a","COGS219_2020_33","Images/motorcycle_cartoon.png","76","1","1583002031773","non-match","motorcycle","train","sound","test","true"
"null","","audio-keyboard-response","247","2687154","0.0-13.0-3.48","a","COGS219_2020_33","Sounds/correct.wav","null","1","","","","","","",""
"null","","audio-keyboard-response","248","2688004","0.0-13.0-0.49","a","COGS219_2020_33","Sounds/cat_label.wav","null","1","","","","","","",""
"null","","html-keyboard-response","249","2689000","0.0-13.0-1.49","a","COGS219_2020_33","<p style=""font-size: 48px;"">+</p>","null","1","","","","","","",""
"522.5899999495596","","image-keyboard-response","250","2689523","0.0-13.0-2.49","a","COGS219_2020_33","Images/cat_1.png","65","1","1583002036590","match","cat","cat","label","test","true"
"null","","audio-keyboard-response","251","2691541","0.0-13.0-3.49","a","COGS219_2020_33","Sounds/correct.wav","null","1","","","","","","",""
"null","","audio-keyboard-response","252","2692804","0.0-13.0-0.50","a","COGS219_2020_33","Sounds/train_sound.wav","null","1","","","","","","",""
"null","","html-keyboard-response","253","2693800","0.0-13.0-1.50","a","COGS219_2020_33","<p style=""font-size: 48px;"">+</p>","null","1","","","","","","",""
"866.3999999407679","","image-keyboard-response","254","2694667","0.0-13.0-2.50","a","COGS219_2020_33","Images/train_3.png","65","1","1583002041390","match","train","train","sound","test","true"
"null","","audio-keyboard-response","255","2696672","0.0-13.0-3.50","a","COGS219_2020_33","Sounds/correct.wav","null","1","","","","","","",""
"null","","audio-keyboard-response","256","2697804","0.0-13.0-0.51","a","COGS219_2020_33","Sounds/motorcycle_label.wav","null","1","","","","","","",""
"null","","html-keyboard-response","257","2698800","0.0-13.0-1.51","a","COGS219_2020_33","<p style=""font-size: 48px;"">+</p>","null","1","","","","","","",""
"850.6650000344962","","image-keyboard-response","258","2699652","0.0-13.0-2.51","a","COGS219_2020_33","Images/rooster_2.png","76","1","1583002046390","non-match","rooster","motorcycle","label","test","true"
"null","","audio-keyboard-response","259","2701656","0.0-13.0-3.51","a","COGS219_2020_33","Sounds/correct.wav","null","1","","","","","","",""
"null","","audio-keyboard-response","260","2702484","0.0-13.0-0.52","a","COGS219_2020_33","Sounds/cat_sound.wav","null","1","","","","","","",""
"null","","html-keyboard-response","261","2703483","0.0-13.0-1.52","a","COGS219_2020_33","<p style=""font-size: 48px;"">+</p>","null","1","","","","","","",""
"735.0350000197068","","image-keyboard-response","262","2704220","0.0-13.0-2.52","a","COGS219_2020_33","Images/train_cartoon.png","76","1","1583002051074","non-match","train","cat","sound","test","true"
"null","","audio-keyboard-response","263","2706231","0.0-13.0-3.52","a","COGS219_2020_33","Sounds/correct.wav","null","1","","","","","","",""
"null","","audio-keyboard-response","264","2706924","0.0-13.0-0.53","a","COGS219_2020_33","Sounds/whistle_sound.wav","null","1","","","","","","",""
"null","","html-keyboard-response","265","2707917","0.0-13.0-1.53","a","COGS219_2020_33","<p style=""font-size: 48px;"">+</p>","null","1","","","","","","",""
"437.7600000007078","","image-keyboard-response","266","2708355","0.0-13.0-2.53","a","COGS219_2020_33","Images/whistle_1.png","65","1","1583002055507","match","whistle","whistle","sound","test","true"
"null","","audio-keyboard-response","267","2710370","0.0-13.0-3.53","a","COGS219_2020_33","Sounds/correct.wav","null","1","","","","","","",""
"null","","audio-keyboard-response","268","2711384","0.0-13.0-0.54","a","COGS219_2020_33","Sounds/cow_label.wav","null","1","","","","","","",""
"null","","html-keyboard-response","269","2712383","0.0-13.0-1.54","a","COGS219_2020_33","<p style=""font-size: 48px;"">+</p>","null","1","","","","","","",""
"811.4650000352412","","image-keyboard-response","270","2713196","0.0-13.0-2.54","a","COGS219_2020_33","Images/whistle_cartoon.png","76","1","1583002059974","non-match","whistle","cow","label","test","true"
"null","","audio-keyboard-response","271","2715207","0.0-13.0-3.54","a","COGS219_2020_33","Sounds/correct.wav","null","1","","","","","","",""
"null","","audio-keyboard-response","272","2715924","0.0-13.0-0.55","a","COGS219_2020_33","Sounds/dog_sound.wav","null","1","","","","","","",""
"null","","html-keyboard-response","273","2716917","0.0-13.0-1.55","a","COGS219_2020_33","<p style=""font-size: 48px;"">+</p>","null","1","","","","","","",""
"677.6049999753013","","image-keyboard-response","274","2717596","0.0-13.0-2.55","a","COGS219_2020_33","Images/dog_3.png","65","1","1583002064507","match","dog","dog","sound","test","true"
"null","","audio-keyboard-response","275","2719605","0.0-13.0-3.55","a","COGS219_2020_33","Sounds/correct.wav","null","1","","","","","","",""
"null","","audio-keyboard-response","276","2720604","0.0-13.0-0.56","a","COGS219_2020_33","Sounds/cow_label.wav","null","1","","","","","","",""
"null","","html-keyboard-response","277","2721600","0.0-13.0-1.56","a","COGS219_2020_33","<p style=""font-size: 48px;"">+</p>","null","1","","","","","","",""
"730.5499999783933","","image-keyboard-response","278","2722333","0.0-13.0-2.56","a","COGS219_2020_33","Images/cow_1.png","65","1","1583002069190","match","cow","cow","label","test","true"
"null","","audio-keyboard-response","279","2724339","0.0-13.0-3.56","a","COGS219_2020_33","Sounds/correct.wav","null","1","","","","","","",""
"null","","audio-keyboard-response","280","2725044","0.0-13.0-0.57","a","COGS219_2020_33","Sounds/rooster_label.wav","null","1","","","","","","",""
"null","","html-keyboard-response","281","2726033","0.0-13.0-1.57","a","COGS219_2020_33","<p style=""font-size: 48px;"">+</p>","null","1","","","","","","",""
"729.3549999594688","","image-keyboard-response","282","2726764","0.0-13.0-2.57","a","COGS219_2020_33","Images/car_2.png","76","1","1583002073624","non-match","car","rooster","label","test","true"
"null","","audio-keyboard-response","283","2728773","0.0-13.0-3.57","a","COGS219_2020_33","Sounds/correct.wav","null","1","","","","","","",""
"null","","audio-keyboard-response","284","2729444","0.0-13.0-0.58","a","COGS219_2020_33","Sounds/rooster_label.wav","null","1","","","","","","",""
"null","","html-keyboard-response","285","2730433","0.0-13.0-1.58","a","COGS219_2020_33","<p style=""font-size: 48px;"">+</p>","null","1","","","","","","",""
"697.0449999207631","","image-keyboard-response","286","2731132","0.0-13.0-2.58","a","COGS219_2020_33","Images/gun_orig.png","76","1","1583002078024","non-match","gun","rooster","label","test","true"
"null","","audio-keyboard-response","287","2733139","0.0-13.0-3.58","a","COGS219_2020_33","Sounds/correct.wav","null","1","","","","","","",""
"null","","audio-keyboard-response","288","2733984","0.0-13.0-0.59","a","COGS219_2020_33","Sounds/cat_sound.wav","null","1","","","","","","",""
"null","","html-keyboard-response","289","2734984","0.0-13.0-1.59","a","COGS219_2020_33","<p style=""font-size: 48px;"">+</p>","null","1","","","","","","",""
"1466.2049999460578","","image-keyboard-response","290","2736451","0.0-13.0-2.59","a","COGS219_2020_33","Images/rooster_orig.png","76","1","1583002082574","non-match","rooster","cat","sound","test","true"
"null","","audio-keyboard-response","291","2738458","0.0-13.0-3.59","a","COGS219_2020_33","Sounds/correct.wav","null","1","","","","","","",""
"null","","audio-keyboard-response","292","2739584","0.0-13.0-0.60","a","COGS219_2020_33","Sounds/motorcycle_sound.wav","null","1","","","","","","",""
"null","","html-keyboard-response","293","2740583","0.0-13.0-1.60","a","COGS219_2020_33","<p style=""font-size: 48px;"">+</p>","null","1","","","","","","",""
"635.3200000012293","","image-keyboard-response","294","2741220","0.0-13.0-2.60","a","COGS219_2020_33","Images/gun_1.png","76","1","1583002088174","non-match","gun","motorcycle","sound","test","true"
"null","","audio-keyboard-response","295","2743222","0.0-13.0-3.60","a","COGS219_2020_33","Sounds/correct.wav","null","1","","","","","","",""
"null","","audio-keyboard-response","296","2744244","0.0-13.0-0.61","a","COGS219_2020_33","Sounds/cow_sound.wav","null","1","","","","","","",""
"null","","html-keyboard-response","297","2745234","0.0-13.0-1.61","a","COGS219_2020_33","<p style=""font-size: 48px;"">+</p>","null","1","","","","","","",""
"664.8999999742955","","image-keyboard-response","298","2745900","0.0-13.0-2.61","a","COGS219_2020_33","Images/cow_2.png","65","1","1583002092825","match","cow","cow","sound","test","true"
"null","","audio-keyboard-response","299","2747907","0.0-13.0-3.61","a","COGS219_2020_33","Sounds/correct.wav","null","1","","","","","","",""
"null","","audio-keyboard-response","300","2749204","0.0-13.0-0.62","a","COGS219_2020_33","Sounds/train_sound.wav","null","1","","","","","","",""
"null","","html-keyboard-response","301","2750201","0.0-13.0-1.62","a","COGS219_2020_33","<p style=""font-size: 48px;"">+</p>","null","1","","","","","","",""
"810.204999987036","","image-keyboard-response","302","2751012","0.0-13.0-2.62","a","COGS219_2020_33","Images/rooster_1.png","76","1","1583002097791","non-match","rooster","train","sound","test","true"
"null","","audio-keyboard-response","303","2753023","0.0-13.0-3.62","a","COGS219_2020_33","Sounds/correct.wav","null","1","","","","","","",""
"null","","audio-keyboard-response","304","2753604","0.0-13.0-0.63","a","COGS219_2020_33","Sounds/gun_sound.wav","null","1","","","","","","",""
"null","","html-keyboard-response","305","2754601","0.0-13.0-1.63","a","COGS219_2020_33","<p style=""font-size: 48px;"">+</p>","null","1","","","","","","",""
"666.0449999617413","","image-keyboard-response","306","2755268","0.0-13.0-2.63","a","COGS219_2020_33","Images/gun_orig.png","65","1","1583002102191","match","gun","gun","sound","test","true"
"null","","audio-keyboard-response","307","2757273","0.0-13.0-3.63","a","COGS219_2020_33","Sounds/correct.wav","null","1","","","","","","",""
"null","","audio-keyboard-response","308","2758384","0.0-13.0-0.64","a","COGS219_2020_33","Sounds/motorcycle_sound.wav","null","1","","","","","","",""
"null","","html-keyboard-response","309","2759384","0.0-13.0-1.64","a","COGS219_2020_33","<p style=""font-size: 48px;"">+</p>","null","1","","","","","","",""
"930.3400000790134","","image-keyboard-response","310","2760316","0.0-13.0-2.64","a","COGS219_2020_33","Images/motorcycle_cartoon.png","65","1","1583002106975","match","motorcycle","motorcycle","sound","test","true"
"null","","audio-keyboard-response","311","2762323","0.0-13.0-3.64","a","COGS219_2020_33","Sounds/correct.wav","null","1","","","","","","",""
"null","","audio-keyboard-response","312","2763424","0.0-13.0-0.65","a","COGS219_2020_33","Sounds/motorcycle_sound.wav","null","1","","","","","","",""
"null","","html-keyboard-response","313","2764418","0.0-13.0-1.65","a","COGS219_2020_33","<p style=""font-size: 48px;"">+</p>","null","1","","","","","","",""
"617.2250000527129","","image-keyboard-response","314","2765036","0.0-13.0-2.65","a","COGS219_2020_33","Images/motorcycle_2.png","65","1","1583002112008","match","motorcycle","motorcycle","sound","test","true"
"null","","audio-keyboard-response","315","2767040","0.0-13.0-3.65","a","COGS219_2020_33","Sounds/correct.wav","null","1","","","","","","",""
"null","","audio-keyboard-response","316","2767745","0.0-13.0-0.66","a","COGS219_2020_33","Sounds/rooster_label.wav","null","1","","","","","","",""
"null","","html-keyboard-response","317","2768735","0.0-13.0-1.66","a","COGS219_2020_33","<p style=""font-size: 48px;"">+</p>","null","1","","","","","","",""
"756.5500000491738","","image-keyboard-response","318","2769492","0.0-13.0-2.66","a","COGS219_2020_33","Images/rooster_orig.png","65","1","1583002116325","match","rooster","rooster","label","test","true"
"null","","audio-keyboard-response","319","2771506","0.0-13.0-3.66","a","COGS219_2020_33","Sounds/correct.wav","null","1","","","","","","",""
"null","","audio-keyboard-response","320","2772204","0.0-13.0-0.67","a","COGS219_2020_33","Sounds/rooster_sound.wav","null","1","","","","","","",""
"null","","html-keyboard-response","321","2773201","0.0-13.0-1.67","a","COGS219_2020_33","<p style=""font-size: 48px;"">+</p>","null","1","","","","","","",""
"457.6600000727922","","image-keyboard-response","322","2773660","0.0-13.0-2.67","a","COGS219_2020_33","Images/rooster_2.png","65","1","1583002120792","match","rooster","rooster","sound","test","true"
"null","","audio-keyboard-response","323","2775672","0.0-13.0-3.67","a","COGS219_2020_33","Sounds/correct.wav","null","1","","","","","","",""
"null","","audio-keyboard-response","324","2776684","0.0-13.0-0.68","a","COGS219_2020_33","Sounds/cow_sound.wav","null","1","","","","","","",""
"null","","html-keyboard-response","325","2777685","0.0-13.0-1.68","a","COGS219_2020_33","<p style=""font-size: 48px;"">+</p>","null","1","","","","","","",""
"814.394999993965","","image-keyboard-response","326","2778500","0.0-13.0-2.68","a","COGS219_2020_33","Images/cow_cartoon.png","65","1","1583002125275","match","cow","cow","sound","test","true"
"null","","audio-keyboard-response","327","2780510","0.0-13.0-3.68","a","COGS219_2020_33","Sounds/correct.wav","null","1","","","","","","",""
"null","","audio-keyboard-response","328","2781404","0.0-13.0-0.69","a","COGS219_2020_33","Sounds/frog_label.wav","null","1","","","","","","",""
"null","","html-keyboard-response","329","2782401","0.0-13.0-1.69","a","COGS219_2020_33","<p style=""font-size: 48px;"">+</p>","null","1","","","","","","",""
"561.7899999488145","","image-keyboard-response","330","2782964","0.0-13.0-2.69","a","COGS219_2020_33","Images/frog_orig.png","65","1","1583002129992","match","frog","frog","label","test","true"
"null","","audio-keyboard-response","331","2784973","0.0-13.0-3.69","a","COGS219_2020_33","Sounds/correct.wav","null","1","","","","","","",""
"null","","audio-keyboard-response","332","2785544","0.0-13.0-0.70","a","COGS219_2020_33","Sounds/gun_sound.wav","null","1","","","","","","",""
"null","","html-keyboard-response","333","2786535","0.0-13.0-1.70","a","COGS219_2020_33","<p style=""font-size: 48px;"">+</p>","null","1","","","","","","",""
"660.1699999300763","","image-keyboard-response","334","2787196","0.0-13.0-2.70","a","COGS219_2020_33","Images/gun_3.png","65","1","1583002134125","match","gun","gun","sound","test","true"
"null","","audio-keyboard-response","335","2789205","0.0-13.0-3.70","a","COGS219_2020_33","Sounds/correct.wav","null","1","","","","","","",""
"null","","audio-keyboard-response","336","2790284","0.0-13.0-0.71","a","COGS219_2020_33","Sounds/car_sound.wav","null","1","","","","","","",""
"null","","html-keyboard-response","337","2791285","0.0-13.0-1.71","a","COGS219_2020_33","<p style=""font-size: 48px;"">+</p>","null","1","","","","","","",""
"662.3550000367686","","image-keyboard-response","338","2791948","0.0-13.0-2.71","a","COGS219_2020_33","Images/car_2.png","65","1","1583002138875","match","car","car","sound","test","true"
"null","","audio-keyboard-response","339","2793957","0.0-13.0-3.71","a","COGS219_2020_33","Sounds/correct.wav","null","1","","","","","","",""
"null","","audio-keyboard-response","340","2794965","0.0-13.0-0.72","a","COGS219_2020_33","Sounds/cow_sound.wav","null","1","","","","","","",""
"null","","html-keyboard-response","341","2795968","0.0-13.0-1.72","a","COGS219_2020_33","<p style=""font-size: 48px;"">+</p>","null","1","","","","","","",""
"779.0950000053272","","image-keyboard-response","342","2796748","0.0-13.0-2.72","a","COGS219_2020_33","Images/motorcycle_2.png","76","1","1583002143559","non-match","motorcycle","cow","sound","test","true"
"null","","audio-keyboard-response","343","2798758","0.0-13.0-3.72","a","COGS219_2020_33","Sounds/correct.wav","null","1","","","","","","",""
"null","","audio-keyboard-response","344","2799464","0.0-13.0-0.73","a","COGS219_2020_33","Sounds/whistle_sound.wav","null","1","","","","","","",""
"null","","html-keyboard-response","345","2800468","0.0-13.0-1.73","a","COGS219_2020_33","<p style=""font-size: 48px;"">+</p>","null","1","","","","","","",""
"582.9199999570847","","image-keyboard-response","346","2801052","0.0-13.0-2.73","a","COGS219_2020_33","Images/whistle_cartoon.png","65","1","1583002148058","match","whistle","whistle","sound","test","true"
"null","","audio-keyboard-response","347","2803060","0.0-13.0-3.73","a","COGS219_2020_33","Sounds/correct.wav","null","1","","","","","","",""
"null","","audio-keyboard-response","348","2804045","0.0-13.0-0.74","a","COGS219_2020_33","Sounds/cow_sound.wav","null","1","","","","","","",""
"null","","html-keyboard-response","349","2805035","0.0-13.0-1.74","a","COGS219_2020_33","<p style=""font-size: 48px;"">+</p>","null","1","","","","","","",""
"847.9850000003353","","image-keyboard-response","350","2805884","0.0-13.0-2.74","a","COGS219_2020_33","Images/frog_orig.png","76","1","1583002152625","non-match","frog","cow","sound","test","true"
"null","","audio-keyboard-response","351","2807891","0.0-13.0-3.74","a","COGS219_2020_33","Sounds/correct.wav","null","1","","","","","","",""
"null","","audio-keyboard-response","352","2808905","0.0-13.0-0.75","a","COGS219_2020_33","Sounds/cow_label.wav","null","1","","","","","","",""
"null","","html-keyboard-response","353","2809902","0.0-13.0-1.75","a","COGS219_2020_33","<p style=""font-size: 48px;"">+</p>","null","1","","","","","","",""
"957.5649999314919","","image-keyboard-response","354","2810861","0.0-13.0-2.75","a","COGS219_2020_33","Images/cow_3.png","65","1","1583002157492","match","cow","cow","label","test","true"
"null","","audio-keyboard-response","355","2812874","0.0-13.0-3.75","a","COGS219_2020_33","Sounds/correct.wav","null","1","","","","","","",""
"null","","audio-keyboard-response","356","2813945","0.0-13.0-0.76","a","COGS219_2020_33","Sounds/car_label.wav","null","1","","","","","","",""
"null","","html-keyboard-response","357","2814935","0.0-13.0-1.76","a","COGS219_2020_33","<p style=""font-size: 48px;"">+</p>","null","1","","","","","","",""
"708.1250000046566","","image-keyboard-response","358","2815645","0.0-13.0-2.76","a","COGS219_2020_33","Images/car_orig.png","65","1","1583002162525","match","car","car","label","test","true"
"null","","audio-keyboard-response","359","2817655","0.0-13.0-3.76","a","COGS219_2020_33","Sounds/correct.wav","null","1","","","","","","",""
"null","","audio-keyboard-response","360","2818705","0.0-13.0-0.77","a","COGS219_2020_33","Sounds/car_label.wav","null","1","","","","","","",""
"null","","html-keyboard-response","361","2819702","0.0-13.0-1.77","a","COGS219_2020_33","<p style=""font-size: 48px;"">+</p>","null","1","","","","","","",""
"589.159999974072","","image-keyboard-response","362","2820292","0.0-13.0-2.77","a","COGS219_2020_33","Images/car_3.png","65","1","1583002167292","match","car","car","label","test","true"
"null","","audio-keyboard-response","363","2822309","0.0-13.0-3.77","a","COGS219_2020_33","Sounds/correct.wav","null","1","","","","","","",""
"null","","audio-keyboard-response","364","2823025","0.0-13.0-0.78","a","COGS219_2020_33","Sounds/dog_sound.wav","null","1","","","","","","",""
"null","","html-keyboard-response","365","2824019","0.0-13.0-1.78","a","COGS219_2020_33","<p style=""font-size: 48px;"">+</p>","null","1","","","","","","",""
"776.6200000187382","","image-keyboard-response","366","2824796","0.0-13.0-2.78","a","COGS219_2020_33","Images/frog_2.png","76","1","1583002171609","non-match","frog","dog","sound","test","true"
"null","","audio-keyboard-response","367","2826805","0.0-13.0-3.78","a","COGS219_2020_33","Sounds/correct.wav","null","1","","","","","","",""
"null","","audio-keyboard-response","368","2828105","0.0-13.0-0.79","a","COGS219_2020_33","Sounds/train_sound.wav","null","1","","","","","","",""
"null","","html-keyboard-response","369","2829102","0.0-13.0-1.79","a","COGS219_2020_33","<p style=""font-size: 48px;"">+</p>","null","1","","","","","","",""
"885.2249999763444","","image-keyboard-response","370","2829988","0.0-13.0-2.79","a","COGS219_2020_33","Images/train_1.png","65","1","1583002176692","match","train","train","sound","test","true"
"null","","audio-keyboard-response","371","2831991","0.0-13.0-3.79","a","COGS219_2020_33","Sounds/correct.wav","null","1","","","","","","",""
"null","","audio-keyboard-response","372","2832685","0.0-13.0-0.80","a","COGS219_2020_33","Sounds/rooster_label.wav","null","1","","","","","","",""
"null","","html-keyboard-response","373","2833702","0.0-13.0-1.80","a","COGS219_2020_33","<p style=""font-size: 48px;"">+</p>","null","1","","","","","","",""
"900.9000000078231","","image-keyboard-response","374","2834604","0.0-13.0-2.80","a","COGS219_2020_33","Images/train_1.png","76","1","1583002181292","non-match","train","rooster","label","test","true"
"null","","audio-keyboard-response","375","2836607","0.0-13.0-3.80","a","COGS219_2020_33","Sounds/correct.wav","null","1","","","","","","",""
"null","","audio-keyboard-response","376","2837265","0.0-13.0-0.81","a","COGS219_2020_33","Sounds/dog_label.wav","null","1","","","","","","",""
"null","","html-keyboard-response","377","2838269","0.0-13.0-1.81","a","COGS219_2020_33","<p style=""font-size: 48px;"">+</p>","null","1","","","","","","",""
"566.3100000238046","","image-keyboard-response","378","2838836","0.0-13.0-2.81","a","COGS219_2020_33","Images/car_cartoon.png","76","1","1583002185859","non-match","car","dog","label","test","true"
"null","","audio-keyboard-response","379","2840843","0.0-13.0-3.81","a","COGS219_2020_33","Sounds/correct.wav","null","1","","","","","","",""
"null","","audio-keyboard-response","380","2841425","0.0-13.0-0.82","a","COGS219_2020_33","Sounds/gun_sound.wav","null","1","","","","","","",""
"null","","html-keyboard-response","381","2842419","0.0-13.0-1.82","a","COGS219_2020_33","<p style=""font-size: 48px;"">+</p>","null","1","","","","","","",""
"568.5199999716133","","image-keyboard-response","382","2842988","0.0-13.0-2.82","a","COGS219_2020_33","Images/cow_orig.png","76","1","1583002190009","non-match","cow","gun","sound","test","true"
"null","","audio-keyboard-response","383","2845006","0.0-13.0-3.82","a","COGS219_2020_33","Sounds/correct.wav","null","1","","","","","","",""
"null","","audio-keyboard-response","384","2846025","0.0-13.0-0.83","a","COGS219_2020_33","Sounds/cow_label.wav","null","1","","","","","","",""
"null","","html-keyboard-response","385","2847019","0.0-13.0-1.83","a","COGS219_2020_33","<p style=""font-size: 48px;"">+</p>","null","1","","","","","","",""
"784.4799999147654","","image-keyboard-response","386","2847804","0.0-13.0-2.83","a","COGS219_2020_33","Images/dog_cartoon.png","76","1","1583002194609","non-match","dog","cow","label","test","true"
"null","","audio-keyboard-response","387","2849824","0.0-13.0-3.83","a","COGS219_2020_33","Sounds/correct.wav","null","1","","","","","","",""
"null","","audio-keyboard-response","388","2851125","0.0-13.0-0.84","a","COGS219_2020_33","Sounds/train_sound.wav","null","1","","","","","","",""
"null","","html-keyboard-response","389","2852119","0.0-13.0-1.84","a","COGS219_2020_33","<p style=""font-size: 48px;"">+</p>","null","1","","","","","","",""
"652.5999999139458","","image-keyboard-response","390","2852772","0.0-13.0-2.84","a","COGS219_2020_33","Images/frog_1.png","76","1","1583002199709","non-match","frog","train","sound","test","true"
"null","","audio-keyboard-response","391","2854790","0.0-13.0-3.84","a","COGS219_2020_33","Sounds/correct.wav","null","1","","","","","","",""
"null","","audio-keyboard-response","392","2855485","0.0-13.0-0.85","a","COGS219_2020_33","Sounds/whistle_label.wav","null","1","","","","","","",""
"null","","html-keyboard-response","393","2856519","0.0-13.0-1.85","a","COGS219_2020_33","<p style=""font-size: 48px;"">+</p>","null","1","","","","","","",""
"610.2550000650808","","image-keyboard-response","394","2857132","0.0-13.0-2.85","a","COGS219_2020_33","Images/cat_cartoon.png","76","1","1583002204109","non-match","cat","whistle","label","test","true"
"null","","audio-keyboard-response","395","2859140","0.0-13.0-3.85","a","COGS219_2020_33","Sounds/correct.wav","null","1","","","","","","",""
"null","","audio-keyboard-response","396","2859725","0.0-13.0-0.86","a","COGS219_2020_33","Sounds/gun_label.wav","null","1","","","","","","",""
"null","","html-keyboard-response","397","2860719","0.0-13.0-1.86","a","COGS219_2020_33","<p style=""font-size: 48px;"">+</p>","null","1","","","","","","",""
"508.09499993920326","","image-keyboard-response","398","2861228","0.0-13.0-2.86","a","COGS219_2020_33","Images/motorcycle_orig.png","76","1","1583002208309","non-match","motorcycle","gun","label","test","true"
"null","","audio-keyboard-response","399","2863239","0.0-13.0-3.86","a","COGS219_2020_33","Sounds/correct.wav","null","1","","","","","","",""
"null","","audio-keyboard-response","400","2864085","0.0-13.0-0.87","a","COGS219_2020_33","Sounds/cat_label.wav","null","1","","","","","","",""
"null","","html-keyboard-response","401","2865119","0.0-13.0-1.87","a","COGS219_2020_33","<p style=""font-size: 48px;"">+</p>","null","1","","","","","","",""
"804.3000000761822","","image-keyboard-response","402","2865925","0.0-13.0-2.87","a","COGS219_2020_33","Images/whistle_3.png","76","1","1583002212709","non-match","whistle","cat","label","test","true"
"null","","audio-keyboard-response","403","2867943","0.0-13.0-3.87","a","COGS219_2020_33","Sounds/correct.wav","null","1","","","","","","",""
"null","","audio-keyboard-response","404","2869065","0.0-13.0-0.88","a","COGS219_2020_33","Sounds/motorcycle_sound.wav","null","1","","","","","","",""
"null","","html-keyboard-response","405","2870070","0.0-13.0-1.88","a","COGS219_2020_33","<p style=""font-size: 48px;"">+</p>","null","1","","","","","","",""
"566.1100000143051","","image-keyboard-response","406","2870637","0.0-13.0-2.88","a","COGS219_2020_33","Images/cow_1.png","76","1","1583002217660","non-match","cow","motorcycle","sound","test","true"
"null","","audio-keyboard-response","407","2872642","0.0-13.0-3.88","a","COGS219_2020_33","Sounds/correct.wav","null","1","","","","","","",""
"null","","audio-keyboard-response","408","2873725","0.0-13.0-0.89","a","COGS219_2020_33","Sounds/motorcycle_sound.wav","null","1","","","","","","",""
"null","","html-keyboard-response","409","2874720","0.0-13.0-1.89","a","COGS219_2020_33","<p style=""font-size: 48px;"">+</p>","null","1","","","","","","",""
"732.0000000763685","","image-keyboard-response","410","2875453","0.0-13.0-2.89","a","COGS219_2020_33","Images/train_2.png","76","1","1583002222310","non-match","train","motorcycle","sound","test","true"
"null","","audio-keyboard-response","411","2877458","0.0-13.0-3.89","a","COGS219_2020_33","Sounds/correct.wav","null","1","","","","","","",""
"null","","audio-keyboard-response","412","2878545","0.0-13.0-0.90","a","COGS219_2020_33","Sounds/motorcycle_sound.wav","null","1","","","","","","",""
"null","","html-keyboard-response","413","2879536","0.0-13.0-1.90","a","COGS219_2020_33","<p style=""font-size: 48px;"">+</p>","null","1","","","","","","",""
"547.580000013113","","image-keyboard-response","414","2880085","0.0-13.0-2.90","a","COGS219_2020_33","Images/motorcycle_1.png","65","1","1583002227127","match","motorcycle","motorcycle","sound","test","true"
"null","","audio-keyboard-response","415","2882093","0.0-13.0-3.90","a","COGS219_2020_33","Sounds/correct.wav","null","1","","","","","","",""
"null","","audio-keyboard-response","416","2882745","0.0-13.0-0.91","a","COGS219_2020_33","Sounds/dog_label.wav","null","1","","","","","","",""
"null","","html-keyboard-response","417","2883736","0.0-13.0-1.91","a","COGS219_2020_33","<p style=""font-size: 48px;"">+</p>","null","1","","","","","","",""
"723.3099999139085","","image-keyboard-response","418","2884461","0.0-13.0-2.91","a","COGS219_2020_33","Images/dog_orig.png","65","1","1583002231327","match","dog","dog","label","test","true"
"null","","audio-keyboard-response","419","2886474","0.0-13.0-3.91","a","COGS219_2020_33","Sounds/correct.wav","null","1","","","","","","",""
"null","","audio-keyboard-response","420","2887765","0.0-13.0-0.92","a","COGS219_2020_33","Sounds/train_sound.wav","null","1","","","","","","",""
"null","","html-keyboard-response","421","2888770","0.0-13.0-1.92","a","COGS219_2020_33","<p style=""font-size: 48px;"">+</p>","null","1","","","","","","",""
"865.7149999635294","","image-keyboard-response","422","2889637","0.0-13.0-2.92","a","COGS219_2020_33","Images/train_2.png","65","1","1583002236360","match","train","train","sound","test","true"
"null","","audio-keyboard-response","423","2891644","0.0-13.0-3.92","a","COGS219_2020_33","Sounds/correct.wav","null","1","","","","","","",""
"null","","audio-keyboard-response","424","2892665","0.0-13.0-0.93","a","COGS219_2020_33","Sounds/cow_sound.wav","null","1","","","","","","",""
"null","","html-keyboard-response","425","2893670","0.0-13.0-1.93","a","COGS219_2020_33","<p style=""font-size: 48px;"">+</p>","null","1","","","","","","",""
"557.9650000436231","","image-keyboard-response","426","2894229","0.0-13.0-2.93","a","COGS219_2020_33","Images/cow_orig.png","65","1","1583002241260","match","cow","cow","sound","test","true"
"null","","audio-keyboard-response","427","2896240","0.0-13.0-3.93","a","COGS219_2020_33","Sounds/correct.wav","null","1","","","","","","",""
"null","","audio-keyboard-response","428","2896825","0.0-13.0-0.94","a","COGS219_2020_33","Sounds/gun_sound.wav","null","1","","","","","","",""
"null","","html-keyboard-response","429","2897820","0.0-13.0-1.94","a","COGS219_2020_33","<p style=""font-size: 48px;"">+</p>","null","1","","","","","","",""
"711.8000000482425","","image-keyboard-response","430","2898533","0.0-13.0-2.94","a","COGS219_2020_33","Images/whistle_2.png","76","1","1583002245410","non-match","whistle","gun","sound","test","true"
"null","","audio-keyboard-response","431","2900542","0.0-13.0-3.94","a","COGS219_2020_33","Sounds/correct.wav","null","1","","","","","","",""
"null","","audio-keyboard-response","432","2901245","0.0-13.0-0.95","a","COGS219_2020_33","Sounds/whistle_label.wav","null","1","","","","","","",""
"null","","html-keyboard-response","433","2902237","0.0-13.0-1.95","a","COGS219_2020_33","<p style=""font-size: 48px;"">+</p>","null","1","","","","","","",""
"717.8899999707937","","image-keyboard-response","434","2902957","0.0-13.0-2.95","a","COGS219_2020_33","Images/whistle_3.png","65","1","1583002249827","match","whistle","whistle","label","test","true"
"null","","audio-keyboard-response","435","2904974","0.0-13.0-3.95","a","COGS219_2020_33","Sounds/correct.wav","null","1","","","","","","",""
"null","","audio-keyboard-response","436","2905665","0.0-13.0-0.96","a","COGS219_2020_33","Sounds/rooster_sound.wav","null","1","","","","","","",""
"null","","html-keyboard-response","437","2906670","0.0-13.0-1.96","a","COGS219_2020_33","<p style=""font-size: 48px;"">+</p>","null","1","","","","","","",""
"933.9100000215694","","image-keyboard-response","438","2907605","0.0-13.0-2.96","a","COGS219_2020_33","Images/dog_2.png","76","1","1583002254260","non-match","dog","rooster","sound","test","true"
"null","","audio-keyboard-response","439","2909609","0.0-13.0-3.96","a","COGS219_2020_33","Sounds/correct.wav","null","1","","","","","","",""
"null","","audio-keyboard-response","440","2910285","0.0-13.0-0.97","a","COGS219_2020_33","Sounds/whistle_label.wav","null","1","","","","","","",""
"null","","html-keyboard-response","441","2911303","0.0-13.0-1.97","a","COGS219_2020_33","<p style=""font-size: 48px;"">+</p>","null","1","","","","","","",""
"572.2550000064075","","image-keyboard-response","442","2911877","0.0-13.0-2.97","a","COGS219_2020_33","Images/motorcycle_1.png","76","1","1583002258894","non-match","motorcycle","whistle","label","test","true"
"null","","audio-keyboard-response","443","2913884","0.0-13.0-3.97","a","COGS219_2020_33","Sounds/correct.wav","null","1","","","","","","",""
"null","","audio-keyboard-response","444","2914965","0.0-13.0-0.98","a","COGS219_2020_33","Sounds/car_label.wav","null","1","","","","","","",""
"null","","html-keyboard-response","445","2915970","0.0-13.0-1.98","a","COGS219_2020_33","<p style=""font-size: 48px;"">+</p>","null","1","","","","","","",""
"2049.7749999631196","","image-keyboard-response","446","2918021","0.0-13.0-2.98","a","COGS219_2020_33","Images/car_cartoon.png","65","1","1583002263560","match","car","car","label","test","true"
"null","","audio-keyboard-response","447","2920034","0.0-13.0-3.98","a","COGS219_2020_33","Sounds/correct.wav","null","1","","","","","","",""
"null","","audio-keyboard-response","448","2920865","0.0-13.0-0.99","a","COGS219_2020_33","Sounds/cat_sound.wav","null","1","","","","","","",""
"null","","html-keyboard-response","449","2921870","0.0-13.0-1.99","a","COGS219_2020_33","<p style=""font-size: 48px;"">+</p>","null","1","","","","","","",""
"573.270000051707","","image-keyboard-response","450","2922445","0.0-13.0-2.99","a","COGS219_2020_33","Images/cat_orig.png","65","1","1583002269461","match","cat","cat","sound","test","true"
"null","","audio-keyboard-response","451","2924457","0.0-13.0-3.99","a","COGS219_2020_33","Sounds/correct.wav","null","1","","","","","","",""
"10962.949999957345","","html-keyboard-response","452","2935406","0.0-14.0","a","COGS219_2020_33","<p>Please take this opportunity to rest your eyes before proceeding.</p><p>When ready, press the enter key to continue to the next set of trials.</p>","76","","","","","","","",""
"null","","audio-keyboard-response","453","2938690","0.0-15.0-0.0","a","COGS219_2020_33","Sounds/train_label.wav","null","2","","","","","","",""
"null","","html-keyboard-response","454","2939689","0.0-15.0-1.0","a","COGS219_2020_33","<p style=""font-size: 48px;"">+</p>","null","2","","","","","","",""
"667.9650000296533","","image-keyboard-response","455","2940358","0.0-15.0-2.0","a","COGS219_2020_33","Images/cat_3.png","76","2","1583002287279","non-match","cat","train","label","test","true"
"null","","audio-keyboard-response","456","2942361","0.0-15.0-3.0","a","COGS219_2020_33","Sounds/correct.wav","null","2","","","","","","",""
"null","","audio-keyboard-response","457","2943370","0.0-15.0-0.1","a","COGS219_2020_33","Sounds/cow_label.wav","null","2","","","","","","",""
"null","","html-keyboard-response","458","2944372","0.0-15.0-1.1","a","COGS219_2020_33","<p style=""font-size: 48px;"">+</p>","null","2","","","","","","",""
"512.5499999849126","","image-keyboard-response","459","2944886","0.0-15.0-2.1","a","COGS219_2020_33","Images/cow_orig.png","65","2","1583002291962","match","cow","cow","label","test","true"
"null","","audio-keyboard-response","460","2946894","0.0-15.0-3.1","a","COGS219_2020_33","Sounds/correct.wav","null","2","","","","","","",""
"null","","audio-keyboard-response","461","2947970","0.0-15.0-0.2","a","COGS219_2020_33","Sounds/car_label.wav","null","2","","","","","","",""
"null","","html-keyboard-response","462","2948972","0.0-15.0-1.2","a","COGS219_2020_33","<p style=""font-size: 48px;"">+</p>","null","2","","","","","","",""
"720.7349999807775","","image-keyboard-response","463","2949694","0.0-15.0-2.2","a","COGS219_2020_33","Images/cow_3.png","76","2","1583002296562","non-match","cow","car","label","test","true"
"null","","audio-keyboard-response","464","2951710","0.0-15.0-3.2","a","COGS219_2020_33","Sounds/correct.wav","null","2","","","","","","",""
"null","","audio-keyboard-response","465","2952610","0.0-15.0-0.3","a","COGS219_2020_33","Sounds/frog_sound.wav","null","2","","","","","","",""
"null","","html-keyboard-response","466","2953606","0.0-15.0-1.3","a","COGS219_2020_33","<p style=""font-size: 48px;"">+</p>","null","2","","","","","","",""
"439.17000002693385","","image-keyboard-response","467","2954046","0.0-15.0-2.3","a","COGS219_2020_33","Images/frog_3.png","65","2","1583002301196","match","frog","frog","sound","test","true"
"null","","audio-keyboard-response","468","2956060","0.0-15.0-3.3","a","COGS219_2020_33","Sounds/correct.wav","null","2","","","","","","",""
"null","","audio-keyboard-response","469","2956630","0.0-15.0-0.4","a","COGS219_2020_33","Sounds/gun_sound.wav","null","2","","","","","","",""
"null","","html-keyboard-response","470","2957622","0.0-15.0-1.4","a","COGS219_2020_33","<p style=""font-size: 48px;"">+</p>","null","2","","","","","","",""
"830.3499999456108","","image-keyboard-response","471","2958454","0.0-15.0-2.4","a","COGS219_2020_33","Images/gun_1.png","65","2","1583002305212","match","gun","gun","sound","test","true"
"null","","audio-keyboard-response","472","2960460","0.0-15.0-3.4","a","COGS219_2020_33","Sounds/correct.wav","null","2","","","","","","",""
"null","","audio-keyboard-response","473","2961470","0.0-15.0-0.5","a","COGS219_2020_33","Sounds/cow_label.wav","null","2","","","","","","",""
"null","","html-keyboard-response","474","2962472","0.0-15.0-1.5","a","COGS219_2020_33","<p style=""font-size: 48px;"">+</p>","null","2","","","","","","",""
"628.6199999740347","","image-keyboard-response","475","2963102","0.0-15.0-2.5","a","COGS219_2020_33","Images/car_3.png","76","2","1583002310063","non-match","car","cow","label","test","true"
"null","","audio-keyboard-response","476","2965112","0.0-15.0-3.5","a","COGS219_2020_33","Sounds/correct.wav","null","2","","","","","","",""
"null","","audio-keyboard-response","477","2966410","0.0-15.0-0.6","a","COGS219_2020_33","Sounds/train_label.wav","null","2","","","","","","",""
"null","","html-keyboard-response","478","2967406","0.0-15.0-1.6","a","COGS219_2020_33","<p style=""font-size: 48px;"">+</p>","null","2","","","","","","",""
"831.0950000304729","","image-keyboard-response","479","2968238","0.0-15.0-2.6","a","COGS219_2020_33","Images/train_cartoon.png","65","2","1583002314996","match","train","train","label","test","true"
"null","","audio-keyboard-response","480","2970248","0.0-15.0-3.6","a","COGS219_2020_33","Sounds/correct.wav","null","2","","","","","","",""
"null","","audio-keyboard-response","481","2971330","0.0-15.0-0.7","a","COGS219_2020_33","Sounds/car_sound.wav","null","2","","","","","","",""
"null","","html-keyboard-response","482","2972322","0.0-15.0-1.7","a","COGS219_2020_33","<p style=""font-size: 48px;"">+</p>","null","2","","","","","","",""
"770.4499999526888","","image-keyboard-response","483","2973094","0.0-15.0-2.7","a","COGS219_2020_33","Images/whistle_3.png","76","2","1583002319913","non-match","whistle","car","sound","test","true"
"null","","audio-keyboard-response","484","2975110","0.0-15.0-3.7","a","COGS219_2020_33","Sounds/correct.wav","null","2","","","","","","",""
"null","","audio-keyboard-response","485","2975690","0.0-15.0-0.8","a","COGS219_2020_33","Sounds/gun_label.wav","null","2","","","","","","",""
"null","","html-keyboard-response","486","2976689","0.0-15.0-1.8","a","COGS219_2020_33","<p style=""font-size: 48px;"">+</p>","null","2","","","","","","",""
"507.8900000080466","","image-keyboard-response","487","2977198","0.0-15.0-2.8","a","COGS219_2020_33","Images/car_2.png","76","2","1583002324279","non-match","car","gun","label","test","true"
"null","","audio-keyboard-response","488","2979209","0.0-15.0-3.8","a","COGS219_2020_33","Sounds/correct.wav","null","2","","","","","","",""
"null","","audio-keyboard-response","489","2980510","0.0-15.0-0.9","a","COGS219_2020_33","Sounds/train_sound.wav","null","2","","","","","","",""
"null","","html-keyboard-response","490","2981506","0.0-15.0-1.9","a","COGS219_2020_33","<p style=""font-size: 48px;"">+</p>","null","2","","","","","","",""
"619.040000019595","","image-keyboard-response","491","2982126","0.0-15.0-2.9","a","COGS219_2020_33","Images/whistle_orig.png","76","2","1583002329096","non-match","whistle","train","sound","test","true"
"null","","audio-keyboard-response","492","2984143","0.0-15.0-3.9","a","COGS219_2020_33","Sounds/correct.wav","null","2","","","","","","",""
"null","","audio-keyboard-response","493","2984690","0.0-15.0-0.10","a","COGS219_2020_33","Sounds/gun_label.wav","null","2","","","","","","",""
"null","","html-keyboard-response","494","2985689","0.0-15.0-1.10","a","COGS219_2020_33","<p style=""font-size: 48px;"">+</p>","null","2","","","","","","",""
"547.3650000058115","","image-keyboard-response","495","2986238","0.0-15.0-2.10","a","COGS219_2020_33","Images/gun_orig.png","65","2","1583002333279","match","gun","gun","label","test","true"
"null","","audio-keyboard-response","496","2988252","0.0-15.0-3.10","a","COGS219_2020_33","Sounds/correct.wav","null","2","","","","","","",""
"null","","audio-keyboard-response","497","2989330","0.0-15.0-0.11","a","COGS219_2020_33","Sounds/car_sound.wav","null","2","","","","","","",""
"null","","html-keyboard-response","498","2990323","0.0-15.0-1.11","a","COGS219_2020_33","<p style=""font-size: 48px;"">+</p>","null","2","","","","","","",""
"825.6950000068173","","image-keyboard-response","499","2991150","0.0-15.0-2.11","a","COGS219_2020_33","Images/car_cartoon.png","65","2","1583002337913","match","car","car","sound","test","true"
"null","","audio-keyboard-response","500","2993161","0.0-15.0-3.11","a","COGS219_2020_33","Sounds/correct.wav","null","2","","","","","","",""
"null","","audio-keyboard-response","501","2994070","0.0-15.0-0.12","a","COGS219_2020_33","Sounds/frog_label.wav","null","2","","","","","","",""
"null","","html-keyboard-response","502","2995073","0.0-15.0-1.12","a","COGS219_2020_33","<p style=""font-size: 48px;"">+</p>","null","2","","","","","","",""
"772.1550000132993","","image-keyboard-response","503","2995861","0.0-15.0-2.12","a","COGS219_2020_33","Images/cat_2.png","76","2","1583002342663","non-match","cat","frog","label","test","true"
"null","","audio-keyboard-response","504","2997878","0.0-15.0-3.12","a","COGS219_2020_33","Sounds/correct.wav","null","2","","","","","","",""
"null","","audio-keyboard-response","505","2999165","0.0-15.0-0.13","a","COGS219_2020_33","Sounds/train_sound.wav","null","2","","","","","","",""
"null","","html-keyboard-response","506","3000171","0.0-15.0-1.13","a","COGS219_2020_33","<p style=""font-size: 48px;"">+</p>","null","2","","","","","","",""
"504.40999993588775","","image-keyboard-response","507","3000677","0.0-15.0-2.13","a","COGS219_2020_33","Images/train_1.png","65","2","1583002347761","match","train","train","sound","test","true"
"null","","audio-keyboard-response","508","3002691","0.0-15.0-3.13","a","COGS219_2020_33","Sounds/correct.wav","null","2","","","","","","",""
"null","","audio-keyboard-response","509","3003985","0.0-15.0-0.14","a","COGS219_2020_33","Sounds/train_label.wav","null","2","","","","","","",""
"null","","html-keyboard-response","510","3004988","0.0-15.0-1.14","a","COGS219_2020_33","<p style=""font-size: 48px;"">+</p>","null","2","","","","","","",""
"480.10000004433095","","image-keyboard-response","511","3005469","0.0-15.0-2.14","a","COGS219_2020_33","Images/train_3.png","65","2","1583002352578","match","train","train","label","test","true"
"null","","audio-keyboard-response","512","3007476","0.0-15.0-3.14","a","COGS219_2020_33","Sounds/correct.wav","null","2","","","","","","",""
"null","","audio-keyboard-response","513","3008605","0.0-15.0-0.15","a","COGS219_2020_33","Sounds/motorcycle_label.wav","null","2","","","","","","",""
"null","","html-keyboard-response","514","3009604","0.0-15.0-1.15","a","COGS219_2020_33","<p style=""font-size: 48px;"">+</p>","null","2","","","","","","",""
"454.80499998666346","","image-keyboard-response","515","3010061","0.0-15.0-2.15","a","COGS219_2020_33","Images/motorcycle_1.png","65","2","1583002357195","match","motorcycle","motorcycle","label","test","true"
"null","","audio-keyboard-response","516","3012077","0.0-15.0-3.15","a","COGS219_2020_33","Sounds/correct.wav","null","2","","","","","","",""
"null","","audio-keyboard-response","517","3012985","0.0-15.0-0.16","a","COGS219_2020_33","Sounds/frog_sound.wav","null","2","","","","","","",""
"null","","html-keyboard-response","518","3013988","0.0-15.0-1.16","a","COGS219_2020_33","<p style=""font-size: 48px;"">+</p>","null","2","","","","","","",""
"679.9250000622123","","image-keyboard-response","519","3014669","0.0-15.0-2.16","a","COGS219_2020_33","Images/cow_cartoon.png","76","2","1583002361578","non-match","cow","frog","sound","test","true"
"null","","audio-keyboard-response","520","3016679","0.0-15.0-3.16","a","COGS219_2020_33","Sounds/correct.wav","null","2","","","","","","",""
"null","","audio-keyboard-response","521","3017385","0.0-15.0-0.17","a","COGS219_2020_33","Sounds/whistle_sound.wav","null","2","","","","","","",""
"null","","html-keyboard-response","522","3018388","0.0-15.0-1.17","a","COGS219_2020_33","<p style=""font-size: 48px;"">+</p>","null","2","","","","","","",""
"767.9149999748915","","image-keyboard-response","523","3019157","0.0-15.0-2.17","a","COGS219_2020_33","Images/dog_3.png","76","2","1583002365978","non-match","dog","whistle","sound","test","true"
"null","","audio-keyboard-response","524","3021175","0.0-15.0-3.17","a","COGS219_2020_33","Sounds/correct.wav","null","2","","","","","","",""
"null","","audio-keyboard-response","525","3022005","0.0-15.0-0.18","a","COGS219_2020_33","Sounds/cat_label.wav","null","2","","","","","","",""
"null","","html-keyboard-response","526","3023005","0.0-15.0-1.18","a","COGS219_2020_33","<p style=""font-size: 48px;"">+</p>","null","2","","","","","","",""
"423.17999992519617","","image-keyboard-response","527","3023429","0.0-15.0-2.18","a","COGS219_2020_33","Images/cat_1.png","65","2","1583002370595","match","cat","cat","label","test","true"
"null","","audio-keyboard-response","528","3025442","0.0-15.0-3.18","a","COGS219_2020_33","Sounds/correct.wav","null","2","","","","","","",""
"null","","audio-keyboard-response","529","3026245","0.0-15.0-0.19","a","COGS219_2020_33","Sounds/cat_label.wav","null","2","","","","","","",""
"null","","html-keyboard-response","530","3027238","0.0-15.0-1.19","a","COGS219_2020_33","<p style=""font-size: 48px;"">+</p>","null","2","","","","","","",""
"445.7900000270456","","image-keyboard-response","531","3027685","0.0-15.0-2.19","a","COGS219_2020_33","Images/cat_2.png","65","2","1583002374828","match","cat","cat","label","test","true"
"null","","audio-keyboard-response","532","3029693","0.0-15.0-3.19","a","COGS219_2020_33","Sounds/correct.wav","null","2","","","","","","",""
"null","","audio-keyboard-response","533","3030765","0.0-15.0-0.20","a","COGS219_2020_33","Sounds/car_sound.wav","null","2","","","","","","",""
"null","","html-keyboard-response","534","3031755","0.0-15.0-1.20","a","COGS219_2020_33","<p style=""font-size: 48px;"">+</p>","null","2","","","","","","",""
"545.2799999620765","","image-keyboard-response","535","3032301","0.0-15.0-2.20","a","COGS219_2020_33","Images/cat_orig.png","76","2","1583002379345","non-match","cat","car","sound","test","true"
"null","","audio-keyboard-response","536","3034310","0.0-15.0-3.20","a","COGS219_2020_33","Sounds/correct.wav","null","2","","","","","","",""
"null","","audio-keyboard-response","537","3035445","0.0-15.0-0.21","a","COGS219_2020_33","Sounds/motorcycle_label.wav","null","2","","","","","","",""
"null","","html-keyboard-response","538","3036438","0.0-15.0-1.21","a","COGS219_2020_33","<p style=""font-size: 48px;"">+</p>","null","2","","","","","","",""
"525.6300000473857","","image-keyboard-response","539","3036965","0.0-15.0-2.21","a","COGS219_2020_33","Images/train_orig.png","76","2","1583002384028","non-match","train","motorcycle","label","test","true"
"null","","audio-keyboard-response","540","3038974","0.0-15.0-3.21","a","COGS219_2020_33","Sounds/correct.wav","null","2","","","","","","",""
"null","","audio-keyboard-response","541","3039665","0.0-15.0-0.22","a","COGS219_2020_33","Sounds/whistle_sound.wav","null","2","","","","","","",""
"null","","html-keyboard-response","542","3040655","0.0-15.0-1.22","a","COGS219_2020_33","<p style=""font-size: 48px;"">+</p>","null","2","","","","","","",""
"725.0399999320507","","image-keyboard-response","543","3041381","0.0-15.0-2.22","a","COGS219_2020_33","Images/whistle_cartoon.png","76","2","1583002388245","match","whistle","whistle","sound","test","false"
"null","","audio-keyboard-response","544","3043392","0.0-15.0-3.22","a","COGS219_2020_33","Sounds/incorrect.wav","null","2","","","","","","",""
"null","","audio-keyboard-response","545","3044085","0.0-15.0-0.23","a","COGS219_2020_33","Sounds/whistle_label.wav","null","2","","","","","","",""
"null","","html-keyboard-response","546","3045088","0.0-15.0-1.23","a","COGS219_2020_33","<p style=""font-size: 48px;"">+</p>","null","2","","","","","","",""
"603.6349999485537","","image-keyboard-response","547","3045693","0.0-15.0-2.23","a","COGS219_2020_33","Images/train_2.png","76","2","1583002392679","non-match","train","whistle","label","test","true"
"null","","audio-keyboard-response","548","3047709","0.0-15.0-3.23","a","COGS219_2020_33","Sounds/correct.wav","null","2","","","","","","",""
"null","","audio-keyboard-response","549","3048625","0.0-15.0-0.24","a","COGS219_2020_33","Sounds/frog_sound.wav","null","2","","","","","","",""
"null","","html-keyboard-response","550","3049622","0.0-15.0-1.24","a","COGS219_2020_33","<p style=""font-size: 48px;"">+</p>","null","2","","","","","","",""
"566.249999916181","","image-keyboard-response","551","3050189","0.0-15.0-2.24","a","COGS219_2020_33","Images/frog_2.png","65","2","1583002397212","match","frog","frog","sound","test","true"
"null","","audio-keyboard-response","552","3052196","0.0-15.0-3.24","a","COGS219_2020_33","Sounds/correct.wav","null","2","","","","","","",""
"null","","audio-keyboard-response","553","3053105","0.0-15.0-0.25","a","COGS219_2020_33","Sounds/frog_label.wav","null","2","","","","","","",""
"null","","html-keyboard-response","554","3054105","0.0-15.0-1.25","a","COGS219_2020_33","<p style=""font-size: 48px;"">+</p>","null","2","","","","","","",""
"562.7800000365824","","image-keyboard-response","555","3054669","0.0-15.0-2.25","a","COGS219_2020_33","Images/motorcycle_1.png","76","2","1583002401695","non-match","motorcycle","frog","label","test","true"
"null","","audio-keyboard-response","556","3056677","0.0-15.0-3.25","a","COGS219_2020_33","Sounds/correct.wav","null","2","","","","","","",""
"null","","audio-keyboard-response","557","3057386","0.0-15.0-0.26","a","COGS219_2020_33","Sounds/dog_sound.wav","null","2","","","","","","",""
"null","","html-keyboard-response","558","3058389","0.0-15.0-1.26","a","COGS219_2020_33","<p style=""font-size: 48px;"">+</p>","null","2","","","","","","",""
"599.8149999650195","","image-keyboard-response","559","3058990","0.0-15.0-2.26","a","COGS219_2020_33","Images/frog_orig.png","76","2","1583002405979","non-match","frog","dog","sound","test","true"
"null","","audio-keyboard-response","560","3060994","0.0-15.0-3.26","a","COGS219_2020_33","Sounds/correct.wav","null","2","","","","","","",""
"null","","audio-keyboard-response","561","3061685","0.0-15.0-0.27","a","COGS219_2020_33","Sounds/whistle_sound.wav","null","2","","","","","","",""
"null","","html-keyboard-response","562","3062689","0.0-15.0-1.27","a","COGS219_2020_33","<p style=""font-size: 48px;"">+</p>","null","2","","","","","","",""
"579.4349999632686","","image-keyboard-response","563","3063269","0.0-15.0-2.27","a","COGS219_2020_33","Images/whistle_orig.png","65","2","1583002410279","match","whistle","whistle","sound","test","true"
"null","","audio-keyboard-response","564","3065281","0.0-15.0-3.27","a","COGS219_2020_33","Sounds/correct.wav","null","2","","","","","","",""
"null","","audio-keyboard-response","565","3066306","0.0-15.0-0.28","a","COGS219_2020_33","Sounds/cow_sound.wav","null","2","","","","","","",""
"null","","html-keyboard-response","566","3067305","0.0-15.0-1.28","a","COGS219_2020_33","<p style=""font-size: 48px;"">+</p>","null","2","","","","","","",""
"770.9550000727177","","image-keyboard-response","567","3068077","0.0-15.0-2.28","a","COGS219_2020_33","Images/cat_1.png","76","2","1583002414896","non-match","cat","cow","sound","test","true"
"null","","audio-keyboard-response","568","3070093","0.0-15.0-3.28","a","COGS219_2020_33","Sounds/correct.wav","null","2","","","","","","",""
"null","","audio-keyboard-response","569","3070665","0.0-15.0-0.29","a","COGS219_2020_33","Sounds/gun_sound.wav","null","2","","","","","","",""
"null","","html-keyboard-response","570","3071655","0.0-15.0-1.29","a","COGS219_2020_33","<p style=""font-size: 48px;"">+</p>","null","2","","","","","","",""
"708.7400000309572","","image-keyboard-response","571","3072365","0.0-15.0-2.29","a","COGS219_2020_33","Images/train_1.png","76","2","1583002419246","non-match","train","gun","sound","test","true"
"null","","audio-keyboard-response","572","3074374","0.0-15.0-3.29","a","COGS219_2020_33","Sounds/correct.wav","null","2","","","","","","",""
"null","","audio-keyboard-response","573","3075205","0.0-15.0-0.30","a","COGS219_2020_33","Sounds/cat_sound.wav","null","2","","","","","","",""
"null","","html-keyboard-response","574","3076205","0.0-15.0-1.30","a","COGS219_2020_33","<p style=""font-size: 48px;"">+</p>","null","2","","","","","","",""
"622.5499999709427","","image-keyboard-response","575","3076829","0.0-15.0-2.30","a","COGS219_2020_33","Images/cat_3.png","65","2","1583002423796","match","cat","cat","sound","test","true"
"null","","audio-keyboard-response","576","3078844","0.0-15.0-3.30","a","COGS219_2020_33","Sounds/correct.wav","null","2","","","","","","",""
"null","","audio-keyboard-response","577","3079425","0.0-15.0-0.31","a","COGS219_2020_33","Sounds/gun_label.wav","null","2","","","","","","",""
"null","","html-keyboard-response","578","3080422","0.0-15.0-1.31","a","COGS219_2020_33","<p style=""font-size: 48px;"">+</p>","null","2","","","","","","",""
"710.0050000008196","","image-keyboard-response","579","3081133","0.0-15.0-2.31","a","COGS219_2020_33","Images/motorcycle_2.png","76","2","1583002428012","non-match","motorcycle","gun","label","test","true"
"null","","audio-keyboard-response","580","3083142","0.0-15.0-3.31","a","COGS219_2020_33","Sounds/correct.wav","null","2","","","","","","",""
"null","","audio-keyboard-response","581","3084046","0.0-15.0-0.32","a","COGS219_2020_33","Sounds/frog_sound.wav","null","2","","","","","","",""
"null","","html-keyboard-response","582","3085039","0.0-15.0-1.32","a","COGS219_2020_33","<p style=""font-size: 48px;"">+</p>","null","2","","","","","","",""
"604.894999996759","","image-keyboard-response","583","3085645","0.0-15.0-2.32","a","COGS219_2020_33","Images/frog_1.png","65","2","1583002432629","match","frog","frog","sound","test","true"
"null","","audio-keyboard-response","584","3087660","0.0-15.0-3.32","a","COGS219_2020_33","Sounds/correct.wav","null","2","","","","","","",""
"null","","audio-keyboard-response","585","3088805","0.0-15.0-0.33","a","COGS219_2020_33","Sounds/motorcycle_label.wav","null","2","","","","","","",""
"null","","html-keyboard-response","586","3089806","0.0-15.0-1.33","a","COGS219_2020_33","<p style=""font-size: 48px;"">+</p>","null","2","","","","","","",""
"822.565000038594","","image-keyboard-response","587","3090629","0.0-15.0-2.33","a","COGS219_2020_33","Images/motorcycle_orig.png","65","2","1583002437396","match","motorcycle","motorcycle","label","test","true"
"null","","audio-keyboard-response","588","3092643","0.0-15.0-3.33","a","COGS219_2020_33","Sounds/correct.wav","null","2","","","","","","",""
"null","","audio-keyboard-response","589","3093945","0.0-15.0-0.34","a","COGS219_2020_33","Sounds/train_sound.wav","null","2","","","","","","",""
"null","","html-keyboard-response","590","3094939","0.0-15.0-1.34","a","COGS219_2020_33","<p style=""font-size: 48px;"">+</p>","null","2","","","","","","",""
"793.210000032559","","image-keyboard-response","591","3095733","0.0-15.0-2.34","a","COGS219_2020_33","Images/gun_1.png","76","2","1583002442529","non-match","gun","train","sound","test","true"
"null","","audio-keyboard-response","592","3097751","0.0-15.0-3.34","a","COGS219_2020_33","Sounds/correct.wav","null","2","","","","","","",""
"null","","audio-keyboard-response","593","3098766","0.0-15.0-0.35","a","COGS219_2020_33","Sounds/cow_label.wav","null","2","","","","","","",""
"null","","html-keyboard-response","594","3099773","0.0-15.0-1.35","a","COGS219_2020_33","<p style=""font-size: 48px;"">+</p>","null","2","","","","","","",""
"575.1449998933822","","image-keyboard-response","595","3100349","0.0-15.0-2.35","a","COGS219_2020_33","Images/motorcycle_cartoon.png","76","2","1583002447363","non-match","motorcycle","cow","label","test","true"
"null","","audio-keyboard-response","596","3102360","0.0-15.0-3.35","a","COGS219_2020_33","Sounds/correct.wav","null","2","","","","","","",""
"null","","audio-keyboard-response","597","3103066","0.0-15.0-0.36","a","COGS219_2020_33","Sounds/rooster_label.wav","null","2","","","","","","",""
"null","","html-keyboard-response","598","3104056","0.0-15.0-1.36","a","COGS219_2020_33","<p style=""font-size: 48px;"">+</p>","null","2","","","","","","",""
"772.1000000601634","","image-keyboard-response","599","3104829","0.0-15.0-2.36","a","COGS219_2020_33","Images/rooster_2.png","65","2","1583002451646","match","rooster","rooster","label","test","true"
"null","","audio-keyboard-response","600","3106845","0.0-15.0-3.36","a","COGS219_2020_33","Sounds/correct.wav","null","2","","","","","","",""
"null","","audio-keyboard-response","601","3107545","0.0-15.0-0.37","a","COGS219_2020_33","Sounds/dog_sound.wav","null","2","","","","","","",""
"null","","html-keyboard-response","602","3108539","0.0-15.0-1.37","a","COGS219_2020_33","<p style=""font-size: 48px;"">+</p>","null","2","","","","","","",""
"1449.3700000457466","","image-keyboard-response","603","3109990","0.0-15.0-2.37","a","COGS219_2020_33","Images/rooster_orig.png","76","2","1583002456129","non-match","rooster","dog","sound","test","true"
"null","","audio-keyboard-response","604","3111997","0.0-15.0-3.37","a","COGS219_2020_33","Sounds/correct.wav","null","2","","","","","","",""
