[{"rt":29583.510000025854,"responses":"{\"Q0\":\"COGS219_2020_01\"}","trial_type":"survey-text","trial_index":0,"time_elapsed":29639,"internal_node_id":"0.0-0.0","match_key":"l","participant_id":"COGS219_2020_01"},{"rt":59726.46500001429,"stimulus":"<p>Use KEYBOARD 1 (match RIGHT)</p><p>Press MATCH to continue.</p>","key_press":76,"trial_type":"html-keyboard-response","trial_index":1,"time_elapsed":89376,"internal_node_id":"0.0-1.0","match_key":"l","participant_id":"COGS219_2020_01"},{"rt":2166862.3249999946,"stimulus":"<p>Welcome to the experiment.</p>","key_press":32,"trial_type":"html-keyboard-response","trial_index":2,"time_elapsed":2255568,"internal_node_id":"0.0-2.0","match_key":"l","participant_id":"COGS219_2020_01"},{"rt":16361.169999989215,"stimulus":"<p>Thank you for agreeing to participate in this study.</p><p>If during any part of the procedure you must stop for any reason, please inform the researcher that you do not wish to continue.</p>","key_press":32,"trial_type":"html-keyboard-response","trial_index":3,"time_elapsed":2271935,"internal_node_id":"0.0-3.0","match_key":"l","participant_id":"COGS219_2020_01"},{"rt":21662.874999979977,"stimulus":"<p>In this experiment, you will hear various words or sounds and see pictures of various animals and objects.</p><p>Most of the images will be of common everyday objects, such as cars, cats, cows, firearms, frogs, chickens, whistles, trains, motorcycles, and dogs.</p><p>Some of the images will be real-life stills, while others will be cartoons.</p>","key_press":32,"trial_type":"html-keyboard-response","trial_index":4,"time_elapsed":2293599,"internal_node_id":"0.0-4.0","match_key":"l","participant_id":"COGS219_2020_01"},{"rt":20814.560000027996,"stimulus":"<p>Sometimes, the word/sound will match the picture, for example you'll hear a meowing sound and see a cat.</p><p>Other times, the picture will not match the sound or word.</p><p>Your task is to decide as quickly as possible if the word/sound matches the picture or not. </p>","key_press":32,"trial_type":"html-keyboard-response","trial_index":5,"time_elapsed":2314415,"internal_node_id":"0.0-5.0","match_key":"l","participant_id":"COGS219_2020_01"},{"rt":16990.684999967925,"stimulus":"<p>For example, if you hear the word \"cat\" or hear a meowing sound, and then see a picture of a cat, you should press the MATCH key.</p><p> If the sound and image do not match, press the NOT-MATCH key to indicate that there is not a match.</p>","key_press":32,"trial_type":"html-keyboard-response","trial_index":6,"time_elapsed":2331406,"internal_node_id":"0.0-6.0","match_key":"l","participant_id":"COGS219_2020_01"},{"rt":17551.344999985304,"stimulus":"<p>If you make a mistake, you will hear a buzzing sound instead of a more pleasant sound.</p><p> Try to respond as quickly as possible, while making as few errors as possible. If you are making mistakes, you are probably rushing.</p>","key_press":32,"trial_type":"html-keyboard-response","trial_index":7,"time_elapsed":2348958,"internal_node_id":"0.0-7.0","match_key":"l","participant_id":"COGS219_2020_01"},{"rt":13918.440000037663,"stimulus":"<p>Please try to not move or blink your eyes during the presentation of the images. You can move and blink between images.</p><p>During the experiment there will be some breaks during which you can rest your eyes.</p>","key_press":32,"trial_type":"html-keyboard-response","trial_index":8,"time_elapsed":2362878,"internal_node_id":"0.0-8.0","match_key":"l","participant_id":"COGS219_2020_01"},{"rt":13919.01000001235,"stimulus":"<p>We will begin with 10 practice trials. Please let the experimenter know if you have any questions.</p>","key_press":32,"trial_type":"html-keyboard-response","trial_index":9,"time_elapsed":2376798,"internal_node_id":"0.0-9.0","match_key":"l","participant_id":"COGS219_2020_01"},{"rt":null,"stimulus":"Sounds/frog_sound.wav","key_press":null,"block":0,"trial_type":"audio-keyboard-response","trial_index":10,"time_elapsed":2377790,"internal_node_id":"0.0-10.0-0.0","match_key":"l","participant_id":"COGS219_2020_01"},{"rt":null,"stimulus":"<p style=\"font-size: 48px;\">+</p>","key_press":null,"block":0,"trial_type":"html-keyboard-response","trial_index":11,"time_elapsed":2378780,"internal_node_id":"0.0-10.0-1.0","match_key":"l","participant_id":"COGS219_2020_01"},{"rt":1102.7999999932945,"stimulus":"Images/frog_cartoon.png","key_press":76,"stim_onset":1581180235366,"block":0,"match_type":"match","image_category":"frog","sound_category":"frog","audio_type":"sound","phase":"practice","trial_type":"image-keyboard-response","trial_index":12,"time_elapsed":2379885,"internal_node_id":"0.0-10.0-2.0","match_key":"l","participant_id":"COGS219_2020_01","correct":true},{"rt":null,"stimulus":"Sounds/correct.wav","key_press":null,"block":0,"trial_type":"audio-keyboard-response","trial_index":13,"time_elapsed":2381898,"internal_node_id":"0.0-10.0-3.0","match_key":"l","participant_id":"COGS219_2020_01"},{"rt":null,"stimulus":"Sounds/cow_label.wav","key_press":null,"block":0,"trial_type":"audio-keyboard-response","trial_index":14,"time_elapsed":2382930,"internal_node_id":"0.0-10.0-0.1","match_key":"l","participant_id":"COGS219_2020_01"},{"rt":null,"stimulus":"<p style=\"font-size: 48px;\">+</p>","key_press":null,"block":0,"trial_type":"html-keyboard-response","trial_index":15,"time_elapsed":2383930,"internal_node_id":"0.0-10.0-1.1","match_key":"l","participant_id":"COGS219_2020_01"},{"rt":1073.4250000095926,"stimulus":"Images/cow_1.png","key_press":76,"stim_onset":1581180240515,"block":0,"match_type":"match","image_category":"cow","sound_category":"cow","audio_type":"label","phase":"practice","trial_type":"image-keyboard-response","trial_index":16,"time_elapsed":2385005,"internal_node_id":"0.0-10.0-2.1","match_key":"l","participant_id":"COGS219_2020_01","correct":true},{"rt":null,"stimulus":"Sounds/correct.wav","key_press":null,"block":0,"trial_type":"audio-keyboard-response","trial_index":17,"time_elapsed":2387009,"internal_node_id":"0.0-10.0-3.1","match_key":"l","participant_id":"COGS219_2020_01"},{"rt":null,"stimulus":"Sounds/whistle_sound.wav","key_press":null,"block":0,"trial_type":"audio-keyboard-response","trial_index":18,"time_elapsed":2387710,"internal_node_id":"0.0-10.0-0.2","match_key":"l","participant_id":"COGS219_2020_01"},{"rt":null,"stimulus":"<p style=\"font-size: 48px;\">+</p>","key_press":null,"block":0,"trial_type":"html-keyboard-response","trial_index":19,"time_elapsed":2388714,"internal_node_id":"0.0-10.0-1.2","match_key":"l","participant_id":"COGS219_2020_01"},{"rt":1106.2950000050478,"stimulus":"Images/car_cartoon.png","key_press":65,"stim_onset":1581180245299,"block":0,"match_type":"non-match","image_category":"car","sound_category":"whistle","audio_type":"sound","phase":"practice","trial_type":"image-keyboard-response","trial_index":20,"time_elapsed":2389821,"internal_node_id":"0.0-10.0-2.2","match_key":"l","participant_id":"COGS219_2020_01","correct":true},{"rt":null,"stimulus":"Sounds/correct.wav","key_press":null,"block":0,"trial_type":"audio-keyboard-response","trial_index":21,"time_elapsed":2391829,"internal_node_id":"0.0-10.0-3.2","match_key":"l","participant_id":"COGS219_2020_01"},{"rt":null,"stimulus":"Sounds/motorcycle_sound.wav","key_press":null,"block":0,"trial_type":"audio-keyboard-response","trial_index":22,"time_elapsed":2392949,"internal_node_id":"0.0-10.0-0.3","match_key":"l","participant_id":"COGS219_2020_01"},{"rt":null,"stimulus":"<p style=\"font-size: 48px;\">+</p>","key_press":null,"block":0,"trial_type":"html-keyboard-response","trial_index":23,"time_elapsed":2393947,"internal_node_id":"0.0-10.0-1.3","match_key":"l","participant_id":"COGS219_2020_01"},{"rt":1024.7850000159815,"stimulus":"Images/car_orig.png","key_press":76,"stim_onset":1581180250532,"block":0,"match_type":"non-match","image_category":"car","sound_category":"motorcycle","audio_type":"sound","phase":"practice","trial_type":"image-keyboard-response","trial_index":24,"time_elapsed":2394973,"internal_node_id":"0.0-10.0-2.3","match_key":"l","participant_id":"COGS219_2020_01","correct":false},{"rt":null,"stimulus":"Sounds/incorrect.wav","key_press":null,"block":0,"trial_type":"audio-keyboard-response","trial_index":25,"time_elapsed":2396986,"internal_node_id":"0.0-10.0-3.3","match_key":"l","participant_id":"COGS219_2020_01"},{"rt":null,"stimulus":"Sounds/car_sound.wav","key_press":null,"block":0,"trial_type":"audio-keyboard-response","trial_index":26,"time_elapsed":2398069,"internal_node_id":"0.0-10.0-0.4","match_key":"l","participant_id":"COGS219_2020_01"},{"rt":null,"stimulus":"<p style=\"font-size: 48px;\">+</p>","key_press":null,"block":0,"trial_type":"html-keyboard-response","trial_index":27,"time_elapsed":2399063,"internal_node_id":"0.0-10.0-1.4","match_key":"l","participant_id":"COGS219_2020_01"},{"rt":900.4450000356883,"stimulus":"Images/car_1.png","key_press":76,"stim_onset":1581180255649,"block":0,"match_type":"match","image_category":"car","sound_category":"car","audio_type":"sound","phase":"practice","trial_type":"image-keyboard-response","trial_index":28,"time_elapsed":2399965,"internal_node_id":"0.0-10.0-2.4","match_key":"l","participant_id":"COGS219_2020_01","correct":true},{"rt":null,"stimulus":"Sounds/correct.wav","key_press":null,"block":0,"trial_type":"audio-keyboard-response","trial_index":29,"time_elapsed":2401969,"internal_node_id":"0.0-10.0-3.4","match_key":"l","participant_id":"COGS219_2020_01"},{"rt":null,"stimulus":"Sounds/car_sound.wav","key_press":null,"block":0,"trial_type":"audio-keyboard-response","trial_index":30,"time_elapsed":2403030,"internal_node_id":"0.0-10.0-0.5","match_key":"l","participant_id":"COGS219_2020_01"},{"rt":null,"stimulus":"<p style=\"font-size: 48px;\">+</p>","key_press":null,"block":0,"trial_type":"html-keyboard-response","trial_index":31,"time_elapsed":2404047,"internal_node_id":"0.0-10.0-1.5","match_key":"l","participant_id":"COGS219_2020_01"},{"rt":732.6349999639206,"stimulus":"Images/frog_orig.png","key_press":65,"stim_onset":1581180260632,"block":0,"match_type":"non-match","image_category":"frog","sound_category":"car","audio_type":"sound","phase":"practice","trial_type":"image-keyboard-response","trial_index":32,"time_elapsed":2404781,"internal_node_id":"0.0-10.0-2.5","match_key":"l","participant_id":"COGS219_2020_01","correct":true},{"rt":null,"stimulus":"Sounds/correct.wav","key_press":null,"block":0,"trial_type":"audio-keyboard-response","trial_index":33,"time_elapsed":2406789,"internal_node_id":"0.0-10.0-3.5","match_key":"l","participant_id":"COGS219_2020_01"},{"rt":null,"stimulus":"Sounds/cat_sound.wav","key_press":null,"block":0,"trial_type":"audio-keyboard-response","trial_index":34,"time_elapsed":2407629,"internal_node_id":"0.0-10.0-0.6","match_key":"l","participant_id":"COGS219_2020_01"},{"rt":null,"stimulus":"<p style=\"font-size: 48px;\">+</p>","key_press":null,"block":0,"trial_type":"html-keyboard-response","trial_index":35,"time_elapsed":2408647,"internal_node_id":"0.0-10.0-1.6","match_key":"l","participant_id":"COGS219_2020_01"},{"rt":740.60499999905,"stimulus":"Images/cat_3.png","key_press":76,"stim_onset":1581180265232,"block":0,"match_type":"match","image_category":"cat","sound_category":"cat","audio_type":"sound","phase":"practice","trial_type":"image-keyboard-response","trial_index":36,"time_elapsed":2409389,"internal_node_id":"0.0-10.0-2.6","match_key":"l","participant_id":"COGS219_2020_01","correct":true},{"rt":null,"stimulus":"Sounds/correct.wav","key_press":null,"block":0,"trial_type":"audio-keyboard-response","trial_index":37,"time_elapsed":2411405,"internal_node_id":"0.0-10.0-3.6","match_key":"l","participant_id":"COGS219_2020_01"},{"rt":null,"stimulus":"Sounds/dog_label.wav","key_press":null,"block":0,"trial_type":"audio-keyboard-response","trial_index":38,"time_elapsed":2412069,"internal_node_id":"0.0-10.0-0.7","match_key":"l","participant_id":"COGS219_2020_01"},{"rt":null,"stimulus":"<p style=\"font-size: 48px;\">+</p>","key_press":null,"block":0,"trial_type":"html-keyboard-response","trial_index":39,"time_elapsed":2413063,"internal_node_id":"0.0-10.0-1.7","match_key":"l","participant_id":"COGS219_2020_01"},{"rt":772.5050000008196,"stimulus":"Images/dog_cartoon.png","key_press":76,"stim_onset":1581180269649,"block":0,"match_type":"match","image_category":"dog","sound_category":"dog","audio_type":"label","phase":"practice","trial_type":"image-keyboard-response","trial_index":40,"time_elapsed":2413837,"internal_node_id":"0.0-10.0-2.7","match_key":"l","participant_id":"COGS219_2020_01","correct":true},{"rt":null,"stimulus":"Sounds/correct.wav","key_press":null,"block":0,"trial_type":"audio-keyboard-response","trial_index":41,"time_elapsed":2415841,"internal_node_id":"0.0-10.0-3.7","match_key":"l","participant_id":"COGS219_2020_01"},{"rt":null,"stimulus":"Sounds/train_label.wav","key_press":null,"block":0,"trial_type":"audio-keyboard-response","trial_index":42,"time_elapsed":2417129,"internal_node_id":"0.0-10.0-0.8","match_key":"l","participant_id":"COGS219_2020_01"},{"rt":null,"stimulus":"<p style=\"font-size: 48px;\">+</p>","key_press":null,"block":0,"trial_type":"html-keyboard-response","trial_index":43,"time_elapsed":2418147,"internal_node_id":"0.0-10.0-1.8","match_key":"l","participant_id":"COGS219_2020_01"},{"rt":616.6550000198185,"stimulus":"Images/frog_1.png","key_press":65,"stim_onset":1581180274732,"block":0,"match_type":"non-match","image_category":"frog","sound_category":"train","audio_type":"label","phase":"practice","trial_type":"image-keyboard-response","trial_index":44,"time_elapsed":2418765,"internal_node_id":"0.0-10.0-2.8","match_key":"l","participant_id":"COGS219_2020_01","correct":true},{"rt":null,"stimulus":"Sounds/correct.wav","key_press":null,"block":0,"trial_type":"audio-keyboard-response","trial_index":45,"time_elapsed":2420781,"internal_node_id":"0.0-10.0-3.8","match_key":"l","participant_id":"COGS219_2020_01"},{"rt":null,"stimulus":"Sounds/cow_label.wav","key_press":null,"block":0,"trial_type":"audio-keyboard-response","trial_index":46,"time_elapsed":2421789,"internal_node_id":"0.0-10.0-0.9","match_key":"l","participant_id":"COGS219_2020_01"},{"rt":null,"stimulus":"<p style=\"font-size: 48px;\">+</p>","key_press":null,"block":0,"trial_type":"html-keyboard-response","trial_index":47,"time_elapsed":2422780,"internal_node_id":"0.0-10.0-1.9","match_key":"l","participant_id":"COGS219_2020_01"},{"rt":2143.575000052806,"stimulus":"Images/cow_orig.png","key_press":76,"stim_onset":1581180279365,"block":0,"match_type":"match","image_category":"cow","sound_category":"cow","audio_type":"label","phase":"practice","trial_type":"image-keyboard-response","trial_index":48,"time_elapsed":2424925,"internal_node_id":"0.0-10.0-2.9","match_key":"l","participant_id":"COGS219_2020_01","correct":true},{"rt":null,"stimulus":"Sounds/correct.wav","key_press":null,"block":0,"trial_type":"audio-keyboard-response","trial_index":49,"time_elapsed":2426941,"internal_node_id":"0.0-10.0-3.9","match_key":"l","participant_id":"COGS219_2020_01"},{"rt":31711.375000013504,"stimulus":"<p>The rest of the experiment is divided into five blocks with 100 trials in each block. It will take about 45 minutes to complete.</p><p>The experimenter will be in the outer room and you can communicate with them through the monitor if you have any questions or wish to stop the experiment.</p>","key_press":32,"trial_type":"html-keyboard-response","trial_index":50,"time_elapsed":2458652,"internal_node_id":"0.0-11.0","match_key":"l","participant_id":"COGS219_2020_01"},{"rt":9614.6300000255,"stimulus":"<p>Remember, please try not to move or blink your eyes during the presentation of the images. </p><p>At the end of the experiment, we will show you your scores on the task so you can see how you did.</p><p>The experiment will start on the next screen.</p>","key_press":32,"trial_type":"html-keyboard-response","trial_index":51,"time_elapsed":2468268,"internal_node_id":"0.0-12.0","match_key":"l","participant_id":"COGS219_2020_01"},{"rt":null,"stimulus":"Sounds/cow_sound.wav","key_press":null,"block":1,"trial_type":"audio-keyboard-response","trial_index":52,"time_elapsed":2471320,"internal_node_id":"0.0-13.0-0.0","match_key":"l","participant_id":"COGS219_2020_01"},{"rt":null,"stimulus":"<p style=\"font-size: 48px;\">+</p>","key_press":null,"block":1,"trial_type":"html-keyboard-response","trial_index":53,"time_elapsed":2472313,"internal_node_id":"0.0-13.0-1.0","match_key":"l","participant_id":"COGS219_2020_01"},{"rt":1137.4850000138395,"stimulus":"Images/cow_cartoon.png","key_press":76,"stim_onset":1581180328898,"block":1,"match_type":"match","image_category":"cow","sound_category":"cow","audio_type":"sound","phase":"test","trial_type":"image-keyboard-response","trial_index":54,"time_elapsed":2473452,"internal_node_id":"0.0-13.0-2.0","match_key":"l","participant_id":"COGS219_2020_01","correct":true},{"rt":null,"stimulus":"Sounds/correct.wav","key_press":null,"block":1,"trial_type":"audio-keyboard-response","trial_index":55,"time_elapsed":2475460,"internal_node_id":"0.0-13.0-3.0","match_key":"l","participant_id":"COGS219_2020_01"},{"rt":null,"stimulus":"Sounds/cat_sound.wav","key_press":null,"block":1,"trial_type":"audio-keyboard-response","trial_index":56,"time_elapsed":2476302,"internal_node_id":"0.0-13.0-0.1","match_key":"l","participant_id":"COGS219_2020_01"},{"rt":null,"stimulus":"<p style=\"font-size: 48px;\">+</p>","key_press":null,"block":1,"trial_type":"html-keyboard-response","trial_index":57,"time_elapsed":2477296,"internal_node_id":"0.0-13.0-1.1","match_key":"l","participant_id":"COGS219_2020_01"},{"rt":650.2500000060536,"stimulus":"Images/cow_cartoon.png","key_press":65,"stim_onset":1581180333881,"block":1,"match_type":"non-match","image_category":"cow","sound_category":"cat","audio_type":"sound","phase":"test","trial_type":"image-keyboard-response","trial_index":58,"time_elapsed":2477948,"internal_node_id":"0.0-13.0-2.1","match_key":"l","participant_id":"COGS219_2020_01","correct":true},{"rt":null,"stimulus":"Sounds/correct.wav","key_press":null,"block":1,"trial_type":"audio-keyboard-response","trial_index":59,"time_elapsed":2479953,"internal_node_id":"0.0-13.0-3.1","match_key":"l","participant_id":"COGS219_2020_01"},{"rt":null,"stimulus":"Sounds/rooster_sound.wav","key_press":null,"block":1,"trial_type":"audio-keyboard-response","trial_index":60,"time_elapsed":2480660,"internal_node_id":"0.0-13.0-0.2","match_key":"l","participant_id":"COGS219_2020_01"},{"rt":null,"stimulus":"<p style=\"font-size: 48px;\">+</p>","key_press":null,"block":1,"trial_type":"html-keyboard-response","trial_index":61,"time_elapsed":2481663,"internal_node_id":"0.0-13.0-1.2","match_key":"l","participant_id":"COGS219_2020_01"},{"rt":635.4900000151247,"stimulus":"Images/rooster_1.png","key_press":76,"stim_onset":1581180338248,"block":1,"match_type":"match","image_category":"rooster","sound_category":"rooster","audio_type":"sound","phase":"test","trial_type":"image-keyboard-response","trial_index":62,"time_elapsed":2482300,"internal_node_id":"0.0-13.0-2.2","match_key":"l","participant_id":"COGS219_2020_01","correct":true},{"rt":null,"stimulus":"Sounds/correct.wav","key_press":null,"block":1,"trial_type":"audio-keyboard-response","trial_index":63,"time_elapsed":2484303,"internal_node_id":"0.0-13.0-3.2","match_key":"l","participant_id":"COGS219_2020_01"},{"rt":null,"stimulus":"Sounds/cow_sound.wav","key_press":null,"block":1,"trial_type":"audio-keyboard-response","trial_index":64,"time_elapsed":2485300,"internal_node_id":"0.0-13.0-0.3","match_key":"l","participant_id":"COGS219_2020_01"},{"rt":null,"stimulus":"<p style=\"font-size: 48px;\">+</p>","key_press":null,"block":1,"trial_type":"html-keyboard-response","trial_index":65,"time_elapsed":2486297,"internal_node_id":"0.0-13.0-1.3","match_key":"l","participant_id":"COGS219_2020_01"},{"rt":1201.9950000103563,"stimulus":"Images/cow_3.png","key_press":65,"stim_onset":1581180342882,"block":1,"match_type":"match","image_category":"cow","sound_category":"cow","audio_type":"sound","phase":"test","trial_type":"image-keyboard-response","trial_index":66,"time_elapsed":2487500,"internal_node_id":"0.0-13.0-2.3","match_key":"l","participant_id":"COGS219_2020_01","correct":false},{"rt":null,"stimulus":"Sounds/incorrect.wav","key_press":null,"block":1,"trial_type":"audio-keyboard-response","trial_index":67,"time_elapsed":2489505,"internal_node_id":"0.0-13.0-3.3","match_key":"l","participant_id":"COGS219_2020_01"},{"rt":null,"stimulus":"Sounds/cat_sound.wav","key_press":null,"block":1,"trial_type":"audio-keyboard-response","trial_index":68,"time_elapsed":2490320,"internal_node_id":"0.0-13.0-0.4","match_key":"l","participant_id":"COGS219_2020_01"},{"rt":null,"stimulus":"<p style=\"font-size: 48px;\">+</p>","key_press":null,"block":1,"trial_type":"html-keyboard-response","trial_index":69,"time_elapsed":2491313,"internal_node_id":"0.0-13.0-1.4","match_key":"l","participant_id":"COGS219_2020_01"},{"rt":553.4850000403821,"stimulus":"Images/dog_1.png","key_press":65,"stim_onset":1581180347898,"block":1,"match_type":"non-match","image_category":"dog","sound_category":"cat","audio_type":"sound","phase":"test","trial_type":"image-keyboard-response","trial_index":70,"time_elapsed":2491868,"internal_node_id":"0.0-13.0-2.4","match_key":"l","participant_id":"COGS219_2020_01","correct":true},{"rt":null,"stimulus":"Sounds/correct.wav","key_press":null,"block":1,"trial_type":"audio-keyboard-response","trial_index":71,"time_elapsed":2493873,"internal_node_id":"0.0-13.0-3.4","match_key":"l","participant_id":"COGS219_2020_01"},{"rt":null,"stimulus":"Sounds/gun_sound.wav","key_press":null,"block":1,"trial_type":"audio-keyboard-response","trial_index":72,"time_elapsed":2494460,"internal_node_id":"0.0-13.0-0.5","match_key":"l","participant_id":"COGS219_2020_01"},{"rt":null,"stimulus":"<p style=\"font-size: 48px;\">+</p>","key_press":null,"block":1,"trial_type":"html-keyboard-response","trial_index":73,"time_elapsed":2495463,"internal_node_id":"0.0-13.0-1.5","match_key":"l","participant_id":"COGS219_2020_01"},{"rt":1523.2400000095367,"stimulus":"Images/motorcycle_2.png","key_press":65,"stim_onset":1581180352048,"block":1,"match_type":"non-match","image_category":"motorcycle","sound_category":"gun","audio_type":"sound","phase":"test","trial_type":"image-keyboard-response","trial_index":74,"time_elapsed":2496988,"internal_node_id":"0.0-13.0-2.5","match_key":"l","participant_id":"COGS219_2020_01","correct":true},{"rt":null,"stimulus":"Sounds/correct.wav","key_press":null,"block":1,"trial_type":"audio-keyboard-response","trial_index":75,"time_elapsed":2499003,"internal_node_id":"0.0-13.0-3.5","match_key":"l","participant_id":"COGS219_2020_01"},{"rt":null,"stimulus":"Sounds/rooster_sound.wav","key_press":null,"block":1,"trial_type":"audio-keyboard-response","trial_index":76,"time_elapsed":2499700,"internal_node_id":"0.0-13.0-0.6","match_key":"l","participant_id":"COGS219_2020_01"},{"rt":null,"stimulus":"<p style=\"font-size: 48px;\">+</p>","key_press":null,"block":1,"trial_type":"html-keyboard-response","trial_index":77,"time_elapsed":2500697,"internal_node_id":"0.0-13.0-1.6","match_key":"l","participant_id":"COGS219_2020_01"},{"rt":834.3099999474362,"stimulus":"Images/rooster_2.png","key_press":76,"stim_onset":1581180357282,"block":1,"match_type":"match","image_category":"rooster","sound_category":"rooster","audio_type":"sound","phase":"test","trial_type":"image-keyboard-response","trial_index":78,"time_elapsed":2501532,"internal_node_id":"0.0-13.0-2.6","match_key":"l","participant_id":"COGS219_2020_01","correct":true},{"rt":null,"stimulus":"Sounds/correct.wav","key_press":null,"block":1,"trial_type":"audio-keyboard-response","trial_index":79,"time_elapsed":2503535,"internal_node_id":"0.0-13.0-3.6","match_key":"l","participant_id":"COGS219_2020_01"},{"rt":null,"stimulus":"Sounds/cat_sound.wav","key_press":null,"block":1,"trial_type":"audio-keyboard-response","trial_index":80,"time_elapsed":2504340,"internal_node_id":"0.0-13.0-0.7","match_key":"l","participant_id":"COGS219_2020_01"},{"rt":null,"stimulus":"<p style=\"font-size: 48px;\">+</p>","key_press":null,"block":1,"trial_type":"html-keyboard-response","trial_index":81,"time_elapsed":2505330,"internal_node_id":"0.0-13.0-1.7","match_key":"l","participant_id":"COGS219_2020_01"},{"rt":888.5400000144728,"stimulus":"Images/cat_1.png","key_press":76,"stim_onset":1581180361915,"block":1,"match_type":"match","image_category":"cat","sound_category":"cat","audio_type":"sound","phase":"test","trial_type":"image-keyboard-response","trial_index":82,"time_elapsed":2506220,"internal_node_id":"0.0-13.0-2.7","match_key":"l","participant_id":"COGS219_2020_01","correct":true},{"rt":null,"stimulus":"Sounds/correct.wav","key_press":null,"block":1,"trial_type":"audio-keyboard-response","trial_index":83,"time_elapsed":2508234,"internal_node_id":"0.0-13.0-3.7","match_key":"l","participant_id":"COGS219_2020_01"},{"rt":null,"stimulus":"Sounds/dog_sound.wav","key_press":null,"block":1,"trial_type":"audio-keyboard-response","trial_index":84,"time_elapsed":2508940,"internal_node_id":"0.0-13.0-0.8","match_key":"l","participant_id":"COGS219_2020_01"},{"rt":null,"stimulus":"<p style=\"font-size: 48px;\">+</p>","key_press":null,"block":1,"trial_type":"html-keyboard-response","trial_index":85,"time_elapsed":2509930,"internal_node_id":"0.0-13.0-1.8","match_key":"l","participant_id":"COGS219_2020_01"},{"rt":896.5650000027381,"stimulus":"Images/frog_3.png","key_press":65,"stim_onset":1581180366515,"block":1,"match_type":"non-match","image_category":"frog","sound_category":"dog","audio_type":"sound","phase":"test","trial_type":"image-keyboard-response","trial_index":86,"time_elapsed":2510828,"internal_node_id":"0.0-13.0-2.8","match_key":"l","participant_id":"COGS219_2020_01","correct":true},{"rt":null,"stimulus":"Sounds/correct.wav","key_press":null,"block":1,"trial_type":"audio-keyboard-response","trial_index":87,"time_elapsed":2512835,"internal_node_id":"0.0-13.0-3.8","match_key":"l","participant_id":"COGS219_2020_01"},{"rt":null,"stimulus":"Sounds/motorcycle_label.wav","key_press":null,"block":1,"trial_type":"audio-keyboard-response","trial_index":88,"time_elapsed":2513980,"internal_node_id":"0.0-13.0-0.9","match_key":"l","participant_id":"COGS219_2020_01"},{"rt":null,"stimulus":"<p style=\"font-size: 48px;\">+</p>","key_press":null,"block":1,"trial_type":"html-keyboard-response","trial_index":89,"time_elapsed":2514980,"internal_node_id":"0.0-13.0-1.9","match_key":"l","participant_id":"COGS219_2020_01"},{"rt":854.6649999916553,"stimulus":"Images/motorcycle_3.png","key_press":76,"stim_onset":1581180371565,"block":1,"match_type":"match","image_category":"motorcycle","sound_category":"motorcycle","audio_type":"label","phase":"test","trial_type":"image-keyboard-response","trial_index":90,"time_elapsed":2515836,"internal_node_id":"0.0-13.0-2.9","match_key":"l","participant_id":"COGS219_2020_01","correct":true},{"rt":null,"stimulus":"Sounds/correct.wav","key_press":null,"block":1,"trial_type":"audio-keyboard-response","trial_index":91,"time_elapsed":2517853,"internal_node_id":"0.0-13.0-3.9","match_key":"l","participant_id":"COGS219_2020_01"},{"rt":null,"stimulus":"Sounds/dog_label.wav","key_press":null,"block":1,"trial_type":"audio-keyboard-response","trial_index":92,"time_elapsed":2518520,"internal_node_id":"0.0-13.0-0.10","match_key":"l","participant_id":"COGS219_2020_01"},{"rt":null,"stimulus":"<p style=\"font-size: 48px;\">+</p>","key_press":null,"block":1,"trial_type":"html-keyboard-response","trial_index":93,"time_elapsed":2519513,"internal_node_id":"0.0-13.0-1.10","match_key":"l","participant_id":"COGS219_2020_01"},{"rt":705.1800000481308,"stimulus":"Images/motorcycle_cartoon.png","key_press":65,"stim_onset":1581180376099,"block":1,"match_type":"non-match","image_category":"motorcycle","sound_category":"dog","audio_type":"label","phase":"test","trial_type":"image-keyboard-response","trial_index":94,"time_elapsed":2520219,"internal_node_id":"0.0-13.0-2.10","match_key":"l","participant_id":"COGS219_2020_01","correct":true},{"rt":null,"stimulus":"Sounds/correct.wav","key_press":null,"block":1,"trial_type":"audio-keyboard-response","trial_index":95,"time_elapsed":2522234,"internal_node_id":"0.0-13.0-3.10","match_key":"l","participant_id":"COGS219_2020_01"},{"rt":null,"stimulus":"Sounds/dog_sound.wav","key_press":null,"block":1,"trial_type":"audio-keyboard-response","trial_index":96,"time_elapsed":2522920,"internal_node_id":"0.0-13.0-0.11","match_key":"l","participant_id":"COGS219_2020_01"},{"rt":null,"stimulus":"<p style=\"font-size: 48px;\">+</p>","key_press":null,"block":1,"trial_type":"html-keyboard-response","trial_index":97,"time_elapsed":2523913,"internal_node_id":"0.0-13.0-1.11","match_key":"l","participant_id":"COGS219_2020_01"},{"rt":625.034999975469,"stimulus":"Images/car_2.png","key_press":65,"stim_onset":1581180380499,"block":1,"match_type":"non-match","image_category":"car","sound_category":"dog","audio_type":"sound","phase":"test","trial_type":"image-keyboard-response","trial_index":98,"time_elapsed":2524539,"internal_node_id":"0.0-13.0-2.11","match_key":"l","participant_id":"COGS219_2020_01","correct":true},{"rt":null,"stimulus":"Sounds/correct.wav","key_press":null,"block":1,"trial_type":"audio-keyboard-response","trial_index":99,"time_elapsed":2526551,"internal_node_id":"0.0-13.0-3.11","match_key":"l","participant_id":"COGS219_2020_01"},{"rt":null,"stimulus":"Sounds/car_label.wav","key_press":null,"block":1,"trial_type":"audio-keyboard-response","trial_index":100,"time_elapsed":2527640,"internal_node_id":"0.0-13.0-0.12","match_key":"l","participant_id":"COGS219_2020_01"},{"rt":null,"stimulus":"<p style=\"font-size: 48px;\">+</p>","key_press":null,"block":1,"trial_type":"html-keyboard-response","trial_index":101,"time_elapsed":2528630,"internal_node_id":"0.0-13.0-1.12","match_key":"l","participant_id":"COGS219_2020_01"},{"rt":868.625000002794,"stimulus":"Images/car_cartoon.png","key_press":76,"stim_onset":1581180385215,"block":1,"match_type":"match","image_category":"car","sound_category":"car","audio_type":"label","phase":"test","trial_type":"image-keyboard-response","trial_index":102,"time_elapsed":2529500,"internal_node_id":"0.0-13.0-2.12","match_key":"l","participant_id":"COGS219_2020_01","correct":true},{"rt":null,"stimulus":"Sounds/correct.wav","key_press":null,"block":1,"trial_type":"audio-keyboard-response","trial_index":103,"time_elapsed":2531505,"internal_node_id":"0.0-13.0-3.12","match_key":"l","participant_id":"COGS219_2020_01"},{"rt":null,"stimulus":"Sounds/dog_sound.wav","key_press":null,"block":1,"trial_type":"audio-keyboard-response","trial_index":104,"time_elapsed":2532200,"internal_node_id":"0.0-13.0-0.13","match_key":"l","participant_id":"COGS219_2020_01"},{"rt":null,"stimulus":"<p style=\"font-size: 48px;\">+</p>","key_press":null,"block":1,"trial_type":"html-keyboard-response","trial_index":105,"time_elapsed":2533197,"internal_node_id":"0.0-13.0-1.13","match_key":"l","participant_id":"COGS219_2020_01"},{"rt":861.3499999628402,"stimulus":"Images/dog_2.png","key_press":76,"stim_onset":1581180389782,"block":1,"match_type":"match","image_category":"dog","sound_category":"dog","audio_type":"sound","phase":"test","trial_type":"image-keyboard-response","trial_index":106,"time_elapsed":2534059,"internal_node_id":"0.0-13.0-2.13","match_key":"l","participant_id":"COGS219_2020_01","correct":true},{"rt":null,"stimulus":"Sounds/correct.wav","key_press":null,"block":1,"trial_type":"audio-keyboard-response","trial_index":107,"time_elapsed":2536070,"internal_node_id":"0.0-13.0-3.13","match_key":"l","participant_id":"COGS219_2020_01"},{"rt":null,"stimulus":"Sounds/frog_sound.wav","key_press":null,"block":1,"trial_type":"audio-keyboard-response","trial_index":108,"time_elapsed":2536980,"internal_node_id":"0.0-13.0-0.14","match_key":"l","participant_id":"COGS219_2020_01"},{"rt":null,"stimulus":"<p style=\"font-size: 48px;\">+</p>","key_press":null,"block":1,"trial_type":"html-keyboard-response","trial_index":109,"time_elapsed":2537980,"internal_node_id":"0.0-13.0-1.14","match_key":"l","participant_id":"COGS219_2020_01"},{"rt":494.03499998152256,"stimulus":"Images/frog_orig.png","key_press":76,"stim_onset":1581180394565,"block":1,"match_type":"match","image_category":"frog","sound_category":"frog","audio_type":"sound","phase":"test","trial_type":"image-keyboard-response","trial_index":110,"time_elapsed":2538475,"internal_node_id":"0.0-13.0-2.14","match_key":"l","participant_id":"COGS219_2020_01","correct":true},{"rt":null,"stimulus":"Sounds/correct.wav","key_press":null,"block":1,"trial_type":"audio-keyboard-response","trial_index":111,"time_elapsed":2540483,"internal_node_id":"0.0-13.0-3.14","match_key":"l","participant_id":"COGS219_2020_01"},{"rt":null,"stimulus":"Sounds/cow_sound.wav","key_press":null,"block":1,"trial_type":"audio-keyboard-response","trial_index":112,"time_elapsed":2541500,"internal_node_id":"0.0-13.0-0.15","match_key":"l","participant_id":"COGS219_2020_01"},{"rt":null,"stimulus":"<p style=\"font-size: 48px;\">+</p>","key_press":null,"block":1,"trial_type":"html-keyboard-response","trial_index":113,"time_elapsed":2542497,"internal_node_id":"0.0-13.0-1.15","match_key":"l","participant_id":"COGS219_2020_01"},{"rt":569.6900000330061,"stimulus":"Images/rooster_orig.png","key_press":65,"stim_onset":1581180399082,"block":1,"match_type":"non-match","image_category":"rooster","sound_category":"cow","audio_type":"sound","phase":"test","trial_type":"image-keyboard-response","trial_index":114,"time_elapsed":2543068,"internal_node_id":"0.0-13.0-2.15","match_key":"l","participant_id":"COGS219_2020_01","correct":true},{"rt":null,"stimulus":"Sounds/correct.wav","key_press":null,"block":1,"trial_type":"audio-keyboard-response","trial_index":115,"time_elapsed":2545070,"internal_node_id":"0.0-13.0-3.15","match_key":"l","participant_id":"COGS219_2020_01"},{"rt":null,"stimulus":"Sounds/cat_sound.wav","key_press":null,"block":1,"trial_type":"audio-keyboard-response","trial_index":116,"time_elapsed":2545900,"internal_node_id":"0.0-13.0-0.16","match_key":"l","participant_id":"COGS219_2020_01"},{"rt":null,"stimulus":"<p style=\"font-size: 48px;\">+</p>","key_press":null,"block":1,"trial_type":"html-keyboard-response","trial_index":117,"time_elapsed":2546897,"internal_node_id":"0.0-13.0-1.16","match_key":"l","participant_id":"COGS219_2020_01"},{"rt":457.50000001862645,"stimulus":"Images/motorcycle_3.png","key_press":65,"stim_onset":1581180403482,"block":1,"match_type":"non-match","image_category":"motorcycle","sound_category":"cat","audio_type":"sound","phase":"test","trial_type":"image-keyboard-response","trial_index":118,"time_elapsed":2547355,"internal_node_id":"0.0-13.0-2.16","match_key":"l","participant_id":"COGS219_2020_01","correct":true},{"rt":null,"stimulus":"Sounds/correct.wav","key_press":null,"block":1,"trial_type":"audio-keyboard-response","trial_index":119,"time_elapsed":2549368,"internal_node_id":"0.0-13.0-3.16","match_key":"l","participant_id":"COGS219_2020_01"},{"rt":null,"stimulus":"Sounds/frog_sound.wav","key_press":null,"block":1,"trial_type":"audio-keyboard-response","trial_index":120,"time_elapsed":2550260,"internal_node_id":"0.0-13.0-0.17","match_key":"l","participant_id":"COGS219_2020_01"},{"rt":null,"stimulus":"<p style=\"font-size: 48px;\">+</p>","key_press":null,"block":1,"trial_type":"html-keyboard-response","trial_index":121,"time_elapsed":2551264,"internal_node_id":"0.0-13.0-1.17","match_key":"l","participant_id":"COGS219_2020_01"},{"rt":714.6349999820814,"stimulus":"Images/frog_2.png","key_press":76,"stim_onset":1581180407849,"block":1,"match_type":"match","image_category":"frog","sound_category":"frog","audio_type":"sound","phase":"test","trial_type":"image-keyboard-response","trial_index":122,"time_elapsed":2551980,"internal_node_id":"0.0-13.0-2.17","match_key":"l","participant_id":"COGS219_2020_01","correct":true},{"rt":null,"stimulus":"Sounds/correct.wav","key_press":null,"block":1,"trial_type":"audio-keyboard-response","trial_index":123,"time_elapsed":2553987,"internal_node_id":"0.0-13.0-3.17","match_key":"l","participant_id":"COGS219_2020_01"},{"rt":null,"stimulus":"Sounds/rooster_sound.wav","key_press":null,"block":1,"trial_type":"audio-keyboard-response","trial_index":124,"time_elapsed":2554680,"internal_node_id":"0.0-13.0-0.18","match_key":"l","participant_id":"COGS219_2020_01"},{"rt":null,"stimulus":"<p style=\"font-size: 48px;\">+</p>","key_press":null,"block":1,"trial_type":"html-keyboard-response","trial_index":125,"time_elapsed":2555680,"internal_node_id":"0.0-13.0-1.18","match_key":"l","participant_id":"COGS219_2020_01"},{"rt":1130.3049999987707,"stimulus":"Images/whistle_cartoon.png","key_press":65,"stim_onset":1581180412266,"block":1,"match_type":"non-match","image_category":"whistle","sound_category":"rooster","audio_type":"sound","phase":"test","trial_type":"image-keyboard-response","trial_index":126,"time_elapsed":2556812,"internal_node_id":"0.0-13.0-2.18","match_key":"l","participant_id":"COGS219_2020_01","correct":true},{"rt":null,"stimulus":"Sounds/correct.wav","key_press":null,"block":1,"trial_type":"audio-keyboard-response","trial_index":127,"time_elapsed":2558819,"internal_node_id":"0.0-13.0-3.18","match_key":"l","participant_id":"COGS219_2020_01"},{"rt":null,"stimulus":"Sounds/train_label.wav","key_press":null,"block":1,"trial_type":"audio-keyboard-response","trial_index":128,"time_elapsed":2560100,"internal_node_id":"0.0-13.0-0.19","match_key":"l","participant_id":"COGS219_2020_01"},{"rt":null,"stimulus":"<p style=\"font-size: 48px;\">+</p>","key_press":null,"block":1,"trial_type":"html-keyboard-response","trial_index":129,"time_elapsed":2561097,"internal_node_id":"0.0-13.0-1.19","match_key":"l","participant_id":"COGS219_2020_01"},{"rt":945.4300000215881,"stimulus":"Images/whistle_2.png","key_press":65,"stim_onset":1581180417682,"block":1,"match_type":"non-match","image_category":"whistle","sound_category":"train","audio_type":"label","phase":"test","trial_type":"image-keyboard-response","trial_index":130,"time_elapsed":2562044,"internal_node_id":"0.0-13.0-2.19","match_key":"l","participant_id":"COGS219_2020_01","correct":true},{"rt":null,"stimulus":"Sounds/correct.wav","key_press":null,"block":1,"trial_type":"audio-keyboard-response","trial_index":131,"time_elapsed":2564055,"internal_node_id":"0.0-13.0-3.19","match_key":"l","participant_id":"COGS219_2020_01"},{"rt":null,"stimulus":"Sounds/cat_sound.wav","key_press":null,"block":1,"trial_type":"audio-keyboard-response","trial_index":132,"time_elapsed":2564880,"internal_node_id":"0.0-13.0-0.20","match_key":"l","participant_id":"COGS219_2020_01"},{"rt":null,"stimulus":"<p style=\"font-size: 48px;\">+</p>","key_press":null,"block":1,"trial_type":"html-keyboard-response","trial_index":133,"time_elapsed":2565897,"internal_node_id":"0.0-13.0-1.20","match_key":"l","participant_id":"COGS219_2020_01"},{"rt":609.195000026375,"stimulus":"Images/cat_orig.png","key_press":76,"stim_onset":1581180422482,"block":1,"match_type":"match","image_category":"cat","sound_category":"cat","audio_type":"sound","phase":"test","trial_type":"image-keyboard-response","trial_index":134,"time_elapsed":2566507,"internal_node_id":"0.0-13.0-2.20","match_key":"l","participant_id":"COGS219_2020_01","correct":true},{"rt":null,"stimulus":"Sounds/correct.wav","key_press":null,"block":1,"trial_type":"audio-keyboard-response","trial_index":135,"time_elapsed":2568517,"internal_node_id":"0.0-13.0-3.20","match_key":"l","participant_id":"COGS219_2020_01"},{"rt":null,"stimulus":"Sounds/motorcycle_label.wav","key_press":null,"block":1,"trial_type":"audio-keyboard-response","trial_index":136,"time_elapsed":2569660,"internal_node_id":"0.0-13.0-0.21","match_key":"l","participant_id":"COGS219_2020_01"},{"rt":null,"stimulus":"<p style=\"font-size: 48px;\">+</p>","key_press":null,"block":1,"trial_type":"html-keyboard-response","trial_index":137,"time_elapsed":2570664,"internal_node_id":"0.0-13.0-1.21","match_key":"l","participant_id":"COGS219_2020_01"},{"rt":625.5750000127591,"stimulus":"Images/motorcycle_orig.png","key_press":76,"stim_onset":1581180427249,"block":1,"match_type":"match","image_category":"motorcycle","sound_category":"motorcycle","audio_type":"label","phase":"test","trial_type":"image-keyboard-response","trial_index":138,"time_elapsed":2571291,"internal_node_id":"0.0-13.0-2.21","match_key":"l","participant_id":"COGS219_2020_01","correct":true},{"rt":null,"stimulus":"Sounds/correct.wav","key_press":null,"block":1,"trial_type":"audio-keyboard-response","trial_index":139,"time_elapsed":2573301,"internal_node_id":"0.0-13.0-3.21","match_key":"l","participant_id":"COGS219_2020_01"},{"rt":null,"stimulus":"Sounds/car_sound.wav","key_press":null,"block":1,"trial_type":"audio-keyboard-response","trial_index":140,"time_elapsed":2574380,"internal_node_id":"0.0-13.0-0.22","match_key":"l","participant_id":"COGS219_2020_01"},{"rt":null,"stimulus":"<p style=\"font-size: 48px;\">+</p>","key_press":null,"block":1,"trial_type":"html-keyboard-response","trial_index":141,"time_elapsed":2575396,"internal_node_id":"0.0-13.0-1.22","match_key":"l","participant_id":"COGS219_2020_01"},{"rt":2421.0800000000745,"stimulus":"Images/cow_1.png","key_press":65,"stim_onset":1581180431982,"block":1,"match_type":"non-match","image_category":"cow","sound_category":"car","audio_type":"sound","phase":"test","trial_type":"image-keyboard-response","trial_index":142,"time_elapsed":2577818,"internal_node_id":"0.0-13.0-2.22","match_key":"l","participant_id":"COGS219_2020_01","correct":true},{"rt":null,"stimulus":"Sounds/correct.wav","key_press":null,"block":1,"trial_type":"audio-keyboard-response","trial_index":143,"time_elapsed":2579822,"internal_node_id":"0.0-13.0-3.22","match_key":"l","participant_id":"COGS219_2020_01"},{"rt":null,"stimulus":"Sounds/frog_sound.wav","key_press":null,"block":1,"trial_type":"audio-keyboard-response","trial_index":144,"time_elapsed":2580739,"internal_node_id":"0.0-13.0-0.23","match_key":"l","participant_id":"COGS219_2020_01"},{"rt":null,"stimulus":"<p style=\"font-size: 48px;\">+</p>","key_press":null,"block":1,"trial_type":"html-keyboard-response","trial_index":145,"time_elapsed":2581730,"internal_node_id":"0.0-13.0-1.23","match_key":"l","participant_id":"COGS219_2020_01"},{"rt":856.1650000046939,"stimulus":"Images/rooster_3.png","key_press":65,"stim_onset":1581180438315,"block":1,"match_type":"non-match","image_category":"rooster","sound_category":"frog","audio_type":"sound","phase":"test","trial_type":"image-keyboard-response","trial_index":146,"time_elapsed":2582589,"internal_node_id":"0.0-13.0-2.23","match_key":"l","participant_id":"COGS219_2020_01","correct":true},{"rt":null,"stimulus":"Sounds/correct.wav","key_press":null,"block":1,"trial_type":"audio-keyboard-response","trial_index":147,"time_elapsed":2584599,"internal_node_id":"0.0-13.0-3.23","match_key":"l","participant_id":"COGS219_2020_01"},{"rt":null,"stimulus":"Sounds/frog_label.wav","key_press":null,"block":1,"trial_type":"audio-keyboard-response","trial_index":148,"time_elapsed":2585499,"internal_node_id":"0.0-13.0-0.24","match_key":"l","participant_id":"COGS219_2020_01"},{"rt":null,"stimulus":"<p style=\"font-size: 48px;\">+</p>","key_press":null,"block":1,"trial_type":"html-keyboard-response","trial_index":149,"time_elapsed":2586496,"internal_node_id":"0.0-13.0-1.24","match_key":"l","participant_id":"COGS219_2020_01"},{"rt":1176.964999991469,"stimulus":"Images/frog_1.png","key_press":76,"stim_onset":1581180443082,"block":1,"match_type":"match","image_category":"frog","sound_category":"frog","audio_type":"label","phase":"test","trial_type":"image-keyboard-response","trial_index":150,"time_elapsed":2587674,"internal_node_id":"0.0-13.0-2.24","match_key":"l","participant_id":"COGS219_2020_01","correct":true},{"rt":null,"stimulus":"Sounds/correct.wav","key_press":null,"block":1,"trial_type":"audio-keyboard-response","trial_index":151,"time_elapsed":2589683,"internal_node_id":"0.0-13.0-3.24","match_key":"l","participant_id":"COGS219_2020_01"},{"rt":null,"stimulus":"Sounds/cow_label.wav","key_press":null,"block":1,"trial_type":"audio-keyboard-response","trial_index":152,"time_elapsed":2590699,"internal_node_id":"0.0-13.0-0.25","match_key":"l","participant_id":"COGS219_2020_01"},{"rt":null,"stimulus":"<p style=\"font-size: 48px;\">+</p>","key_press":null,"block":1,"trial_type":"html-keyboard-response","trial_index":153,"time_elapsed":2591697,"internal_node_id":"0.0-13.0-1.25","match_key":"l","participant_id":"COGS219_2020_01"},{"rt":697.0999999903142,"stimulus":"Images/cow_orig.png","key_press":76,"stim_onset":1581180448282,"block":1,"match_type":"match","image_category":"cow","sound_category":"cow","audio_type":"label","phase":"test","trial_type":"image-keyboard-response","trial_index":154,"time_elapsed":2592395,"internal_node_id":"0.0-13.0-2.25","match_key":"l","participant_id":"COGS219_2020_01","correct":true},{"rt":null,"stimulus":"Sounds/correct.wav","key_press":null,"block":1,"trial_type":"audio-keyboard-response","trial_index":155,"time_elapsed":2594402,"internal_node_id":"0.0-13.0-3.25","match_key":"l","participant_id":"COGS219_2020_01"},{"rt":null,"stimulus":"Sounds/train_sound.wav","key_press":null,"block":1,"trial_type":"audio-keyboard-response","trial_index":156,"time_elapsed":2595699,"internal_node_id":"0.0-13.0-0.26","match_key":"l","participant_id":"COGS219_2020_01"},{"rt":null,"stimulus":"<p style=\"font-size: 48px;\">+</p>","key_press":null,"block":1,"trial_type":"html-keyboard-response","trial_index":157,"time_elapsed":2596697,"internal_node_id":"0.0-13.0-1.26","match_key":"l","participant_id":"COGS219_2020_01"},{"rt":1152.364999987185,"stimulus":"Images/gun_2.png","key_press":65,"stim_onset":1581180453282,"block":1,"match_type":"non-match","image_category":"gun","sound_category":"train","audio_type":"sound","phase":"test","trial_type":"image-keyboard-response","trial_index":158,"time_elapsed":2597851,"internal_node_id":"0.0-13.0-2.26","match_key":"l","participant_id":"COGS219_2020_01","correct":true},{"rt":null,"stimulus":"Sounds/correct.wav","key_press":null,"block":1,"trial_type":"audio-keyboard-response","trial_index":159,"time_elapsed":2599867,"internal_node_id":"0.0-13.0-3.26","match_key":"l","participant_id":"COGS219_2020_01"},{"rt":null,"stimulus":"Sounds/whistle_label.wav","key_press":null,"block":1,"trial_type":"audio-keyboard-response","trial_index":160,"time_elapsed":2600579,"internal_node_id":"0.0-13.0-0.27","match_key":"l","participant_id":"COGS219_2020_01"},{"rt":null,"stimulus":"<p style=\"font-size: 48px;\">+</p>","key_press":null,"block":1,"trial_type":"html-keyboard-response","trial_index":161,"time_elapsed":2601597,"internal_node_id":"0.0-13.0-1.27","match_key":"l","participant_id":"COGS219_2020_01"},{"rt":492.8000000072643,"stimulus":"Images/whistle_orig.png","key_press":76,"stim_onset":1581180458182,"block":1,"match_type":"match","image_category":"whistle","sound_category":"whistle","audio_type":"label","phase":"test","trial_type":"image-keyboard-response","trial_index":162,"time_elapsed":2602091,"internal_node_id":"0.0-13.0-2.27","match_key":"l","participant_id":"COGS219_2020_01","correct":true},{"rt":null,"stimulus":"Sounds/correct.wav","key_press":null,"block":1,"trial_type":"audio-keyboard-response","trial_index":163,"time_elapsed":2604100,"internal_node_id":"0.0-13.0-3.27","match_key":"l","participant_id":"COGS219_2020_01"},{"rt":null,"stimulus":"Sounds/cow_sound.wav","key_press":null,"block":1,"trial_type":"audio-keyboard-response","trial_index":164,"time_elapsed":2605119,"internal_node_id":"0.0-13.0-0.28","match_key":"l","participant_id":"COGS219_2020_01"},{"rt":null,"stimulus":"<p style=\"font-size: 48px;\">+</p>","key_press":null,"block":1,"trial_type":"html-keyboard-response","trial_index":165,"time_elapsed":2606113,"internal_node_id":"0.0-13.0-1.28","match_key":"l","participant_id":"COGS219_2020_01"},{"rt":792.1249999781139,"stimulus":"Images/cat_3.png","key_press":65,"stim_onset":1581180462698,"block":1,"match_type":"non-match","image_category":"cat","sound_category":"cow","audio_type":"sound","phase":"test","trial_type":"image-keyboard-response","trial_index":166,"time_elapsed":2606907,"internal_node_id":"0.0-13.0-2.28","match_key":"l","participant_id":"COGS219_2020_01","correct":true},{"rt":null,"stimulus":"Sounds/correct.wav","key_press":null,"block":1,"trial_type":"audio-keyboard-response","trial_index":167,"time_elapsed":2608916,"internal_node_id":"0.0-13.0-3.28","match_key":"l","participant_id":"COGS219_2020_01"},{"rt":null,"stimulus":"Sounds/motorcycle_sound.wav","key_press":null,"block":1,"trial_type":"audio-keyboard-response","trial_index":168,"time_elapsed":2610039,"internal_node_id":"0.0-13.0-0.29","match_key":"l","participant_id":"COGS219_2020_01"},{"rt":null,"stimulus":"<p style=\"font-size: 48px;\">+</p>","key_press":null,"block":1,"trial_type":"html-keyboard-response","trial_index":169,"time_elapsed":2611030,"internal_node_id":"0.0-13.0-1.29","match_key":"l","participant_id":"COGS219_2020_01"},{"rt":1731.690000044182,"stimulus":"Images/motorcycle_1.png","key_press":76,"stim_onset":1581180467615,"block":1,"match_type":"match","image_category":"motorcycle","sound_category":"motorcycle","audio_type":"sound","phase":"test","trial_type":"image-keyboard-response","trial_index":170,"time_elapsed":2612763,"internal_node_id":"0.0-13.0-2.29","match_key":"l","participant_id":"COGS219_2020_01","correct":true},{"rt":null,"stimulus":"Sounds/correct.wav","key_press":null,"block":1,"trial_type":"audio-keyboard-response","trial_index":171,"time_elapsed":2614769,"internal_node_id":"0.0-13.0-3.29","match_key":"l","participant_id":"COGS219_2020_01"},{"rt":null,"stimulus":"Sounds/gun_label.wav","key_press":null,"block":1,"trial_type":"audio-keyboard-response","trial_index":172,"time_elapsed":2615359,"internal_node_id":"0.0-13.0-0.30","match_key":"l","participant_id":"COGS219_2020_01"},{"rt":null,"stimulus":"<p style=\"font-size: 48px;\">+</p>","key_press":null,"block":1,"trial_type":"html-keyboard-response","trial_index":173,"time_elapsed":2616364,"internal_node_id":"0.0-13.0-1.30","match_key":"l","participant_id":"COGS219_2020_01"},{"rt":621.7399999732152,"stimulus":"Images/gun_cartoon.png","key_press":76,"stim_onset":1581180472949,"block":1,"match_type":"match","image_category":"gun","sound_category":"gun","audio_type":"label","phase":"test","trial_type":"image-keyboard-response","trial_index":174,"time_elapsed":2616987,"internal_node_id":"0.0-13.0-2.30","match_key":"l","participant_id":"COGS219_2020_01","correct":true},{"rt":null,"stimulus":"Sounds/correct.wav","key_press":null,"block":1,"trial_type":"audio-keyboard-response","trial_index":175,"time_elapsed":2619001,"internal_node_id":"0.0-13.0-3.30","match_key":"l","participant_id":"COGS219_2020_01"},{"rt":null,"stimulus":"Sounds/motorcycle_label.wav","key_press":null,"block":1,"trial_type":"audio-keyboard-response","trial_index":176,"time_elapsed":2620139,"internal_node_id":"0.0-13.0-0.31","match_key":"l","participant_id":"COGS219_2020_01"},{"rt":null,"stimulus":"<p style=\"font-size: 48px;\">+</p>","key_press":null,"block":1,"trial_type":"html-keyboard-response","trial_index":177,"time_elapsed":2621130,"internal_node_id":"0.0-13.0-1.31","match_key":"l","participant_id":"COGS219_2020_01"},{"rt":607.6900000334717,"stimulus":"Images/cat_2.png","key_press":65,"stim_onset":1581180477715,"block":1,"match_type":"non-match","image_category":"cat","sound_category":"motorcycle","audio_type":"label","phase":"test","trial_type":"image-keyboard-response","trial_index":178,"time_elapsed":2621739,"internal_node_id":"0.0-13.0-2.31","match_key":"l","participant_id":"COGS219_2020_01","correct":true},{"rt":null,"stimulus":"Sounds/correct.wav","key_press":null,"block":1,"trial_type":"audio-keyboard-response","trial_index":179,"time_elapsed":2623751,"internal_node_id":"0.0-13.0-3.31","match_key":"l","participant_id":"COGS219_2020_01"},{"rt":null,"stimulus":"Sounds/frog_sound.wav","key_press":null,"block":1,"trial_type":"audio-keyboard-response","trial_index":180,"time_elapsed":2624659,"internal_node_id":"0.0-13.0-0.32","match_key":"l","participant_id":"COGS219_2020_01"},{"rt":null,"stimulus":"<p style=\"font-size: 48px;\">+</p>","key_press":null,"block":1,"trial_type":"html-keyboard-response","trial_index":181,"time_elapsed":2625664,"internal_node_id":"0.0-13.0-1.32","match_key":"l","participant_id":"COGS219_2020_01"},{"rt":586.0349999857135,"stimulus":"Images/frog_cartoon.png","key_press":76,"stim_onset":1581180482249,"block":1,"match_type":"match","image_category":"frog","sound_category":"frog","audio_type":"sound","phase":"test","trial_type":"image-keyboard-response","trial_index":182,"time_elapsed":2626251,"internal_node_id":"0.0-13.0-2.32","match_key":"l","participant_id":"COGS219_2020_01","correct":true},{"rt":null,"stimulus":"Sounds/correct.wav","key_press":null,"block":1,"trial_type":"audio-keyboard-response","trial_index":183,"time_elapsed":2628255,"internal_node_id":"0.0-13.0-3.32","match_key":"l","participant_id":"COGS219_2020_01"},{"rt":null,"stimulus":"Sounds/cat_label.wav","key_press":null,"block":1,"trial_type":"audio-keyboard-response","trial_index":184,"time_elapsed":2629099,"internal_node_id":"0.0-13.0-0.33","match_key":"l","participant_id":"COGS219_2020_01"},{"rt":null,"stimulus":"<p style=\"font-size: 48px;\">+</p>","key_press":null,"block":1,"trial_type":"html-keyboard-response","trial_index":185,"time_elapsed":2630097,"internal_node_id":"0.0-13.0-1.33","match_key":"l","participant_id":"COGS219_2020_01"},{"rt":664.4349999842234,"stimulus":"Images/cat_cartoon.png","key_press":76,"stim_onset":1581180486682,"block":1,"match_type":"match","image_category":"cat","sound_category":"cat","audio_type":"label","phase":"test","trial_type":"image-keyboard-response","trial_index":186,"time_elapsed":2630763,"internal_node_id":"0.0-13.0-2.33","match_key":"l","participant_id":"COGS219_2020_01","correct":true},{"rt":null,"stimulus":"Sounds/correct.wav","key_press":null,"block":1,"trial_type":"audio-keyboard-response","trial_index":187,"time_elapsed":2632772,"internal_node_id":"0.0-13.0-3.33","match_key":"l","participant_id":"COGS219_2020_01"},{"rt":null,"stimulus":"Sounds/motorcycle_label.wav","key_press":null,"block":1,"trial_type":"audio-keyboard-response","trial_index":188,"time_elapsed":2633879,"internal_node_id":"0.0-13.0-0.34","match_key":"l","participant_id":"COGS219_2020_01"},{"rt":null,"stimulus":"<p style=\"font-size: 48px;\">+</p>","key_press":null,"block":1,"trial_type":"html-keyboard-response","trial_index":189,"time_elapsed":2634897,"internal_node_id":"0.0-13.0-1.34","match_key":"l","participant_id":"COGS219_2020_01"},{"rt":600.5550000118092,"stimulus":"Images/dog_cartoon.png","key_press":65,"stim_onset":1581180491482,"block":1,"match_type":"non-match","image_category":"dog","sound_category":"motorcycle","audio_type":"label","phase":"test","trial_type":"image-keyboard-response","trial_index":190,"time_elapsed":2635498,"internal_node_id":"0.0-13.0-2.34","match_key":"l","participant_id":"COGS219_2020_01","correct":true},{"rt":null,"stimulus":"Sounds/correct.wav","key_press":null,"block":1,"trial_type":"audio-keyboard-response","trial_index":191,"time_elapsed":2637503,"internal_node_id":"0.0-13.0-3.34","match_key":"l","participant_id":"COGS219_2020_01"},{"rt":null,"stimulus":"Sounds/cow_sound.wav","key_press":null,"block":1,"trial_type":"audio-keyboard-response","trial_index":192,"time_elapsed":2638518,"internal_node_id":"0.0-13.0-0.35","match_key":"l","participant_id":"COGS219_2020_01"},{"rt":null,"stimulus":"<p style=\"font-size: 48px;\">+</p>","key_press":null,"block":1,"trial_type":"html-keyboard-response","trial_index":193,"time_elapsed":2639513,"internal_node_id":"0.0-13.0-1.35","match_key":"l","participant_id":"COGS219_2020_01"},{"rt":1614.4750000094064,"stimulus":"Images/motorcycle_orig.png","key_press":65,"stim_onset":1581180496098,"block":1,"match_type":"non-match","image_category":"motorcycle","sound_category":"cow","audio_type":"sound","phase":"test","trial_type":"image-keyboard-response","trial_index":194,"time_elapsed":2641130,"internal_node_id":"0.0-13.0-2.35","match_key":"l","participant_id":"COGS219_2020_01","correct":true},{"rt":null,"stimulus":"Sounds/correct.wav","key_press":null,"block":1,"trial_type":"audio-keyboard-response","trial_index":195,"time_elapsed":2643137,"internal_node_id":"0.0-13.0-3.35","match_key":"l","participant_id":"COGS219_2020_01"},{"rt":null,"stimulus":"Sounds/cat_sound.wav","key_press":null,"block":1,"trial_type":"audio-keyboard-response","trial_index":196,"time_elapsed":2643978,"internal_node_id":"0.0-13.0-0.36","match_key":"l","participant_id":"COGS219_2020_01"},{"rt":null,"stimulus":"<p style=\"font-size: 48px;\">+</p>","key_press":null,"block":1,"trial_type":"html-keyboard-response","trial_index":197,"time_elapsed":2644996,"internal_node_id":"0.0-13.0-1.36","match_key":"l","participant_id":"COGS219_2020_01"},{"rt":660.4550000047311,"stimulus":"Images/cat_2.png","key_press":65,"stim_onset":1581180501582,"block":1,"match_type":"match","image_category":"cat","sound_category":"cat","audio_type":"sound","phase":"test","trial_type":"image-keyboard-response","trial_index":198,"time_elapsed":2645658,"internal_node_id":"0.0-13.0-2.36","match_key":"l","participant_id":"COGS219_2020_01","correct":false},{"rt":null,"stimulus":"Sounds/incorrect.wav","key_press":null,"block":1,"trial_type":"audio-keyboard-response","trial_index":199,"time_elapsed":2647665,"internal_node_id":"0.0-13.0-3.36","match_key":"l","participant_id":"COGS219_2020_01"},{"rt":null,"stimulus":"Sounds/cat_label.wav","key_press":null,"block":1,"trial_type":"audio-keyboard-response","trial_index":200,"time_elapsed":2648498,"internal_node_id":"0.0-13.0-0.37","match_key":"l","participant_id":"COGS219_2020_01"},{"rt":null,"stimulus":"<p style=\"font-size: 48px;\">+</p>","key_press":null,"block":1,"trial_type":"html-keyboard-response","trial_index":201,"time_elapsed":2649497,"internal_node_id":"0.0-13.0-1.37","match_key":"l","participant_id":"COGS219_2020_01"},{"rt":560.3200000477955,"stimulus":"Images/cat_3.png","key_press":76,"stim_onset":1581180506081,"block":1,"match_type":"match","image_category":"cat","sound_category":"cat","audio_type":"label","phase":"test","trial_type":"image-keyboard-response","trial_index":202,"time_elapsed":2650058,"internal_node_id":"0.0-13.0-2.37","match_key":"l","participant_id":"COGS219_2020_01","correct":true},{"rt":null,"stimulus":"Sounds/correct.wav","key_press":null,"block":1,"trial_type":"audio-keyboard-response","trial_index":203,"time_elapsed":2652068,"internal_node_id":"0.0-13.0-3.37","match_key":"l","participant_id":"COGS219_2020_01"},{"rt":null,"stimulus":"Sounds/car_sound.wav","key_press":null,"block":1,"trial_type":"audio-keyboard-response","trial_index":204,"time_elapsed":2653158,"internal_node_id":"0.0-13.0-0.38","match_key":"l","participant_id":"COGS219_2020_01"},{"rt":null,"stimulus":"<p style=\"font-size: 48px;\">+</p>","key_press":null,"block":1,"trial_type":"html-keyboard-response","trial_index":205,"time_elapsed":2654163,"internal_node_id":"0.0-13.0-1.38","match_key":"l","participant_id":"COGS219_2020_01"},{"rt":1029.964999994263,"stimulus":"Images/car_1.png","key_press":76,"stim_onset":1581180510748,"block":1,"match_type":"match","image_category":"car","sound_category":"car","audio_type":"sound","phase":"test","trial_type":"image-keyboard-response","trial_index":206,"time_elapsed":2655194,"internal_node_id":"0.0-13.0-2.38","match_key":"l","participant_id":"COGS219_2020_01","correct":true},{"rt":null,"stimulus":"Sounds/correct.wav","key_press":null,"block":1,"trial_type":"audio-keyboard-response","trial_index":207,"time_elapsed":2657208,"internal_node_id":"0.0-13.0-3.38","match_key":"l","participant_id":"COGS219_2020_01"},{"rt":null,"stimulus":"Sounds/cow_label.wav","key_press":null,"block":1,"trial_type":"audio-keyboard-response","trial_index":208,"time_elapsed":2658218,"internal_node_id":"0.0-13.0-0.39","match_key":"l","participant_id":"COGS219_2020_01"},{"rt":null,"stimulus":"<p style=\"font-size: 48px;\">+</p>","key_press":null,"block":1,"trial_type":"html-keyboard-response","trial_index":209,"time_elapsed":2659213,"internal_node_id":"0.0-13.0-1.39","match_key":"l","participant_id":"COGS219_2020_01"},{"rt":875.6750000175089,"stimulus":"Images/car_1.png","key_press":65,"stim_onset":1581180515798,"block":1,"match_type":"non-match","image_category":"car","sound_category":"cow","audio_type":"label","phase":"test","trial_type":"image-keyboard-response","trial_index":210,"time_elapsed":2660090,"internal_node_id":"0.0-13.0-2.39","match_key":"l","participant_id":"COGS219_2020_01","correct":true},{"rt":null,"stimulus":"Sounds/correct.wav","key_press":null,"block":1,"trial_type":"audio-keyboard-response","trial_index":211,"time_elapsed":2662100,"internal_node_id":"0.0-13.0-3.39","match_key":"l","participant_id":"COGS219_2020_01"},{"rt":null,"stimulus":"Sounds/whistle_label.wav","key_press":null,"block":1,"trial_type":"audio-keyboard-response","trial_index":212,"time_elapsed":2662798,"internal_node_id":"0.0-13.0-0.40","match_key":"l","participant_id":"COGS219_2020_01"},{"rt":null,"stimulus":"<p style=\"font-size: 48px;\">+</p>","key_press":null,"block":1,"trial_type":"html-keyboard-response","trial_index":213,"time_elapsed":2663797,"internal_node_id":"0.0-13.0-1.40","match_key":"l","participant_id":"COGS219_2020_01"},{"rt":468.11000001616776,"stimulus":"Images/whistle_cartoon.png","key_press":76,"stim_onset":1581180520382,"block":1,"match_type":"match","image_category":"whistle","sound_category":"whistle","audio_type":"label","phase":"test","trial_type":"image-keyboard-response","trial_index":214,"time_elapsed":2664266,"internal_node_id":"0.0-13.0-2.40","match_key":"l","participant_id":"COGS219_2020_01","correct":true},{"rt":null,"stimulus":"Sounds/correct.wav","key_press":null,"block":1,"trial_type":"audio-keyboard-response","trial_index":215,"time_elapsed":2666270,"internal_node_id":"0.0-13.0-3.40","match_key":"l","participant_id":"COGS219_2020_01"},{"rt":null,"stimulus":"Sounds/cat_label.wav","key_press":null,"block":1,"trial_type":"audio-keyboard-response","trial_index":216,"time_elapsed":2667098,"internal_node_id":"0.0-13.0-0.41","match_key":"l","participant_id":"COGS219_2020_01"},{"rt":null,"stimulus":"<p style=\"font-size: 48px;\">+</p>","key_press":null,"block":1,"trial_type":"html-keyboard-response","trial_index":217,"time_elapsed":2668097,"internal_node_id":"0.0-13.0-1.41","match_key":"l","participant_id":"COGS219_2020_01"},{"rt":744.3900000071153,"stimulus":"Images/frog_orig.png","key_press":65,"stim_onset":1581180524682,"block":1,"match_type":"non-match","image_category":"frog","sound_category":"cat","audio_type":"label","phase":"test","trial_type":"image-keyboard-response","trial_index":218,"time_elapsed":2668842,"internal_node_id":"0.0-13.0-2.41","match_key":"l","participant_id":"COGS219_2020_01","correct":true},{"rt":null,"stimulus":"Sounds/correct.wav","key_press":null,"block":1,"trial_type":"audio-keyboard-response","trial_index":219,"time_elapsed":2670852,"internal_node_id":"0.0-13.0-3.41","match_key":"l","participant_id":"COGS219_2020_01"},{"rt":null,"stimulus":"Sounds/train_sound.wav","key_press":null,"block":1,"trial_type":"audio-keyboard-response","trial_index":220,"time_elapsed":2672158,"internal_node_id":"0.0-13.0-0.42","match_key":"l","participant_id":"COGS219_2020_01"},{"rt":null,"stimulus":"<p style=\"font-size: 48px;\">+</p>","key_press":null,"block":1,"trial_type":"html-keyboard-response","trial_index":221,"time_elapsed":2673164,"internal_node_id":"0.0-13.0-1.42","match_key":"l","participant_id":"COGS219_2020_01"},{"rt":557.4199999682605,"stimulus":"Images/dog_2.png","key_press":65,"stim_onset":1581180529749,"block":1,"match_type":"non-match","image_category":"dog","sound_category":"train","audio_type":"sound","phase":"test","trial_type":"image-keyboard-response","trial_index":222,"time_elapsed":2673722,"internal_node_id":"0.0-13.0-2.42","match_key":"l","participant_id":"COGS219_2020_01","correct":true},{"rt":null,"stimulus":"Sounds/correct.wav","key_press":null,"block":1,"trial_type":"audio-keyboard-response","trial_index":223,"time_elapsed":2675736,"internal_node_id":"0.0-13.0-3.42","match_key":"l","participant_id":"COGS219_2020_01"},{"rt":null,"stimulus":"Sounds/car_label.wav","key_press":null,"block":1,"trial_type":"audio-keyboard-response","trial_index":224,"time_elapsed":2676818,"internal_node_id":"0.0-13.0-0.43","match_key":"l","participant_id":"COGS219_2020_01"},{"rt":null,"stimulus":"<p style=\"font-size: 48px;\">+</p>","key_press":null,"block":1,"trial_type":"html-keyboard-response","trial_index":225,"time_elapsed":2677813,"internal_node_id":"0.0-13.0-1.43","match_key":"l","participant_id":"COGS219_2020_01"},{"rt":723.5599999548867,"stimulus":"Images/cat_cartoon.png","key_press":65,"stim_onset":1581180534398,"block":1,"match_type":"non-match","image_category":"cat","sound_category":"car","audio_type":"label","phase":"test","trial_type":"image-keyboard-response","trial_index":226,"time_elapsed":2678538,"internal_node_id":"0.0-13.0-2.43","match_key":"l","participant_id":"COGS219_2020_01","correct":true},{"rt":null,"stimulus":"Sounds/correct.wav","key_press":null,"block":1,"trial_type":"audio-keyboard-response","trial_index":227,"time_elapsed":2680553,"internal_node_id":"0.0-13.0-3.43","match_key":"l","participant_id":"COGS219_2020_01"},{"rt":null,"stimulus":"Sounds/motorcycle_sound.wav","key_press":null,"block":1,"trial_type":"audio-keyboard-response","trial_index":228,"time_elapsed":2681678,"internal_node_id":"0.0-13.0-0.44","match_key":"l","participant_id":"COGS219_2020_01"},{"rt":null,"stimulus":"<p style=\"font-size: 48px;\">+</p>","key_press":null,"block":1,"trial_type":"html-keyboard-response","trial_index":229,"time_elapsed":2682680,"internal_node_id":"0.0-13.0-1.44","match_key":"l","participant_id":"COGS219_2020_01"},{"rt":944.7950000176206,"stimulus":"Images/motorcycle_cartoon.png","key_press":76,"stim_onset":1581180539265,"block":1,"match_type":"match","image_category":"motorcycle","sound_category":"motorcycle","audio_type":"sound","phase":"test","trial_type":"image-keyboard-response","trial_index":230,"time_elapsed":2683626,"internal_node_id":"0.0-13.0-2.44","match_key":"l","participant_id":"COGS219_2020_01","correct":true},{"rt":null,"stimulus":"Sounds/correct.wav","key_press":null,"block":1,"trial_type":"audio-keyboard-response","trial_index":231,"time_elapsed":2685635,"internal_node_id":"0.0-13.0-3.44","match_key":"l","participant_id":"COGS219_2020_01"},{"rt":null,"stimulus":"Sounds/train_sound.wav","key_press":null,"block":1,"trial_type":"audio-keyboard-response","trial_index":232,"time_elapsed":2686898,"internal_node_id":"0.0-13.0-0.45","match_key":"l","participant_id":"COGS219_2020_01"},{"rt":null,"stimulus":"<p style=\"font-size: 48px;\">+</p>","key_press":null,"block":1,"trial_type":"html-keyboard-response","trial_index":233,"time_elapsed":2687897,"internal_node_id":"0.0-13.0-1.45","match_key":"l","participant_id":"COGS219_2020_01"},{"rt":1520.0250000343658,"stimulus":"Images/rooster_2.png","key_press":65,"stim_onset":1581180544482,"block":1,"match_type":"non-match","image_category":"rooster","sound_category":"train","audio_type":"sound","phase":"test","trial_type":"image-keyboard-response","trial_index":234,"time_elapsed":2689418,"internal_node_id":"0.0-13.0-2.45","match_key":"l","participant_id":"COGS219_2020_01","correct":true},{"rt":null,"stimulus":"Sounds/correct.wav","key_press":null,"block":1,"trial_type":"audio-keyboard-response","trial_index":235,"time_elapsed":2691421,"internal_node_id":"0.0-13.0-3.45","match_key":"l","participant_id":"COGS219_2020_01"},{"rt":null,"stimulus":"Sounds/whistle_sound.wav","key_press":null,"block":1,"trial_type":"audio-keyboard-response","trial_index":236,"time_elapsed":2692118,"internal_node_id":"0.0-13.0-0.46","match_key":"l","participant_id":"COGS219_2020_01"},{"rt":null,"stimulus":"<p style=\"font-size: 48px;\">+</p>","key_press":null,"block":1,"trial_type":"html-keyboard-response","trial_index":237,"time_elapsed":2693114,"internal_node_id":"0.0-13.0-1.46","match_key":"l","participant_id":"COGS219_2020_01"},{"rt":831.3900000066496,"stimulus":"Images/whistle_3.png","key_press":76,"stim_onset":1581180549699,"block":1,"match_type":"match","image_category":"whistle","sound_category":"whistle","audio_type":"sound","phase":"test","trial_type":"image-keyboard-response","trial_index":238,"time_elapsed":2693946,"internal_node_id":"0.0-13.0-2.46","match_key":"l","participant_id":"COGS219_2020_01","correct":true},{"rt":null,"stimulus":"Sounds/correct.wav","key_press":null,"block":1,"trial_type":"audio-keyboard-response","trial_index":239,"time_elapsed":2695953,"internal_node_id":"0.0-13.0-3.46","match_key":"l","participant_id":"COGS219_2020_01"},{"rt":null,"stimulus":"Sounds/rooster_label.wav","key_press":null,"block":1,"trial_type":"audio-keyboard-response","trial_index":240,"time_elapsed":2696657,"internal_node_id":"0.0-13.0-0.47","match_key":"l","participant_id":"COGS219_2020_01"},{"rt":null,"stimulus":"<p style=\"font-size: 48px;\">+</p>","key_press":null,"block":1,"trial_type":"html-keyboard-response","trial_index":241,"time_elapsed":2697646,"internal_node_id":"0.0-13.0-1.47","match_key":"l","participant_id":"COGS219_2020_01"},{"rt":1033.9149999781512,"stimulus":"Images/rooster_cartoon.png","key_press":76,"stim_onset":1581180554231,"block":1,"match_type":"match","image_category":"rooster","sound_category":"rooster","audio_type":"label","phase":"test","trial_type":"image-keyboard-response","trial_index":242,"time_elapsed":2698681,"internal_node_id":"0.0-13.0-2.47","match_key":"l","participant_id":"COGS219_2020_01","correct":true},{"rt":null,"stimulus":"Sounds/correct.wav","key_press":null,"block":1,"trial_type":"audio-keyboard-response","trial_index":243,"time_elapsed":2700684,"internal_node_id":"0.0-13.0-3.47","match_key":"l","participant_id":"COGS219_2020_01"},{"rt":null,"stimulus":"Sounds/motorcycle_label.wav","key_press":null,"block":1,"trial_type":"audio-keyboard-response","trial_index":244,"time_elapsed":2701817,"internal_node_id":"0.0-13.0-0.48","match_key":"l","participant_id":"COGS219_2020_01"},{"rt":null,"stimulus":"<p style=\"font-size: 48px;\">+</p>","key_press":null,"block":1,"trial_type":"html-keyboard-response","trial_index":245,"time_elapsed":2702813,"internal_node_id":"0.0-13.0-1.48","match_key":"l","participant_id":"COGS219_2020_01"},{"rt":715.0900000124238,"stimulus":"Images/motorcycle_2.png","key_press":76,"stim_onset":1581180559398,"block":1,"match_type":"match","image_category":"motorcycle","sound_category":"motorcycle","audio_type":"label","phase":"test","trial_type":"image-keyboard-response","trial_index":246,"time_elapsed":2703529,"internal_node_id":"0.0-13.0-2.48","match_key":"l","participant_id":"COGS219_2020_01","correct":true},{"rt":null,"stimulus":"Sounds/correct.wav","key_press":null,"block":1,"trial_type":"audio-keyboard-response","trial_index":247,"time_elapsed":2705536,"internal_node_id":"0.0-13.0-3.48","match_key":"l","participant_id":"COGS219_2020_01"},{"rt":null,"stimulus":"Sounds/cow_sound.wav","key_press":null,"block":1,"trial_type":"audio-keyboard-response","trial_index":248,"time_elapsed":2706557,"internal_node_id":"0.0-13.0-0.49","match_key":"l","participant_id":"COGS219_2020_01"},{"rt":null,"stimulus":"<p style=\"font-size: 48px;\">+</p>","key_press":null,"block":1,"trial_type":"html-keyboard-response","trial_index":249,"time_elapsed":2707563,"internal_node_id":"0.0-13.0-1.49","match_key":"l","participant_id":"COGS219_2020_01"},{"rt":781.0800000443123,"stimulus":"Images/gun_cartoon.png","key_press":65,"stim_onset":1581180564148,"block":1,"match_type":"non-match","image_category":"gun","sound_category":"cow","audio_type":"sound","phase":"test","trial_type":"image-keyboard-response","trial_index":250,"time_elapsed":2708345,"internal_node_id":"0.0-13.0-2.49","match_key":"l","participant_id":"COGS219_2020_01","correct":true},{"rt":null,"stimulus":"Sounds/correct.wav","key_press":null,"block":1,"trial_type":"audio-keyboard-response","trial_index":251,"time_elapsed":2710353,"internal_node_id":"0.0-13.0-3.49","match_key":"l","participant_id":"COGS219_2020_01"},{"rt":null,"stimulus":"Sounds/motorcycle_label.wav","key_press":null,"block":1,"trial_type":"audio-keyboard-response","trial_index":252,"time_elapsed":2711457,"internal_node_id":"0.0-13.0-0.50","match_key":"l","participant_id":"COGS219_2020_01"},{"rt":null,"stimulus":"<p style=\"font-size: 48px;\">+</p>","key_press":null,"block":1,"trial_type":"html-keyboard-response","trial_index":253,"time_elapsed":2712463,"internal_node_id":"0.0-13.0-1.50","match_key":"l","participant_id":"COGS219_2020_01"},{"rt":920.9899999550544,"stimulus":"Images/frog_2.png","key_press":65,"stim_onset":1581180569048,"block":1,"match_type":"non-match","image_category":"frog","sound_category":"motorcycle","audio_type":"label","phase":"test","trial_type":"image-keyboard-response","trial_index":254,"time_elapsed":2713385,"internal_node_id":"0.0-13.0-2.50","match_key":"l","participant_id":"COGS219_2020_01","correct":true},{"rt":null,"stimulus":"Sounds/correct.wav","key_press":null,"block":1,"trial_type":"audio-keyboard-response","trial_index":255,"time_elapsed":2715400,"internal_node_id":"0.0-13.0-3.50","match_key":"l","participant_id":"COGS219_2020_01"},{"rt":null,"stimulus":"Sounds/dog_label.wav","key_press":null,"block":1,"trial_type":"audio-keyboard-response","trial_index":256,"time_elapsed":2716057,"internal_node_id":"0.0-13.0-0.51","match_key":"l","participant_id":"COGS219_2020_01"},{"rt":null,"stimulus":"<p style=\"font-size: 48px;\">+</p>","key_press":null,"block":1,"trial_type":"html-keyboard-response","trial_index":257,"time_elapsed":2717046,"internal_node_id":"0.0-13.0-1.51","match_key":"l","participant_id":"COGS219_2020_01"},{"rt":721.834999974817,"stimulus":"Images/dog_orig.png","key_press":76,"stim_onset":1581180573631,"block":1,"match_type":"match","image_category":"dog","sound_category":"dog","audio_type":"label","phase":"test","trial_type":"image-keyboard-response","trial_index":258,"time_elapsed":2717769,"internal_node_id":"0.0-13.0-2.51","match_key":"l","participant_id":"COGS219_2020_01","correct":true},{"rt":null,"stimulus":"Sounds/correct.wav","key_press":null,"block":1,"trial_type":"audio-keyboard-response","trial_index":259,"time_elapsed":2719784,"internal_node_id":"0.0-13.0-3.51","match_key":"l","participant_id":"COGS219_2020_01"},{"rt":null,"stimulus":"Sounds/car_label.wav","key_press":null,"block":1,"trial_type":"audio-keyboard-response","trial_index":260,"time_elapsed":2720857,"internal_node_id":"0.0-13.0-0.52","match_key":"l","participant_id":"COGS219_2020_01"},{"rt":null,"stimulus":"<p style=\"font-size: 48px;\">+</p>","key_press":null,"block":1,"trial_type":"html-keyboard-response","trial_index":261,"time_elapsed":2721863,"internal_node_id":"0.0-13.0-1.52","match_key":"l","participant_id":"COGS219_2020_01"},{"rt":705.1050000009127,"stimulus":"Images/car_3.png","key_press":76,"stim_onset":1581180578448,"block":1,"match_type":"match","image_category":"car","sound_category":"car","audio_type":"label","phase":"test","trial_type":"image-keyboard-response","trial_index":262,"time_elapsed":2722569,"internal_node_id":"0.0-13.0-2.52","match_key":"l","participant_id":"COGS219_2020_01","correct":true},{"rt":null,"stimulus":"Sounds/correct.wav","key_press":null,"block":1,"trial_type":"audio-keyboard-response","trial_index":263,"time_elapsed":2724584,"internal_node_id":"0.0-13.0-3.52","match_key":"l","participant_id":"COGS219_2020_01"},{"rt":null,"stimulus":"Sounds/dog_label.wav","key_press":null,"block":1,"trial_type":"audio-keyboard-response","trial_index":264,"time_elapsed":2725217,"internal_node_id":"0.0-13.0-0.53","match_key":"l","participant_id":"COGS219_2020_01"},{"rt":null,"stimulus":"<p style=\"font-size: 48px;\">+</p>","key_press":null,"block":1,"trial_type":"html-keyboard-response","trial_index":265,"time_elapsed":2726213,"internal_node_id":"0.0-13.0-1.53","match_key":"l","participant_id":"COGS219_2020_01"},{"rt":658.9549999916926,"stimulus":"Images/dog_cartoon.png","key_press":76,"stim_onset":1581180582798,"block":1,"match_type":"match","image_category":"dog","sound_category":"dog","audio_type":"label","phase":"test","trial_type":"image-keyboard-response","trial_index":266,"time_elapsed":2726873,"internal_node_id":"0.0-13.0-2.53","match_key":"l","participant_id":"COGS219_2020_01","correct":true},{"rt":null,"stimulus":"Sounds/correct.wav","key_press":null,"block":1,"trial_type":"audio-keyboard-response","trial_index":267,"time_elapsed":2728883,"internal_node_id":"0.0-13.0-3.53","match_key":"l","participant_id":"COGS219_2020_01"},{"rt":null,"stimulus":"Sounds/frog_sound.wav","key_press":null,"block":1,"trial_type":"audio-keyboard-response","trial_index":268,"time_elapsed":2729797,"internal_node_id":"0.0-13.0-0.54","match_key":"l","participant_id":"COGS219_2020_01"},{"rt":null,"stimulus":"<p style=\"font-size: 48px;\">+</p>","key_press":null,"block":1,"trial_type":"html-keyboard-response","trial_index":269,"time_elapsed":2730797,"internal_node_id":"0.0-13.0-1.54","match_key":"l","participant_id":"COGS219_2020_01"},{"rt":827.564999985043,"stimulus":"Images/cat_1.png","key_press":65,"stim_onset":1581180587381,"block":1,"match_type":"non-match","image_category":"cat","sound_category":"frog","audio_type":"sound","phase":"test","trial_type":"image-keyboard-response","trial_index":270,"time_elapsed":2731625,"internal_node_id":"0.0-13.0-2.54","match_key":"l","participant_id":"COGS219_2020_01","correct":true},{"rt":null,"stimulus":"Sounds/correct.wav","key_press":null,"block":1,"trial_type":"audio-keyboard-response","trial_index":271,"time_elapsed":2733635,"internal_node_id":"0.0-13.0-3.54","match_key":"l","participant_id":"COGS219_2020_01"},{"rt":null,"stimulus":"Sounds/whistle_sound.wav","key_press":null,"block":1,"trial_type":"audio-keyboard-response","trial_index":272,"time_elapsed":2734337,"internal_node_id":"0.0-13.0-0.55","match_key":"l","participant_id":"COGS219_2020_01"},{"rt":null,"stimulus":"<p style=\"font-size: 48px;\">+</p>","key_press":null,"block":1,"trial_type":"html-keyboard-response","trial_index":273,"time_elapsed":2735330,"internal_node_id":"0.0-13.0-1.55","match_key":"l","participant_id":"COGS219_2020_01"},{"rt":470.4749999800697,"stimulus":"Images/whistle_2.png","key_press":76,"stim_onset":1581180591915,"block":1,"match_type":"match","image_category":"whistle","sound_category":"whistle","audio_type":"sound","phase":"test","trial_type":"image-keyboard-response","trial_index":274,"time_elapsed":2735801,"internal_node_id":"0.0-13.0-2.55","match_key":"l","participant_id":"COGS219_2020_01","correct":true},{"rt":null,"stimulus":"Sounds/correct.wav","key_press":null,"block":1,"trial_type":"audio-keyboard-response","trial_index":275,"time_elapsed":2737817,"internal_node_id":"0.0-13.0-3.55","match_key":"l","participant_id":"COGS219_2020_01"},{"rt":null,"stimulus":"Sounds/dog_label.wav","key_press":null,"block":1,"trial_type":"audio-keyboard-response","trial_index":276,"time_elapsed":2738457,"internal_node_id":"0.0-13.0-0.56","match_key":"l","participant_id":"COGS219_2020_01"},{"rt":null,"stimulus":"<p style=\"font-size: 48px;\">+</p>","key_press":null,"block":1,"trial_type":"html-keyboard-response","trial_index":277,"time_elapsed":2739447,"internal_node_id":"0.0-13.0-1.56","match_key":"l","participant_id":"COGS219_2020_01"},{"rt":705.4550000466406,"stimulus":"Images/cow_orig.png","key_press":65,"stim_onset":1581180596032,"block":1,"match_type":"non-match","image_category":"cow","sound_category":"dog","audio_type":"label","phase":"test","trial_type":"image-keyboard-response","trial_index":278,"time_elapsed":2740153,"internal_node_id":"0.0-13.0-2.56","match_key":"l","participant_id":"COGS219_2020_01","correct":true},{"rt":null,"stimulus":"Sounds/correct.wav","key_press":null,"block":1,"trial_type":"audio-keyboard-response","trial_index":279,"time_elapsed":2742169,"internal_node_id":"0.0-13.0-3.56","match_key":"l","participant_id":"COGS219_2020_01"},{"rt":null,"stimulus":"Sounds/dog_label.wav","key_press":null,"block":1,"trial_type":"audio-keyboard-response","trial_index":280,"time_elapsed":2742797,"internal_node_id":"0.0-13.0-0.57","match_key":"l","participant_id":"COGS219_2020_01"},{"rt":null,"stimulus":"<p style=\"font-size: 48px;\">+</p>","key_press":null,"block":1,"trial_type":"html-keyboard-response","trial_index":281,"time_elapsed":2743797,"internal_node_id":"0.0-13.0-1.57","match_key":"l","participant_id":"COGS219_2020_01"},{"rt":515.480000001844,"stimulus":"Images/dog_3.png","key_press":76,"stim_onset":1581180600382,"block":1,"match_type":"match","image_category":"dog","sound_category":"dog","audio_type":"label","phase":"test","trial_type":"image-keyboard-response","trial_index":282,"time_elapsed":2744313,"internal_node_id":"0.0-13.0-2.57","match_key":"l","participant_id":"COGS219_2020_01","correct":true},{"rt":null,"stimulus":"Sounds/correct.wav","key_press":null,"block":1,"trial_type":"audio-keyboard-response","trial_index":283,"time_elapsed":2746319,"internal_node_id":"0.0-13.0-3.57","match_key":"l","participant_id":"COGS219_2020_01"},{"rt":null,"stimulus":"Sounds/dog_label.wav","key_press":null,"block":1,"trial_type":"audio-keyboard-response","trial_index":284,"time_elapsed":2746957,"internal_node_id":"0.0-13.0-0.58","match_key":"l","participant_id":"COGS219_2020_01"},{"rt":null,"stimulus":"<p style=\"font-size: 48px;\">+</p>","key_press":null,"block":1,"trial_type":"html-keyboard-response","trial_index":285,"time_elapsed":2747947,"internal_node_id":"0.0-13.0-1.58","match_key":"l","participant_id":"COGS219_2020_01"},{"rt":605.5449999985285,"stimulus":"Images/rooster_1.png","key_press":65,"stim_onset":1581180604532,"block":1,"match_type":"non-match","image_category":"rooster","sound_category":"dog","audio_type":"label","phase":"test","trial_type":"image-keyboard-response","trial_index":286,"time_elapsed":2748553,"internal_node_id":"0.0-13.0-2.58","match_key":"l","participant_id":"COGS219_2020_01","correct":true},{"rt":null,"stimulus":"Sounds/correct.wav","key_press":null,"block":1,"trial_type":"audio-keyboard-response","trial_index":287,"time_elapsed":2750567,"internal_node_id":"0.0-13.0-3.58","match_key":"l","participant_id":"COGS219_2020_01"},{"rt":null,"stimulus":"Sounds/whistle_label.wav","key_press":null,"block":1,"trial_type":"audio-keyboard-response","trial_index":288,"time_elapsed":2751257,"internal_node_id":"0.0-13.0-0.59","match_key":"l","participant_id":"COGS219_2020_01"},{"rt":null,"stimulus":"<p style=\"font-size: 48px;\">+</p>","key_press":null,"block":1,"trial_type":"html-keyboard-response","trial_index":289,"time_elapsed":2752247,"internal_node_id":"0.0-13.0-1.59","match_key":"l","participant_id":"COGS219_2020_01"},{"rt":721.4050000184216,"stimulus":"Images/car_orig.png","key_press":65,"stim_onset":1581180608832,"block":1,"match_type":"non-match","image_category":"car","sound_category":"whistle","audio_type":"label","phase":"test","trial_type":"image-keyboard-response","trial_index":290,"time_elapsed":2752969,"internal_node_id":"0.0-13.0-2.59","match_key":"l","participant_id":"COGS219_2020_01","correct":true},{"rt":null,"stimulus":"Sounds/correct.wav","key_press":null,"block":1,"trial_type":"audio-keyboard-response","trial_index":291,"time_elapsed":2754985,"internal_node_id":"0.0-13.0-3.59","match_key":"l","participant_id":"COGS219_2020_01"},{"rt":null,"stimulus":"Sounds/dog_sound.wav","key_press":null,"block":1,"trial_type":"audio-keyboard-response","trial_index":292,"time_elapsed":2755697,"internal_node_id":"0.0-13.0-0.60","match_key":"l","participant_id":"COGS219_2020_01"},{"rt":null,"stimulus":"<p style=\"font-size: 48px;\">+</p>","key_press":null,"block":1,"trial_type":"html-keyboard-response","trial_index":293,"time_elapsed":2756696,"internal_node_id":"0.0-13.0-1.60","match_key":"l","participant_id":"COGS219_2020_01"},{"rt":767.2100000199862,"stimulus":"Images/dog_1.png","key_press":76,"stim_onset":1581180613281,"block":1,"match_type":"match","image_category":"dog","sound_category":"dog","audio_type":"sound","phase":"test","trial_type":"image-keyboard-response","trial_index":294,"time_elapsed":2757464,"internal_node_id":"0.0-13.0-2.60","match_key":"l","participant_id":"COGS219_2020_01","correct":true},{"rt":null,"stimulus":"Sounds/correct.wav","key_press":null,"block":1,"trial_type":"audio-keyboard-response","trial_index":295,"time_elapsed":2759470,"internal_node_id":"0.0-13.0-3.60","match_key":"l","participant_id":"COGS219_2020_01"},{"rt":null,"stimulus":"Sounds/rooster_sound.wav","key_press":null,"block":1,"trial_type":"audio-keyboard-response","trial_index":296,"time_elapsed":2760177,"internal_node_id":"0.0-13.0-0.61","match_key":"l","participant_id":"COGS219_2020_01"},{"rt":null,"stimulus":"<p style=\"font-size: 48px;\">+</p>","key_press":null,"block":1,"trial_type":"html-keyboard-response","trial_index":297,"time_elapsed":2761180,"internal_node_id":"0.0-13.0-1.61","match_key":"l","participant_id":"COGS219_2020_01"},{"rt":860.1849999977276,"stimulus":"Images/dog_orig.png","key_press":65,"stim_onset":1581180617765,"block":1,"match_type":"non-match","image_category":"dog","sound_category":"rooster","audio_type":"sound","phase":"test","trial_type":"image-keyboard-response","trial_index":298,"time_elapsed":2762041,"internal_node_id":"0.0-13.0-2.61","match_key":"l","participant_id":"COGS219_2020_01","correct":true},{"rt":null,"stimulus":"Sounds/correct.wav","key_press":null,"block":1,"trial_type":"audio-keyboard-response","trial_index":299,"time_elapsed":2764050,"internal_node_id":"0.0-13.0-3.61","match_key":"l","participant_id":"COGS219_2020_01"},{"rt":null,"stimulus":"Sounds/rooster_label.wav","key_press":null,"block":1,"trial_type":"audio-keyboard-response","trial_index":300,"time_elapsed":2764757,"internal_node_id":"0.0-13.0-0.62","match_key":"l","participant_id":"COGS219_2020_01"},{"rt":null,"stimulus":"<p style=\"font-size: 48px;\">+</p>","key_press":null,"block":1,"trial_type":"html-keyboard-response","trial_index":301,"time_elapsed":2765746,"internal_node_id":"0.0-13.0-1.62","match_key":"l","participant_id":"COGS219_2020_01"},{"rt":597.234999993816,"stimulus":"Images/rooster_3.png","key_press":76,"stim_onset":1581180622331,"block":1,"match_type":"match","image_category":"rooster","sound_category":"rooster","audio_type":"label","phase":"test","trial_type":"image-keyboard-response","trial_index":302,"time_elapsed":2766344,"internal_node_id":"0.0-13.0-2.62","match_key":"l","participant_id":"COGS219_2020_01","correct":true},{"rt":null,"stimulus":"Sounds/correct.wav","key_press":null,"block":1,"trial_type":"audio-keyboard-response","trial_index":303,"time_elapsed":2768351,"internal_node_id":"0.0-13.0-3.62","match_key":"l","participant_id":"COGS219_2020_01"},{"rt":null,"stimulus":"Sounds/car_label.wav","key_press":null,"block":1,"trial_type":"audio-keyboard-response","trial_index":304,"time_elapsed":2769437,"internal_node_id":"0.0-13.0-0.63","match_key":"l","participant_id":"COGS219_2020_01"},{"rt":null,"stimulus":"<p style=\"font-size: 48px;\">+</p>","key_press":null,"block":1,"trial_type":"html-keyboard-response","trial_index":305,"time_elapsed":2770430,"internal_node_id":"0.0-13.0-1.63","match_key":"l","participant_id":"COGS219_2020_01"},{"rt":969.8600000119768,"stimulus":"Images/whistle_orig.png","key_press":65,"stim_onset":1581180627015,"block":1,"match_type":"non-match","image_category":"whistle","sound_category":"car","audio_type":"label","phase":"test","trial_type":"image-keyboard-response","trial_index":306,"time_elapsed":2771400,"internal_node_id":"0.0-13.0-2.63","match_key":"l","participant_id":"COGS219_2020_01","correct":true},{"rt":null,"stimulus":"Sounds/correct.wav","key_press":null,"block":1,"trial_type":"audio-keyboard-response","trial_index":307,"time_elapsed":2773415,"internal_node_id":"0.0-13.0-3.63","match_key":"l","participant_id":"COGS219_2020_01"},{"rt":null,"stimulus":"Sounds/motorcycle_label.wav","key_press":null,"block":1,"trial_type":"audio-keyboard-response","trial_index":308,"time_elapsed":2774537,"internal_node_id":"0.0-13.0-0.64","match_key":"l","participant_id":"COGS219_2020_01"},{"rt":null,"stimulus":"<p style=\"font-size: 48px;\">+</p>","key_press":null,"block":1,"trial_type":"html-keyboard-response","trial_index":309,"time_elapsed":2775530,"internal_node_id":"0.0-13.0-1.64","match_key":"l","participant_id":"COGS219_2020_01"},{"rt":638.0100000533275,"stimulus":"Images/train_1.png","key_press":65,"stim_onset":1581180632115,"block":1,"match_type":"non-match","image_category":"train","sound_category":"motorcycle","audio_type":"label","phase":"test","trial_type":"image-keyboard-response","trial_index":310,"time_elapsed":2776169,"internal_node_id":"0.0-13.0-2.64","match_key":"l","participant_id":"COGS219_2020_01","correct":true},{"rt":null,"stimulus":"Sounds/correct.wav","key_press":null,"block":1,"trial_type":"audio-keyboard-response","trial_index":311,"time_elapsed":2778184,"internal_node_id":"0.0-13.0-3.64","match_key":"l","participant_id":"COGS219_2020_01"},{"rt":null,"stimulus":"Sounds/train_label.wav","key_press":null,"block":1,"trial_type":"audio-keyboard-response","trial_index":312,"time_elapsed":2779457,"internal_node_id":"0.0-13.0-0.65","match_key":"l","participant_id":"COGS219_2020_01"},{"rt":null,"stimulus":"<p style=\"font-size: 48px;\">+</p>","key_press":null,"block":1,"trial_type":"html-keyboard-response","trial_index":313,"time_elapsed":2780463,"internal_node_id":"0.0-13.0-1.65","match_key":"l","participant_id":"COGS219_2020_01"},{"rt":680.3599999984726,"stimulus":"Images/cat_orig.png","key_press":65,"stim_onset":1581180637048,"block":1,"match_type":"non-match","image_category":"cat","sound_category":"train","audio_type":"label","phase":"test","trial_type":"image-keyboard-response","trial_index":314,"time_elapsed":2781145,"internal_node_id":"0.0-13.0-2.65","match_key":"l","participant_id":"COGS219_2020_01","correct":true},{"rt":null,"stimulus":"Sounds/correct.wav","key_press":null,"block":1,"trial_type":"audio-keyboard-response","trial_index":315,"time_elapsed":2783152,"internal_node_id":"0.0-13.0-3.65","match_key":"l","participant_id":"COGS219_2020_01"},{"rt":null,"stimulus":"Sounds/train_label.wav","key_press":null,"block":1,"trial_type":"audio-keyboard-response","trial_index":316,"time_elapsed":2784397,"internal_node_id":"0.0-13.0-0.66","match_key":"l","participant_id":"COGS219_2020_01"},{"rt":null,"stimulus":"<p style=\"font-size: 48px;\">+</p>","key_press":null,"block":1,"trial_type":"html-keyboard-response","trial_index":317,"time_elapsed":2785396,"internal_node_id":"0.0-13.0-1.66","match_key":"l","participant_id":"COGS219_2020_01"},{"rt":482.16000001411885,"stimulus":"Images/train_1.png","key_press":76,"stim_onset":1581180641982,"block":1,"match_type":"match","image_category":"train","sound_category":"train","audio_type":"label","phase":"test","trial_type":"image-keyboard-response","trial_index":318,"time_elapsed":2785881,"internal_node_id":"0.0-13.0-2.66","match_key":"l","participant_id":"COGS219_2020_01","correct":true},{"rt":null,"stimulus":"Sounds/correct.wav","key_press":null,"block":1,"trial_type":"audio-keyboard-response","trial_index":319,"time_elapsed":2787885,"internal_node_id":"0.0-13.0-3.66","match_key":"l","participant_id":"COGS219_2020_01"},{"rt":null,"stimulus":"Sounds/car_label.wav","key_press":null,"block":1,"trial_type":"audio-keyboard-response","trial_index":320,"time_elapsed":2788957,"internal_node_id":"0.0-13.0-0.67","match_key":"l","participant_id":"COGS219_2020_01"},{"rt":null,"stimulus":"<p style=\"font-size: 48px;\">+</p>","key_press":null,"block":1,"trial_type":"html-keyboard-response","trial_index":321,"time_elapsed":2789946,"internal_node_id":"0.0-13.0-1.67","match_key":"l","participant_id":"COGS219_2020_01"},{"rt":637.3599999933504,"stimulus":"Images/gun_3.png","key_press":65,"stim_onset":1581180646532,"block":1,"match_type":"non-match","image_category":"gun","sound_category":"car","audio_type":"label","phase":"test","trial_type":"image-keyboard-response","trial_index":322,"time_elapsed":2790585,"internal_node_id":"0.0-13.0-2.67","match_key":"l","participant_id":"COGS219_2020_01","correct":true},{"rt":null,"stimulus":"Sounds/correct.wav","key_press":null,"block":1,"trial_type":"audio-keyboard-response","trial_index":323,"time_elapsed":2792602,"internal_node_id":"0.0-13.0-3.67","match_key":"l","participant_id":"COGS219_2020_01"},{"rt":null,"stimulus":"Sounds/gun_label.wav","key_press":null,"block":1,"trial_type":"audio-keyboard-response","trial_index":324,"time_elapsed":2793177,"internal_node_id":"0.0-13.0-0.68","match_key":"l","participant_id":"COGS219_2020_01"},{"rt":null,"stimulus":"<p style=\"font-size: 48px;\">+</p>","key_press":null,"block":1,"trial_type":"html-keyboard-response","trial_index":325,"time_elapsed":2794180,"internal_node_id":"0.0-13.0-1.68","match_key":"l","participant_id":"COGS219_2020_01"},{"rt":579.5149999903515,"stimulus":"Images/cow_3.png","key_press":65,"stim_onset":1581180650765,"block":1,"match_type":"non-match","image_category":"cow","sound_category":"gun","audio_type":"label","phase":"test","trial_type":"image-keyboard-response","trial_index":326,"time_elapsed":2794760,"internal_node_id":"0.0-13.0-2.68","match_key":"l","participant_id":"COGS219_2020_01","correct":true},{"rt":null,"stimulus":"Sounds/correct.wav","key_press":null,"block":1,"trial_type":"audio-keyboard-response","trial_index":327,"time_elapsed":2796770,"internal_node_id":"0.0-13.0-3.68","match_key":"l","participant_id":"COGS219_2020_01"},{"rt":null,"stimulus":"Sounds/gun_sound.wav","key_press":null,"block":1,"trial_type":"audio-keyboard-response","trial_index":328,"time_elapsed":2797357,"internal_node_id":"0.0-13.0-0.69","match_key":"l","participant_id":"COGS219_2020_01"},{"rt":null,"stimulus":"<p style=\"font-size: 48px;\">+</p>","key_press":null,"block":1,"trial_type":"html-keyboard-response","trial_index":329,"time_elapsed":2798347,"internal_node_id":"0.0-13.0-1.69","match_key":"l","participant_id":"COGS219_2020_01"},{"rt":668.9650000189431,"stimulus":"Images/gun_3.png","key_press":65,"stim_onset":1581180654932,"block":1,"match_type":"match","image_category":"gun","sound_category":"gun","audio_type":"sound","phase":"test","trial_type":"image-keyboard-response","trial_index":330,"time_elapsed":2799017,"internal_node_id":"0.0-13.0-2.69","match_key":"l","participant_id":"COGS219_2020_01","correct":false},{"rt":null,"stimulus":"Sounds/incorrect.wav","key_press":null,"block":1,"trial_type":"audio-keyboard-response","trial_index":331,"time_elapsed":2801021,"internal_node_id":"0.0-13.0-3.69","match_key":"l","participant_id":"COGS219_2020_01"},{"rt":null,"stimulus":"Sounds/gun_sound.wav","key_press":null,"block":1,"trial_type":"audio-keyboard-response","trial_index":332,"time_elapsed":2801577,"internal_node_id":"0.0-13.0-0.70","match_key":"l","participant_id":"COGS219_2020_01"},{"rt":null,"stimulus":"<p style=\"font-size: 48px;\">+</p>","key_press":null,"block":1,"trial_type":"html-keyboard-response","trial_index":333,"time_elapsed":2802580,"internal_node_id":"0.0-13.0-1.70","match_key":"l","participant_id":"COGS219_2020_01"},{"rt":691.980000003241,"stimulus":"Images/gun_orig.png","key_press":76,"stim_onset":1581180659165,"block":1,"match_type":"match","image_category":"gun","sound_category":"gun","audio_type":"sound","phase":"test","trial_type":"image-keyboard-response","trial_index":334,"time_elapsed":2803273,"internal_node_id":"0.0-13.0-2.70","match_key":"l","participant_id":"COGS219_2020_01","correct":true},{"rt":null,"stimulus":"Sounds/correct.wav","key_press":null,"block":1,"trial_type":"audio-keyboard-response","trial_index":335,"time_elapsed":2805285,"internal_node_id":"0.0-13.0-3.70","match_key":"l","participant_id":"COGS219_2020_01"},{"rt":null,"stimulus":"Sounds/rooster_sound.wav","key_press":null,"block":1,"trial_type":"audio-keyboard-response","trial_index":336,"time_elapsed":2805977,"internal_node_id":"0.0-13.0-0.71","match_key":"l","participant_id":"COGS219_2020_01"},{"rt":null,"stimulus":"<p style=\"font-size: 48px;\">+</p>","key_press":null,"block":1,"trial_type":"html-keyboard-response","trial_index":337,"time_elapsed":2806980,"internal_node_id":"0.0-13.0-1.71","match_key":"l","participant_id":"COGS219_2020_01"},{"rt":755.1699999603443,"stimulus":"Images/gun_orig.png","key_press":65,"stim_onset":1581180663565,"block":1,"match_type":"non-match","image_category":"gun","sound_category":"rooster","audio_type":"sound","phase":"test","trial_type":"image-keyboard-response","trial_index":338,"time_elapsed":2807737,"internal_node_id":"0.0-13.0-2.71","match_key":"l","participant_id":"COGS219_2020_01","correct":true},{"rt":null,"stimulus":"Sounds/correct.wav","key_press":null,"block":1,"trial_type":"audio-keyboard-response","trial_index":339,"time_elapsed":2809751,"internal_node_id":"0.0-13.0-3.71","match_key":"l","participant_id":"COGS219_2020_01"},{"rt":null,"stimulus":"Sounds/cow_label.wav","key_press":null,"block":1,"trial_type":"audio-keyboard-response","trial_index":340,"time_elapsed":2810777,"internal_node_id":"0.0-13.0-0.72","match_key":"l","participant_id":"COGS219_2020_01"},{"rt":null,"stimulus":"<p style=\"font-size: 48px;\">+</p>","key_press":null,"block":1,"trial_type":"html-keyboard-response","trial_index":341,"time_elapsed":2811780,"internal_node_id":"0.0-13.0-1.72","match_key":"l","participant_id":"COGS219_2020_01"},{"rt":707.2649999754503,"stimulus":"Images/cow_2.png","key_press":76,"stim_onset":1581180668365,"block":1,"match_type":"match","image_category":"cow","sound_category":"cow","audio_type":"label","phase":"test","trial_type":"image-keyboard-response","trial_index":342,"time_elapsed":2812488,"internal_node_id":"0.0-13.0-2.72","match_key":"l","participant_id":"COGS219_2020_01","correct":true},{"rt":null,"stimulus":"Sounds/correct.wav","key_press":null,"block":1,"trial_type":"audio-keyboard-response","trial_index":343,"time_elapsed":2814501,"internal_node_id":"0.0-13.0-3.72","match_key":"l","participant_id":"COGS219_2020_01"},{"rt":null,"stimulus":"Sounds/train_sound.wav","key_press":null,"block":1,"trial_type":"audio-keyboard-response","trial_index":344,"time_elapsed":2815797,"internal_node_id":"0.0-13.0-0.73","match_key":"l","participant_id":"COGS219_2020_01"},{"rt":null,"stimulus":"<p style=\"font-size: 48px;\">+</p>","key_press":null,"block":1,"trial_type":"html-keyboard-response","trial_index":345,"time_elapsed":2816796,"internal_node_id":"0.0-13.0-1.73","match_key":"l","participant_id":"COGS219_2020_01"},{"rt":634.9699999555014,"stimulus":"Images/train_3.png","key_press":76,"stim_onset":1581180673381,"block":1,"match_type":"match","image_category":"train","sound_category":"train","audio_type":"sound","phase":"test","trial_type":"image-keyboard-response","trial_index":346,"time_elapsed":2817432,"internal_node_id":"0.0-13.0-2.73","match_key":"l","participant_id":"COGS219_2020_01","correct":true},{"rt":null,"stimulus":"Sounds/correct.wav","key_press":null,"block":1,"trial_type":"audio-keyboard-response","trial_index":347,"time_elapsed":2819435,"internal_node_id":"0.0-13.0-3.73","match_key":"l","participant_id":"COGS219_2020_01"},{"rt":null,"stimulus":"Sounds/whistle_label.wav","key_press":null,"block":1,"trial_type":"audio-keyboard-response","trial_index":348,"time_elapsed":2820136,"internal_node_id":"0.0-13.0-0.74","match_key":"l","participant_id":"COGS219_2020_01"},{"rt":null,"stimulus":"<p style=\"font-size: 48px;\">+</p>","key_press":null,"block":1