[{"rt":33357.45500000121,"responses":"{\"Q0\":\"COGS219_2020_18\"}","trial_type":"survey-text","trial_index":0,"time_elapsed":33402,"internal_node_id":"0.0-0.0","match_key":"a","participant_id":"COGS219_2020_18"},{"rt":87164.00000000067,"stimulus":"<p>Use KEYBOARD 2 (match LEFT)</p><p>Press MATCH to continue.</p>","key_press":65,"trial_type":"html-keyboard-response","trial_index":1,"time_elapsed":120409,"internal_node_id":"0.0-1.0","match_key":"a","participant_id":"COGS219_2020_18"},{"rt":2114470.8150000004,"stimulus":"<p>Welcome to the experiment.</p>","key_press":39,"trial_type":"html-keyboard-response","trial_index":2,"time_elapsed":2234439,"internal_node_id":"0.0-2.0","match_key":"a","participant_id":"COGS219_2020_18"},{"rt":10123.504999999423,"stimulus":"<p>Thank you for agreeing to participate in this study.</p><p>If during any part of the procedure you must stop for any reason, please inform the researcher that you do not wish to continue.</p>","key_press":39,"trial_type":"html-keyboard-response","trial_index":3,"time_elapsed":2244567,"internal_node_id":"0.0-3.0","match_key":"a","participant_id":"COGS219_2020_18"},{"rt":21630.904999997932,"stimulus":"<p>In this experiment, you will hear various words or sounds and see pictures of various animals and objects.</p><p>Most of the images will be of common everyday objects, such as cars, cats, cows, firearms, frogs, chickens, whistles, trains, motorcycles, and dogs.</p><p>Some of the images will be real-life stills, while others will be cartoons.</p>","key_press":39,"trial_type":"html-keyboard-response","trial_index":4,"time_elapsed":2266199,"internal_node_id":"0.0-4.0","match_key":"a","participant_id":"COGS219_2020_18"},{"rt":15414.759999999776,"stimulus":"<p>Sometimes, the word/sound will match the picture, for example you'll hear a meowing sound and see a cat.</p><p>Other times, the picture will not match the sound or word.</p><p>Your task is to decide as quickly as possible if the word/sound matches the picture or not. </p>","key_press":39,"trial_type":"html-keyboard-response","trial_index":5,"time_elapsed":2281611,"internal_node_id":"0.0-5.0","match_key":"a","participant_id":"COGS219_2020_18"},{"rt":13999.135000002105,"stimulus":"<p>For example, if you hear the word \"cat\" or hear a meowing sound, and then see a picture of a cat, you should press the MATCH key.</p><p> If the sound and image do not match, press the NOT-MATCH key to indicate that there is not a match.</p>","key_press":39,"trial_type":"html-keyboard-response","trial_index":6,"time_elapsed":2295611,"internal_node_id":"0.0-6.0","match_key":"a","participant_id":"COGS219_2020_18"},{"rt":12190.780000000726,"stimulus":"<p>If you make a mistake, you will hear a buzzing sound instead of a more pleasant sound.</p><p> Try to respond as quickly as possible, while making as few errors as possible. If you are making mistakes, you are probably rushing.</p>","key_press":39,"trial_type":"html-keyboard-response","trial_index":7,"time_elapsed":2307803,"internal_node_id":"0.0-7.0","match_key":"a","participant_id":"COGS219_2020_18"},{"rt":12430.930000002496,"stimulus":"<p>Please try to not move or blink your eyes during the presentation of the images. You can move and blink between images.</p><p>During the experiment there will be some breaks during which you can rest your eyes.</p>","key_press":39,"trial_type":"html-keyboard-response","trial_index":8,"time_elapsed":2320235,"internal_node_id":"0.0-8.0","match_key":"a","participant_id":"COGS219_2020_18"},{"rt":17478.449999998324,"stimulus":"<p>We will begin with 10 practice trials. Please let the experimenter know if you have any questions.</p>","key_press":32,"trial_type":"html-keyboard-response","trial_index":9,"time_elapsed":2337715,"internal_node_id":"0.0-9.0","match_key":"a","participant_id":"COGS219_2020_18"},{"rt":null,"stimulus":"Sounds/frog_sound.wav","key_press":null,"block":0,"trial_type":"audio-keyboard-response","trial_index":10,"time_elapsed":2338719,"internal_node_id":"0.0-10.0-0.0","match_key":"a","participant_id":"COGS219_2020_18"},{"rt":null,"stimulus":"<p style=\"font-size: 48px;\">+</p>","key_press":null,"block":0,"trial_type":"html-keyboard-response","trial_index":11,"time_elapsed":2339718,"internal_node_id":"0.0-10.0-1.0","match_key":"a","participant_id":"COGS219_2020_18"},{"rt":626.4200000003912,"stimulus":"Images/frog_orig.png","key_press":65,"stim_onset":1581984971819,"block":0,"match_type":"match","image_category":"frog","sound_category":"frog","audio_type":"sound","phase":"practice","trial_type":"image-keyboard-response","trial_index":12,"time_elapsed":2340347,"internal_node_id":"0.0-10.0-2.0","match_key":"a","participant_id":"COGS219_2020_18","correct":true},{"rt":null,"stimulus":"Sounds/correct.wav","key_press":null,"block":0,"trial_type":"audio-keyboard-response","trial_index":13,"time_elapsed":2342356,"internal_node_id":"0.0-10.0-3.0","match_key":"a","participant_id":"COGS219_2020_18"},{"rt":null,"stimulus":"Sounds/whistle_sound.wav","key_press":null,"block":0,"trial_type":"audio-keyboard-response","trial_index":14,"time_elapsed":2343063,"internal_node_id":"0.0-10.0-0.1","match_key":"a","participant_id":"COGS219_2020_18"},{"rt":null,"stimulus":"<p style=\"font-size: 48px;\">+</p>","key_press":null,"block":0,"trial_type":"html-keyboard-response","trial_index":15,"time_elapsed":2344055,"internal_node_id":"0.0-10.0-1.1","match_key":"a","participant_id":"COGS219_2020_18"},{"rt":541.7149999993853,"stimulus":"Images/whistle_cartoon.png","key_press":65,"stim_onset":1581984976155,"block":0,"match_type":"match","image_category":"whistle","sound_category":"whistle","audio_type":"sound","phase":"practice","trial_type":"image-keyboard-response","trial_index":16,"time_elapsed":2344598,"internal_node_id":"0.0-10.0-2.1","match_key":"a","participant_id":"COGS219_2020_18","correct":true},{"rt":null,"stimulus":"Sounds/correct.wav","key_press":null,"block":0,"trial_type":"audio-keyboard-response","trial_index":17,"time_elapsed":2346613,"internal_node_id":"0.0-10.0-3.1","match_key":"a","participant_id":"COGS219_2020_18"},{"rt":null,"stimulus":"Sounds/rooster_sound.wav","key_press":null,"block":0,"trial_type":"audio-keyboard-response","trial_index":18,"time_elapsed":2347303,"internal_node_id":"0.0-10.0-0.2","match_key":"a","participant_id":"COGS219_2020_18"},{"rt":null,"stimulus":"<p style=\"font-size: 48px;\">+</p>","key_press":null,"block":0,"trial_type":"html-keyboard-response","trial_index":19,"time_elapsed":2348305,"internal_node_id":"0.0-10.0-1.2","match_key":"a","participant_id":"COGS219_2020_18"},{"rt":443.625,"stimulus":"Images/cow_orig.png","key_press":76,"stim_onset":1581984980406,"block":0,"match_type":"non-match","image_category":"cow","sound_category":"rooster","audio_type":"sound","phase":"practice","trial_type":"image-keyboard-response","trial_index":20,"time_elapsed":2348750,"internal_node_id":"0.0-10.0-2.2","match_key":"a","participant_id":"COGS219_2020_18","correct":true},{"rt":null,"stimulus":"Sounds/correct.wav","key_press":null,"block":0,"trial_type":"audio-keyboard-response","trial_index":21,"time_elapsed":2350754,"internal_node_id":"0.0-10.0-3.2","match_key":"a","participant_id":"COGS219_2020_18"},{"rt":null,"stimulus":"Sounds/car_sound.wav","key_press":null,"block":0,"trial_type":"audio-keyboard-response","trial_index":22,"time_elapsed":2351823,"internal_node_id":"0.0-10.0-0.3","match_key":"a","participant_id":"COGS219_2020_18"},{"rt":null,"stimulus":"<p style=\"font-size: 48px;\">+</p>","key_press":null,"block":0,"trial_type":"html-keyboard-response","trial_index":23,"time_elapsed":2352822,"internal_node_id":"0.0-10.0-1.3","match_key":"a","participant_id":"COGS219_2020_18"},{"rt":1255.320000000298,"stimulus":"Images/car_cartoon.png","key_press":65,"stim_onset":1581984984922,"block":0,"match_type":"match","image_category":"car","sound_category":"car","audio_type":"sound","phase":"practice","trial_type":"image-keyboard-response","trial_index":24,"time_elapsed":2354078,"internal_node_id":"0.0-10.0-2.3","match_key":"a","participant_id":"COGS219_2020_18","correct":true},{"rt":null,"stimulus":"Sounds/correct.wav","key_press":null,"block":0,"trial_type":"audio-keyboard-response","trial_index":25,"time_elapsed":2356096,"internal_node_id":"0.0-10.0-3.3","match_key":"a","participant_id":"COGS219_2020_18"},{"rt":null,"stimulus":"Sounds/cat_label.wav","key_press":null,"block":0,"trial_type":"audio-keyboard-response","trial_index":26,"time_elapsed":2356943,"internal_node_id":"0.0-10.0-0.4","match_key":"a","participant_id":"COGS219_2020_18"},{"rt":null,"stimulus":"<p style=\"font-size: 48px;\">+</p>","key_press":null,"block":0,"trial_type":"html-keyboard-response","trial_index":27,"time_elapsed":2357939,"internal_node_id":"0.0-10.0-1.4","match_key":"a","participant_id":"COGS219_2020_18"},{"rt":458.15500000026077,"stimulus":"Images/cat_cartoon.png","key_press":65,"stim_onset":1581984990039,"block":0,"match_type":"match","image_category":"cat","sound_category":"cat","audio_type":"label","phase":"practice","trial_type":"image-keyboard-response","trial_index":28,"time_elapsed":2358398,"internal_node_id":"0.0-10.0-2.4","match_key":"a","participant_id":"COGS219_2020_18","correct":true},{"rt":null,"stimulus":"Sounds/correct.wav","key_press":null,"block":0,"trial_type":"audio-keyboard-response","trial_index":29,"time_elapsed":2360410,"internal_node_id":"0.0-10.0-3.4","match_key":"a","participant_id":"COGS219_2020_18"},{"rt":null,"stimulus":"Sounds/train_sound.wav","key_press":null,"block":0,"trial_type":"audio-keyboard-response","trial_index":30,"time_elapsed":2361702,"internal_node_id":"0.0-10.0-0.5","match_key":"a","participant_id":"COGS219_2020_18"},{"rt":null,"stimulus":"<p style=\"font-size: 48px;\">+</p>","key_press":null,"block":0,"trial_type":"html-keyboard-response","trial_index":31,"time_elapsed":2362705,"internal_node_id":"0.0-10.0-1.5","match_key":"a","participant_id":"COGS219_2020_18"},{"rt":523.695000000298,"stimulus":"Images/train_orig.png","key_press":65,"stim_onset":1581984994806,"block":0,"match_type":"match","image_category":"train","sound_category":"train","audio_type":"sound","phase":"practice","trial_type":"image-keyboard-response","trial_index":32,"time_elapsed":2363230,"internal_node_id":"0.0-10.0-2.5","match_key":"a","participant_id":"COGS219_2020_18","correct":true},{"rt":null,"stimulus":"Sounds/correct.wav","key_press":null,"block":0,"trial_type":"audio-keyboard-response","trial_index":33,"time_elapsed":2365247,"internal_node_id":"0.0-10.0-3.5","match_key":"a","participant_id":"COGS219_2020_18"},{"rt":null,"stimulus":"Sounds/whistle_label.wav","key_press":null,"block":0,"trial_type":"audio-keyboard-response","trial_index":34,"time_elapsed":2365943,"internal_node_id":"0.0-10.0-0.6","match_key":"a","participant_id":"COGS219_2020_18"},{"rt":null,"stimulus":"<p style=\"font-size: 48px;\">+</p>","key_press":null,"block":0,"trial_type":"html-keyboard-response","trial_index":35,"time_elapsed":2366939,"internal_node_id":"0.0-10.0-1.6","match_key":"a","participant_id":"COGS219_2020_18"},{"rt":594.2800000007264,"stimulus":"Images/car_cartoon.png","key_press":76,"stim_onset":1581984999039,"block":0,"match_type":"non-match","image_category":"car","sound_category":"whistle","audio_type":"label","phase":"practice","trial_type":"image-keyboard-response","trial_index":36,"time_elapsed":2367534,"internal_node_id":"0.0-10.0-2.6","match_key":"a","participant_id":"COGS219_2020_18","correct":true},{"rt":null,"stimulus":"Sounds/correct.wav","key_press":null,"block":0,"trial_type":"audio-keyboard-response","trial_index":37,"time_elapsed":2369543,"internal_node_id":"0.0-10.0-3.6","match_key":"a","participant_id":"COGS219_2020_18"},{"rt":null,"stimulus":"Sounds/car_label.wav","key_press":null,"block":0,"trial_type":"audio-keyboard-response","trial_index":38,"time_elapsed":2370622,"internal_node_id":"0.0-10.0-0.7","match_key":"a","participant_id":"COGS219_2020_18"},{"rt":null,"stimulus":"<p style=\"font-size: 48px;\">+</p>","key_press":null,"block":0,"trial_type":"html-keyboard-response","trial_index":39,"time_elapsed":2371622,"internal_node_id":"0.0-10.0-1.7","match_key":"a","participant_id":"COGS219_2020_18"},{"rt":806.9700000011362,"stimulus":"Images/whistle_3.png","key_press":76,"stim_onset":1581985003722,"block":0,"match_type":"non-match","image_category":"whistle","sound_category":"car","audio_type":"label","phase":"practice","trial_type":"image-keyboard-response","trial_index":40,"time_elapsed":2372430,"internal_node_id":"0.0-10.0-2.7","match_key":"a","participant_id":"COGS219_2020_18","correct":true},{"rt":null,"stimulus":"Sounds/correct.wav","key_press":null,"block":0,"trial_type":"audio-keyboard-response","trial_index":41,"time_elapsed":2374444,"internal_node_id":"0.0-10.0-3.7","match_key":"a","participant_id":"COGS219_2020_18"},{"rt":null,"stimulus":"Sounds/gun_label.wav","key_press":null,"block":0,"trial_type":"audio-keyboard-response","trial_index":42,"time_elapsed":2375023,"internal_node_id":"0.0-10.0-0.8","match_key":"a","participant_id":"COGS219_2020_18"},{"rt":null,"stimulus":"<p style=\"font-size: 48px;\">+</p>","key_press":null,"block":0,"trial_type":"html-keyboard-response","trial_index":43,"time_elapsed":2376022,"internal_node_id":"0.0-10.0-1.8","match_key":"a","participant_id":"COGS219_2020_18"},{"rt":695.0799999977462,"stimulus":"Images/gun_cartoon.png","key_press":65,"stim_onset":1581985008122,"block":0,"match_type":"match","image_category":"gun","sound_category":"gun","audio_type":"label","phase":"practice","trial_type":"image-keyboard-response","trial_index":44,"time_elapsed":2376718,"internal_node_id":"0.0-10.0-2.8","match_key":"a","participant_id":"COGS219_2020_18","correct":true},{"rt":null,"stimulus":"Sounds/correct.wav","key_press":null,"block":0,"trial_type":"audio-keyboard-response","trial_index":45,"time_elapsed":2378735,"internal_node_id":"0.0-10.0-3.8","match_key":"a","participant_id":"COGS219_2020_18"},{"rt":null,"stimulus":"Sounds/rooster_label.wav","key_press":null,"block":0,"trial_type":"audio-keyboard-response","trial_index":46,"time_elapsed":2379442,"internal_node_id":"0.0-10.0-0.9","match_key":"a","participant_id":"COGS219_2020_18"},{"rt":null,"stimulus":"<p style=\"font-size: 48px;\">+</p>","key_press":null,"block":0,"trial_type":"html-keyboard-response","trial_index":47,"time_elapsed":2380439,"internal_node_id":"0.0-10.0-1.9","match_key":"a","participant_id":"COGS219_2020_18"},{"rt":397.98000000137836,"stimulus":"Images/rooster_orig.png","key_press":65,"stim_onset":1581985012539,"block":0,"match_type":"match","image_category":"rooster","sound_category":"rooster","audio_type":"label","phase":"practice","trial_type":"image-keyboard-response","trial_index":48,"time_elapsed":2380838,"internal_node_id":"0.0-10.0-2.9","match_key":"a","participant_id":"COGS219_2020_18","correct":true},{"rt":null,"stimulus":"Sounds/correct.wav","key_press":null,"block":0,"trial_type":"audio-keyboard-response","trial_index":49,"time_elapsed":2382856,"internal_node_id":"0.0-10.0-3.9","match_key":"a","participant_id":"COGS219_2020_18"},{"rt":55789.9700000016,"stimulus":"<p>The rest of the experiment is divided into five blocks with 100 trials in each block. It will take about 45 minutes to complete.</p><p>The experimenter will be in the outer room and you can communicate with them through the monitor if you have any questions or wish to stop the experiment.</p>","key_press":32,"trial_type":"html-keyboard-response","trial_index":50,"time_elapsed":2438646,"internal_node_id":"0.0-11.0","match_key":"a","participant_id":"COGS219_2020_18"},{"rt":31727.100000000093,"stimulus":"<p>Remember, please try not to move or blink your eyes during the presentation of the images. </p><p>At the end of the experiment, we will show you your scores on the task so you can see how you did.</p><p>The experiment will start on the next screen.</p>","key_press":32,"trial_type":"html-keyboard-response","trial_index":51,"time_elapsed":2470369,"internal_node_id":"0.0-12.0","match_key":"a","participant_id":"COGS219_2020_18"},{"rt":null,"stimulus":"Sounds/motorcycle_sound.wav","key_press":null,"block":1,"trial_type":"audio-keyboard-response","trial_index":52,"time_elapsed":2473500,"internal_node_id":"0.0-13.0-0.0","match_key":"a","participant_id":"COGS219_2020_18"},{"rt":null,"stimulus":"<p style=\"font-size: 48px;\">+</p>","key_press":null,"block":1,"trial_type":"html-keyboard-response","trial_index":53,"time_elapsed":2474501,"internal_node_id":"0.0-13.0-1.0","match_key":"a","participant_id":"COGS219_2020_18"},{"rt":658.4450000012293,"stimulus":"Images/train_orig.png","key_press":76,"stim_onset":1581985106601,"block":1,"match_type":"non-match","image_category":"train","sound_category":"motorcycle","audio_type":"sound","phase":"test","trial_type":"image-keyboard-response","trial_index":54,"time_elapsed":2475160,"internal_node_id":"0.0-13.0-2.0","match_key":"a","participant_id":"COGS219_2020_18","correct":true},{"rt":null,"stimulus":"Sounds/correct.wav","key_press":null,"block":1,"trial_type":"audio-keyboard-response","trial_index":55,"time_elapsed":2477166,"internal_node_id":"0.0-13.0-3.0","match_key":"a","participant_id":"COGS219_2020_18"},{"rt":null,"stimulus":"Sounds/cow_sound.wav","key_press":null,"block":1,"trial_type":"audio-keyboard-response","trial_index":56,"time_elapsed":2478182,"internal_node_id":"0.0-13.0-0.1","match_key":"a","participant_id":"COGS219_2020_18"},{"rt":null,"stimulus":"<p style=\"font-size: 48px;\">+</p>","key_press":null,"block":1,"trial_type":"html-keyboard-response","trial_index":57,"time_elapsed":2479184,"internal_node_id":"0.0-13.0-1.1","match_key":"a","participant_id":"COGS219_2020_18"},{"rt":575.0499999993481,"stimulus":"Images/car_orig.png","key_press":76,"stim_onset":1581985111285,"block":1,"match_type":"non-match","image_category":"car","sound_category":"cow","audio_type":"sound","phase":"test","trial_type":"image-keyboard-response","trial_index":58,"time_elapsed":2479760,"internal_node_id":"0.0-13.0-2.1","match_key":"a","participant_id":"COGS219_2020_18","correct":true},{"rt":null,"stimulus":"Sounds/correct.wav","key_press":null,"block":1,"trial_type":"audio-keyboard-response","trial_index":59,"time_elapsed":2481772,"internal_node_id":"0.0-13.0-3.1","match_key":"a","participant_id":"COGS219_2020_18"},{"rt":null,"stimulus":"Sounds/train_sound.wav","key_press":null,"block":1,"trial_type":"audio-keyboard-response","trial_index":60,"time_elapsed":2483080,"internal_node_id":"0.0-13.0-0.2","match_key":"a","participant_id":"COGS219_2020_18"},{"rt":null,"stimulus":"<p style=\"font-size: 48px;\">+</p>","key_press":null,"block":1,"trial_type":"html-keyboard-response","trial_index":61,"time_elapsed":2484084,"internal_node_id":"0.0-13.0-1.2","match_key":"a","participant_id":"COGS219_2020_18"},{"rt":451.1199999982491,"stimulus":"Images/train_orig.png","key_press":65,"stim_onset":1581985116184,"block":1,"match_type":"match","image_category":"train","sound_category":"train","audio_type":"sound","phase":"test","trial_type":"image-keyboard-response","trial_index":62,"time_elapsed":2484536,"internal_node_id":"0.0-13.0-2.2","match_key":"a","participant_id":"COGS219_2020_18","correct":true},{"rt":null,"stimulus":"Sounds/correct.wav","key_press":null,"block":1,"trial_type":"audio-keyboard-response","trial_index":63,"time_elapsed":2486548,"internal_node_id":"0.0-13.0-3.2","match_key":"a","participant_id":"COGS219_2020_18"},{"rt":null,"stimulus":"Sounds/train_sound.wav","key_press":null,"block":1,"trial_type":"audio-keyboard-response","trial_index":64,"time_elapsed":2487820,"internal_node_id":"0.0-13.0-0.3","match_key":"a","participant_id":"COGS219_2020_18"},{"rt":null,"stimulus":"<p style=\"font-size: 48px;\">+</p>","key_press":null,"block":1,"trial_type":"html-keyboard-response","trial_index":65,"time_elapsed":2488817,"internal_node_id":"0.0-13.0-1.3","match_key":"a","participant_id":"COGS219_2020_18"},{"rt":541.7199999974109,"stimulus":"Images/train_2.png","key_press":65,"stim_onset":1581985120918,"block":1,"match_type":"match","image_category":"train","sound_category":"train","audio_type":"sound","phase":"test","trial_type":"image-keyboard-response","trial_index":66,"time_elapsed":2489360,"internal_node_id":"0.0-13.0-2.3","match_key":"a","participant_id":"COGS219_2020_18","correct":true},{"rt":null,"stimulus":"Sounds/correct.wav","key_press":null,"block":1,"trial_type":"audio-keyboard-response","trial_index":67,"time_elapsed":2491376,"internal_node_id":"0.0-13.0-3.3","match_key":"a","participant_id":"COGS219_2020_18"},{"rt":null,"stimulus":"Sounds/cat_label.wav","key_press":null,"block":1,"trial_type":"audio-keyboard-response","trial_index":68,"time_elapsed":2492220,"internal_node_id":"0.0-13.0-0.4","match_key":"a","participant_id":"COGS219_2020_18"},{"rt":null,"stimulus":"<p style=\"font-size: 48px;\">+</p>","key_press":null,"block":1,"trial_type":"html-keyboard-response","trial_index":69,"time_elapsed":2493218,"internal_node_id":"0.0-13.0-1.4","match_key":"a","participant_id":"COGS219_2020_18"},{"rt":549.6400000010617,"stimulus":"Images/rooster_3.png","key_press":76,"stim_onset":1581985125318,"block":1,"match_type":"non-match","image_category":"rooster","sound_category":"cat","audio_type":"label","phase":"test","trial_type":"image-keyboard-response","trial_index":70,"time_elapsed":2493768,"internal_node_id":"0.0-13.0-2.4","match_key":"a","participant_id":"COGS219_2020_18","correct":true},{"rt":null,"stimulus":"Sounds/correct.wav","key_press":null,"block":1,"trial_type":"audio-keyboard-response","trial_index":71,"time_elapsed":2495777,"internal_node_id":"0.0-13.0-3.4","match_key":"a","participant_id":"COGS219_2020_18"},{"rt":null,"stimulus":"Sounds/dog_sound.wav","key_press":null,"block":1,"trial_type":"audio-keyboard-response","trial_index":72,"time_elapsed":2496480,"internal_node_id":"0.0-13.0-0.5","match_key":"a","participant_id":"COGS219_2020_18"},{"rt":null,"stimulus":"<p style=\"font-size: 48px;\">+</p>","key_press":null,"block":1,"trial_type":"html-keyboard-response","trial_index":73,"time_elapsed":2497484,"internal_node_id":"0.0-13.0-1.5","match_key":"a","participant_id":"COGS219_2020_18"},{"rt":562.749999997206,"stimulus":"Images/dog_1.png","key_press":65,"stim_onset":1581985129584,"block":1,"match_type":"match","image_category":"dog","sound_category":"dog","audio_type":"sound","phase":"test","trial_type":"image-keyboard-response","trial_index":74,"time_elapsed":2498048,"internal_node_id":"0.0-13.0-2.5","match_key":"a","participant_id":"COGS219_2020_18","correct":true},{"rt":null,"stimulus":"Sounds/correct.wav","key_press":null,"block":1,"trial_type":"audio-keyboard-response","trial_index":75,"time_elapsed":2500057,"internal_node_id":"0.0-13.0-3.5","match_key":"a","participant_id":"COGS219_2020_18"},{"rt":null,"stimulus":"Sounds/train_sound.wav","key_press":null,"block":1,"trial_type":"audio-keyboard-response","trial_index":76,"time_elapsed":2501320,"internal_node_id":"0.0-13.0-0.6","match_key":"a","participant_id":"COGS219_2020_18"},{"rt":null,"stimulus":"<p style=\"font-size: 48px;\">+</p>","key_press":null,"block":1,"trial_type":"html-keyboard-response","trial_index":77,"time_elapsed":2502318,"internal_node_id":"0.0-13.0-1.6","match_key":"a","participant_id":"COGS219_2020_18"},{"rt":513.6549999988638,"stimulus":"Images/frog_2.png","key_press":76,"stim_onset":1581985134418,"block":1,"match_type":"non-match","image_category":"frog","sound_category":"train","audio_type":"sound","phase":"test","trial_type":"image-keyboard-response","trial_index":78,"time_elapsed":2502832,"internal_node_id":"0.0-13.0-2.6","match_key":"a","participant_id":"COGS219_2020_18","correct":true},{"rt":null,"stimulus":"Sounds/correct.wav","key_press":null,"block":1,"trial_type":"audio-keyboard-response","trial_index":79,"time_elapsed":2504845,"internal_node_id":"0.0-13.0-3.6","match_key":"a","participant_id":"COGS219_2020_18"},{"rt":null,"stimulus":"Sounds/cat_label.wav","key_press":null,"block":1,"trial_type":"audio-keyboard-response","trial_index":80,"time_elapsed":2505660,"internal_node_id":"0.0-13.0-0.7","match_key":"a","participant_id":"COGS219_2020_18"},{"rt":null,"stimulus":"<p style=\"font-size: 48px;\">+</p>","key_press":null,"block":1,"trial_type":"html-keyboard-response","trial_index":81,"time_elapsed":2506651,"internal_node_id":"0.0-13.0-1.7","match_key":"a","participant_id":"COGS219_2020_18"},{"rt":484.1300000003539,"stimulus":"Images/cow_1.png","key_press":76,"stim_onset":1581985138751,"block":1,"match_type":"non-match","image_category":"cow","sound_category":"cat","audio_type":"label","phase":"test","trial_type":"image-keyboard-response","trial_index":82,"time_elapsed":2507136,"internal_node_id":"0.0-13.0-2.7","match_key":"a","participant_id":"COGS219_2020_18","correct":true},{"rt":null,"stimulus":"Sounds/correct.wav","key_press":null,"block":1,"trial_type":"audio-keyboard-response","trial_index":83,"time_elapsed":2509148,"internal_node_id":"0.0-13.0-3.7","match_key":"a","participant_id":"COGS219_2020_18"},{"rt":null,"stimulus":"Sounds/frog_label.wav","key_press":null,"block":1,"trial_type":"audio-keyboard-response","trial_index":84,"time_elapsed":2510040,"internal_node_id":"0.0-13.0-0.8","match_key":"a","participant_id":"COGS219_2020_18"},{"rt":null,"stimulus":"<p style=\"font-size: 48px;\">+</p>","key_press":null,"block":1,"trial_type":"html-keyboard-response","trial_index":85,"time_elapsed":2511034,"internal_node_id":"0.0-13.0-1.8","match_key":"a","participant_id":"COGS219_2020_18"},{"rt":437.15499999932945,"stimulus":"Images/frog_3.png","key_press":65,"stim_onset":1581985143135,"block":1,"match_type":"match","image_category":"frog","sound_category":"frog","audio_type":"label","phase":"test","trial_type":"image-keyboard-response","trial_index":86,"time_elapsed":2511472,"internal_node_id":"0.0-13.0-2.8","match_key":"a","participant_id":"COGS219_2020_18","correct":true},{"rt":null,"stimulus":"Sounds/correct.wav","key_press":null,"block":1,"trial_type":"audio-keyboard-response","trial_index":87,"time_elapsed":2513475,"internal_node_id":"0.0-13.0-3.8","match_key":"a","participant_id":"COGS219_2020_18"},{"rt":null,"stimulus":"Sounds/cat_sound.wav","key_press":null,"block":1,"trial_type":"audio-keyboard-response","trial_index":88,"time_elapsed":2514320,"internal_node_id":"0.0-13.0-0.9","match_key":"a","participant_id":"COGS219_2020_18"},{"rt":null,"stimulus":"<p style=\"font-size: 48px;\">+</p>","key_press":null,"block":1,"trial_type":"html-keyboard-response","trial_index":89,"time_elapsed":2515318,"internal_node_id":"0.0-13.0-1.9","match_key":"a","participant_id":"COGS219_2020_18"},{"rt":369.5299999997951,"stimulus":"Images/cat_orig.png","key_press":65,"stim_onset":1581985147418,"block":1,"match_type":"match","image_category":"cat","sound_category":"cat","audio_type":"sound","phase":"test","trial_type":"image-keyboard-response","trial_index":90,"time_elapsed":2515688,"internal_node_id":"0.0-13.0-2.9","match_key":"a","participant_id":"COGS219_2020_18","correct":true},{"rt":null,"stimulus":"Sounds/correct.wav","key_press":null,"block":1,"trial_type":"audio-keyboard-response","trial_index":91,"time_elapsed":2517705,"internal_node_id":"0.0-13.0-3.9","match_key":"a","participant_id":"COGS219_2020_18"},{"rt":null,"stimulus":"Sounds/dog_label.wav","key_press":null,"block":1,"trial_type":"audio-keyboard-response","trial_index":92,"time_elapsed":2518360,"internal_node_id":"0.0-13.0-0.10","match_key":"a","participant_id":"COGS219_2020_18"},{"rt":null,"stimulus":"<p style=\"font-size: 48px;\">+</p>","key_press":null,"block":1,"trial_type":"html-keyboard-response","trial_index":93,"time_elapsed":2519351,"internal_node_id":"0.0-13.0-1.10","match_key":"a","participant_id":"COGS219_2020_18"},{"rt":349.95499999821186,"stimulus":"Images/dog_orig.png","key_press":65,"stim_onset":1581985151451,"block":1,"match_type":"match","image_category":"dog","sound_category":"dog","audio_type":"label","phase":"test","trial_type":"image-keyboard-response","trial_index":94,"time_elapsed":2519704,"internal_node_id":"0.0-13.0-2.10","match_key":"a","participant_id":"COGS219_2020_18","correct":true},{"rt":null,"stimulus":"Sounds/correct.wav","key_press":null,"block":1,"trial_type":"audio-keyboard-response","trial_index":95,"time_elapsed":2521708,"internal_node_id":"0.0-13.0-3.10","match_key":"a","participant_id":"COGS219_2020_18"},{"rt":null,"stimulus":"Sounds/cat_sound.wav","key_press":null,"block":1,"trial_type":"audio-keyboard-response","trial_index":96,"time_elapsed":2522520,"internal_node_id":"0.0-13.0-0.11","match_key":"a","participant_id":"COGS219_2020_18"},{"rt":null,"stimulus":"<p style=\"font-size: 48px;\">+</p>","key_press":null,"block":1,"trial_type":"html-keyboard-response","trial_index":97,"time_elapsed":2523518,"internal_node_id":"0.0-13.0-1.11","match_key":"a","participant_id":"COGS219_2020_18"},{"rt":377.5549999992363,"stimulus":"Images/motorcycle_cartoon.png","key_press":76,"stim_onset":1581985155618,"block":1,"match_type":"non-match","image_category":"motorcycle","sound_category":"cat","audio_type":"sound","phase":"test","trial_type":"image-keyboard-response","trial_index":98,"time_elapsed":2523896,"internal_node_id":"0.0-13.0-2.11","match_key":"a","participant_id":"COGS219_2020_18","correct":true},{"rt":null,"stimulus":"Sounds/correct.wav","key_press":null,"block":1,"trial_type":"audio-keyboard-response","trial_index":99,"time_elapsed":2525906,"internal_node_id":"0.0-13.0-3.11","match_key":"a","participant_id":"COGS219_2020_18"},{"rt":null,"stimulus":"Sounds/whistle_sound.wav","key_press":null,"block":1,"trial_type":"audio-keyboard-response","trial_index":100,"time_elapsed":2526600,"internal_node_id":"0.0-13.0-0.12","match_key":"a","participant_id":"COGS219_2020_18"},{"rt":null,"stimulus":"<p style=\"font-size: 48px;\">+</p>","key_press":null,"block":1,"trial_type":"html-keyboard-response","trial_index":101,"time_elapsed":2527618,"internal_node_id":"0.0-13.0-1.12","match_key":"a","participant_id":"COGS219_2020_18"},{"rt":613.2650000001304,"stimulus":"Images/train_3.png","key_press":65,"stim_onset":1581985159718,"block":1,"match_type":"non-match","image_category":"train","sound_category":"whistle","audio_type":"sound","phase":"test","trial_type":"image-keyboard-response","trial_index":102,"time_elapsed":2528232,"internal_node_id":"0.0-13.0-2.12","match_key":"a","participant_id":"COGS219_2020_18","correct":false},{"rt":null,"stimulus":"Sounds/incorrect.wav","key_press":null,"block":1,"trial_type":"audio-keyboard-response","trial_index":103,"time_elapsed":2530236,"internal_node_id":"0.0-13.0-3.12","match_key":"a","participant_id":"COGS219_2020_18"},{"rt":null,"stimulus":"Sounds/dog_sound.wav","key_press":null,"block":1,"trial_type":"audio-keyboard-response","trial_index":104,"time_elapsed":2530944,"internal_node_id":"0.0-13.0-0.13","match_key":"a","participant_id":"COGS219_2020_18"},{"rt":null,"stimulus":"<p style=\"font-size: 48px;\">+</p>","key_press":null,"block":1,"trial_type":"html-keyboard-response","trial_index":105,"time_elapsed":2531939,"internal_node_id":"0.0-13.0-1.13","match_key":"a","participant_id":"COGS219_2020_18"},{"rt":696.6499999980442,"stimulus":"Images/cat_1.png","key_press":76,"stim_onset":1581985164039,"block":1,"match_type":"non-match","image_category":"cat","sound_category":"dog","audio_type":"sound","phase":"test","trial_type":"image-keyboard-response","trial_index":106,"time_elapsed":2532637,"internal_node_id":"0.0-13.0-2.13","match_key":"a","participant_id":"COGS219_2020_18","correct":true},{"rt":null,"stimulus":"Sounds/correct.wav","key_press":null,"block":1,"trial_type":"audio-keyboard-response","trial_index":107,"time_elapsed":2534652,"internal_node_id":"0.0-13.0-3.13","match_key":"a","participant_id":"COGS219_2020_18"},{"rt":null,"stimulus":"Sounds/whistle_sound.wav","key_press":null,"block":1,"trial_type":"audio-keyboard-response","trial_index":108,"time_elapsed":2535325,"internal_node_id":"0.0-13.0-0.14","match_key":"a","participant_id":"COGS219_2020_18"},{"rt":null,"stimulus":"<p style=\"font-size: 48px;\">+</p>","key_press":null,"block":1,"trial_type":"html-keyboard-response","trial_index":109,"time_elapsed":2536322,"internal_node_id":"0.0-13.0-1.14","match_key":"a","participant_id":"COGS219_2020_18"},{"rt":393.76500000059605,"stimulus":"Images/whistle_cartoon.png","key_press":65,"stim_onset":1581985168423,"block":1,"match_type":"match","image_category":"whistle","sound_category":"whistle","audio_type":"sound","phase":"test","trial_type":"image-keyboard-response","trial_index":110,"time_elapsed":2536717,"internal_node_id":"0.0-13.0-2.14","match_key":"a","participant_id":"COGS219_2020_18","correct":true},{"rt":null,"stimulus":"Sounds/correct.wav","key_press":null,"block":1,"trial_type":"audio-keyboard-response","trial_index":111,"time_elapsed":2538726,"internal_node_id":"0.0-13.0-3.14","match_key":"a","participant_id":"COGS219_2020_18"},{"rt":null,"stimulus":"Sounds/cow_sound.wav","key_press":null,"block":1,"trial_type":"audio-keyboard-response","trial_index":112,"time_elapsed":2539744,"internal_node_id":"0.0-13.0-0.15","match_key":"a","participant_id":"COGS219_2020_18"},{"rt":null,"stimulus":"<p style=\"font-size: 48px;\">+</p>","key_press":null,"block":1,"trial_type":"html-keyboard-response","trial_index":113,"time_elapsed":2540739,"internal_node_id":"0.0-13.0-1.15","match_key":"a","participant_id":"COGS219_2020_18"},{"rt":328.81500000087544,"stimulus":"Images/cow_orig.png","key_press":65,"stim_onset":1581985172839,"block":1,"match_type":"match","image_category":"cow","sound_category":"cow","audio_type":"sound","phase":"test","trial_type":"image-keyboard-response","trial_index":114,"time_elapsed":2541069,"internal_node_id":"0.0-13.0-2.15","match_key":"a","participant_id":"COGS219_2020_18","correct":true},{"rt":null,"stimulus":"Sounds/correct.wav","key_press":null,"block":1,"trial_type":"audio-keyboard-response","trial_index":115,"time_elapsed":2543080,"internal_node_id":"0.0-13.0-3.15","match_key":"a","participant_id":"COGS219_2020_18"},{"rt":null,"stimulus":"Sounds/gun_sound.wav","key_press":null,"block":1,"trial_type":"audio-keyboard-response","trial_index":116,"time_elapsed":2543664,"internal_node_id":"0.0-13.0-0.16","match_key":"a","participant_id":"COGS219_2020_18"},{"rt":null,"stimulus":"<p style=\"font-size: 48px;\">+</p>","key_press":null,"block":1,"trial_type":"html-keyboard-response","trial_index":117,"time_elapsed":2544656,"internal_node_id":"0.0-13.0-1.16","match_key":"a","participant_id":"COGS219_2020_18"},{"rt":611.7950000008568,"stimulus":"Images/whistle_2.png","key_press":76,"stim_onset":1581985176756,"block":1,"match_type":"non-match","image_category":"whistle","sound_category":"gun","audio_type":"sound","phase":"test","trial_type":"image-keyboard-response","trial_index":118,"time_elapsed":2545269,"internal_node_id":"0.0-13.0-2.16","match_key":"a","participant_id":"COGS219_2020_18","correct":true},{"rt":null,"stimulus":"Sounds/correct.wav","key_press":null,"block":1,"trial_type":"audio-keyboard-response","trial_index":119,"time_elapsed":2547276,"internal_node_id":"0.0-13.0-3.16","match_key":"a","participant_id":"COGS219_2020_18"},{"rt":null,"stimulus":"Sounds/train_sound.wav","key_press":null,"block":1,"trial_type":"audio-keyboard-response","trial_index":120,"time_elapsed":2548564,"internal_node_id":"0.0-13.0-0.17","match_key":"a","participant_id":"COGS219_2020_18"},{"rt":null,"stimulus":"<p style=\"font-size: 48px;\">+</p>","key_press":null,"block":1,"trial_type":"html-keyboard-response","trial_index":121,"time_elapsed":2549556,"internal_node_id":"0.0-13.0-1.17","match_key":"a","participant_id":"COGS219_2020_18"},{"rt":431.874999998603,"stimulus":"Images/dog_3.png","key_press":76,"stim_onset":1581985181656,"block":1,"match_type":"non-match","image_category":"dog","sound_category":"train","audio_type":"sound","phase":"test","trial_type":"image-keyboard-response","trial_index":122,"time_elapsed":2549989,"internal_node_id":"0.0-13.0-2.17","match_key":"a","participant_id":"COGS219_2020_18","correct":true},{"rt":null,"stimulus":"Sounds/correct.wav","key_press":null,"block":1,"trial_type":"audio-keyboard-response","trial_index":123,"time_elapsed":2552006,"internal_node_id":"0.0-13.0-3.17","match_key":"a","participant_id":"COGS219_2020_18"},{"rt":null,"stimulus":"Sounds/rooster_sound.wav","key_press":null,"block":1,"trial_type":"audio-keyboard-response","trial_index":124,"time_elapsed":2552704,"internal_node_id":"0.0-13.0-0.18","match_key":"a","participant_id":"COGS219_2020_18"},{"rt":null,"stimulus":"<p style=\"font-size: 48px;\">+</p>","key_press":null,"block":1,"trial_type":"html-keyboard-response","trial_index":125,"time_elapsed":2553723,"internal_node_id":"0.0-13.0-1.18","match_key":"a","participant_id":"COGS219_2020_18"},{"rt":409.214999999851,"stimulus":"Images/dog_cartoon.png","key_press":76,"stim_onset":1581985185823,"block":1,"match_type":"non-match","image_category":"dog","sound_category":"rooster","audio_type":"sound","phase":"test","trial_type":"image-keyboard-response","trial_index":126,"time_elapsed":2554133,"internal_node_id":"0.0-13.0-2.18","match_key":"a","participant_id":"COGS219_2020_18","correct":true},{"rt":null,"stimulus":"Sounds/correct.wav","key_press":null,"block":1,"trial_type":"audio-keyboard-response","trial_index":127,"time_elapsed":2556139,"internal_node_id":"0.0-13.0-3.18","match_key":"a","participant_id":"COGS219_2020_18"},{"rt":null,"stimulus":"Sounds/gun_label.wav","key_press":null,"block":1,"trial_type":"audio-keyboard-response","trial_index":128,"time_elapsed":2556724,"internal_node_id":"0.0-13.0-0.19","match_key":"a","participant_id":"COGS219_2020_18"},{"rt":null,"stimulus":"<p style=\"font-size: 48px;\">+</p>","key_press":null,"block":1,"trial_type":"html-keyboard-response","trial_index":129,"time_elapsed":2557723,"internal_node_id":"0.0-13.0-1.19","match_key":"a","participant_id":"COGS219_2020_18"},{"rt":416.85499999905005,"stimulus":"Images/gun_2.png","key_press":65,"stim_onset":1581985189823,"block":1,"match_type":"match","image_category":"gun","sound_category":"gun","audio_type":"label","phase":"test","trial_type":"image-keyboard-response","trial_index":130,"time_elapsed":2558141,"internal_node_id":"0.0-13.0-2.19","match_key":"a","participant_id":"COGS219_2020_18","correct":true},{"rt":null,"stimulus":"Sounds/correct.wav","key_press":null,"block":1,"trial_type":"audio-keyboard-response","trial_index":131,"time_elapsed":2560155,"internal_node_id":"0.0-13.0-3.19","match_key":"a","participant_id":"COGS219_2020_18"},{"rt":null,"stimulus":"Sounds/motorcycle_sound.wav","key_press":null,"block":1,"trial_type":"audio-keyboard-response","trial_index":132,"time_elapsed":2561264,"internal_node_id":"0.0-13.0-0.20","match_key":"a","participant_id":"COGS219_2020_18"},{"rt":null,"stimulus":"<p style=\"font-size: 48px;\">+</p>","key_press":null,"block":1,"trial_type":"html-keyboard-response","trial_index":133,"time_elapsed":2562256,"internal_node_id":"0.0-13.0-1.20","match_key":"a","participant_id":"COGS219_2020_18"},{"rt":459.820000000298,"stimulus":"Images/dog_2.png","key_press":76,"stim_onset":1581985194356,"block":1,"match_type":"non-match","image_category":"dog","sound_category":"motorcycle","audio_type":"sound","phase":"test","trial_type":"image-keyboard-response","trial_index":134,"time_elapsed":2562717,"internal_node_id":"0.0-13.0-2.20","match_key":"a","participant_id":"COGS219_2020_18","correct":true},{"rt":null,"stimulus":"Sounds/correct.wav","key_press":null,"block":1,"trial_type":"audio-keyboard-response","trial_index":135,"time_elapsed":2564721,"internal_node_id":"0.0-13.0-3.20","match_key":"a","participant_id":"COGS219_2020_18"},{"rt":null,"stimulus":"Sounds/cat_sound.wav","key_press":null,"block":1,"trial_type":"audio-keyboard-response","trial_index":136,"time_elapsed":2565564,"internal_node_id":"0.0-13.0-0.21","match_key":"a","participant_id":"COGS219_2020_18"},{"rt":null,"stimulus":"<p style=\"font-size: 48px;\">+</p>","key_press":null,"block":1,"trial_type":"html-keyboard-response","trial_index":137,"time_elapsed":2566556,"internal_node_id":"0.0-13.0-1.21","match_key":"a","participant_id":"COGS219_2020_18"},{"rt":391.45000000251457,"stimulus":"Images/frog_orig.png","key_press":76,"stim_onset":1581985198656,"block":1,"match_type":"non-match","image_category":"frog","sound_category":"cat","audio_type":"sound","phase":"test","trial_type":"image-keyboard-response","trial_index":138,"time_elapsed":2566949,"internal_node_id":"0.0-13.0-2.21","match_key":"a","participant_id":"COGS219_2020_18","correct":true},{"rt":null,"stimulus":"Sounds/correct.wav","key_press":null,"block":1,"trial_type":"audio-keyboard-response","trial_index":139,"time_elapsed":2568959,"internal_node_id":"0.0-13.0-3.21","match_key":"a","participant_id":"COGS219_2020_18"},{"rt":null,"stimulus":"Sounds/car_sound.wav","key_press":null,"block":1,"trial_type":"audio-keyboard-response","trial_index":140,"time_elapsed":2570044,"internal_node_id":"0.0-13.0-0.22","match_key":"a","participant_id":"COGS219_2020_18"},{"rt":null,"stimulus":"<p style=\"font-size: 48px;\">+</p>","key_press":null,"block":1,"trial_type":"html-keyboard-response","trial_index":141,"time_elapsed":2571039,"internal_node_id":"0.0-13.0-1.22","match_key":"a","participant_id":"COGS219_2020_18"},{"rt":412.20499999728054,"stimulus":"Images/frog_3.png","key_press":76,"stim_onset":1581985203140,"block":1,"match_type":"non-match","image_category":"frog","sound_category":"car","audio_type":"sound","phase":"test","trial_type":"image-keyboard-response","trial_index":142,"time_elapsed":2571453,"internal_node_id":"0.0-13.0-2.22","match_key":"a","participant_id":"COGS219_2020_18","correct":true},{"rt":null,"stimulus":"Sounds/correct.wav","key_press":null,"block":1,"trial_type":"audio-keyboard-response","trial_index":143,"time_elapsed":2573457,"internal_node_id":"0.0-13.0-3.22","match_key":"a","participant_id":"COGS219_2020_18"},{"rt":null,"stimulus":"Sounds/train_sound.wav","key_press":null,"block":1,"trial_type":"audio-keyboard-response","trial_index":144,"time_elapsed":2574744,"internal_node_id":"0.0-13.0-0.23","match_key":"a","participant_id":"COGS219_2020_18"},{"rt":null,"stimulus":"<p style=\"font-size: 48px;\">+</p>","key_press":null,"block":1,"trial_type":"html-keyboard-response","trial_index":145,"time_elapsed":2575740,"internal_node_id":"0.0-13.0-1.23","match_key":"a","participant_id":"COGS219_2020_18"},{"rt":494.875,"stimulus":"Images/train_1.png","key_press":65,"stim_onset":1581985207840,"block":1,"match_type":"match","image_category":"train","sound_category":"train","audio_type":"sound","phase":"test","trial_type":"image-keyboard-response","trial_index":146,"time_elapsed":2576237,"internal_node_id":"0.0-13.0-2.23","match_key":"a","participant_id":"COGS219_2020_18","correct":true},{"rt":null,"stimulus":"Sounds/correct.wav","key_press":null,"block":1,"trial_type":"audio-keyboard-response","trial_index":147,"time_elapsed":2578250,"internal_node_id":"0.0-13.0-3.23","match_key":"a","participant_id":"COGS219_2020_18"},{"rt":null,"stimulus":"Sounds/gun_label.wav","key_press":null,"block":1,"trial_type":"audio-keyboard-response","trial_index":148,"time_elapsed":2578824,"internal_node_id":"0.0-13.0-0.24","match_key":"a","participant_id":"COGS219_2020_18"},{"rt":null,"stimulus":"<p style=\"font-size: 48px;\">+</p>","key_press":null,"block":1,"trial_type":"html-keyboard-response","trial_index":149,"time_elapsed":2579823,"internal_node_id":"0.0-13.0-1.24","match_key":"a","participant_id":"COGS219_2020_18"},{"rt":492.6650000018999,"stimulus":"Images/gun_3.png","key_press":65,"stim_onset":1581985211923,"block":1,"match_type":"match","image_category":"gun","sound_category":"gun","audio_type":"label","phase":"test","trial_type":"image-keyboard-response","trial_index":150,"time_elapsed":2580317,"internal_node_id":"0.0-13.0-2.24","match_key":"a","participant_id":"COGS219_2020_18","correct":true},{"rt":null,"stimulus":"Sounds/correct.wav","key_press":null,"block":1,"trial_type":"audio-keyboard-response","trial_index":151,"time_elapsed":2582334,"internal_node_id":"0.0-13.0-3.24","match_key":"a","participant_id":"COGS219_2020_18"},{"rt":null,"stimulus":"Sounds/dog_label.wav","key_press":null,"block":1,"trial_type":"audio-keyboard-response","trial_index":152,"time_elapsed":2582984,"internal_node_id":"0.0-13.0-0.25","match_key":"a","participant_id":"COGS219_2020_18"},{"rt":null,"stimulus":"<p style=\"font-size: 48px;\">+</p>","key_press":null,"block":1,"trial_type":"html-keyboard-response","trial_index":153,"time_elapsed":2583973,"internal_node_id":"0.0-13.0-1.25","match_key":"a","participant_id":"COGS219_2020_18"},{"rt":446.6099999989383,"stimulus":"Images/dog_3.png","key_press":65,"stim_onset":1581985216073,"block":1,"match_type":"match","image_category":"dog","sound_category":"dog","audio_type":"label","phase":"test","trial_type":"image-keyboard-response","trial_index":154,"time_elapsed":2584421,"internal_node_id":"0.0-13.0-2.25","match_key":"a","participant_id":"COGS219_2020_18","correct":true},{"rt":null,"stimulus":"Sounds/correct.wav","key_press":null,"block":1,"trial_type":"audio-keyboard-response","trial_index":155,"time_elapsed":2586423,"internal_node_id":"0.0-13.0-3.25","match_key":"a","participant_id":"COGS219_2020_18"},{"rt":null,"stimulus":"Sounds/whistle_label.wav","key_press":null,"block":1,"trial_type":"audio-keyboard-response","trial_index":156,"time_elapsed":2587124,"internal_node_id":"0.0-13.0-0.26","match_key":"a","participant_id":"COGS219_2020_18"},{"rt":null,"stimulus":"<p style=\"font-size: 48px;\">+</p>","key_press":null,"block":1,"trial_type":"html-keyboard-response","trial_index":157,"time_elapsed":2588123,"internal_node_id":"0.0-13.0-1.26","match_key":"a","participant_id":"COGS219_2020_18"},{"rt":408.90999999828637,"stimulus":"Images/dog_1.png","key_press":76,"stim_onset":1581985220223,"block":1,"match_type":"non-match","image_category":"dog","sound_category":"whistle","audio_type":"label","phase":"test","trial_type":"image-keyboard-response","trial_index":158,"time_elapsed":2588533,"internal_node_id":"0.0-13.0-2.26","match_key":"a","participant_id":"COGS219_2020_18","correct":true},{"rt":null,"stimulus":"Sounds/correct.wav","key_press":null,"block":1,"trial_type":"audio-keyboard-response","trial_index":159,"time_elapsed":2590541,"internal_node_id":"0.0-13.0-3.26","match_key":"a","participant_id":"COGS219_2020_18"},{"rt":null,"stimulus":"Sounds/frog_sound.wav","key_press":null,"block":1,"trial_type":"audio-keyboard-response","trial_index":160,"time_elapsed":2591444,"internal_node_id":"0.0-13.0-0.27","match_key":"a","participant_id":"COGS219_2020_18"},{"rt":null,"stimulus":"<p style=\"font-size: 48px;\">+</p>","key_press":null,"block":1,"trial_type":"html-keyboard-response","trial_index":161,"time_elapsed":2592439,"internal_node_id":"0.0-13.0-1.27","match_key":"a","participant_id":"COGS219_2020_18"},{"rt":324.05500000109896,"stimulus":"Images/frog_2.png","key_press":65,"stim_onset":1581985224540,"block":1,"match_type":"match","image_category":"frog","sound_category":"frog","audio_type":"sound","phase":"test","trial_type":"image-keyboard-response","trial_index":162,"time_elapsed":2592764,"internal_node_id":"0.0-13.0-2.27","match_key":"a","participant_id":"COGS219_2020_18","correct":true},{"rt":null,"stimulus":"Sounds/correct.wav","key_press":null,"block":1,"trial_type":"audio-keyboard-response","trial_index":163,"time_elapsed":2594780,"internal_node_id":"0.0-13.0-3.27","match_key":"a","participant_id":"COGS219_2020_18"},{"rt":null,"stimulus":"Sounds/frog_sound.wav","key_press":null,"block":1,"trial_type":"audio-keyboard-response","trial_index":164,"time_elapsed":2595664,"internal_node_id":"0.0-13.0-0.28","match_key":"a","participant_id":"COGS219_2020_18"},{"rt":null,"stimulus":"<p style=\"font-size: 48px;\">+</p>","key_press":null,"block":1,"trial_type":"html-keyboard-response","trial_index":165,"time_elapsed":2596656,"internal_node_id":"0.0-13.0-1.28","match_key":"a","participant_id":"COGS219_2020_18"},{"rt":419.3799999994226,"stimulus":"Images/cow_cartoon.png","key_press":76,"stim_onset":1581985228756,"block":1,"match_type":"non-match","image_category":"cow","sound_category":"frog","audio_type":"sound","phase":"test","trial_type":"image-keyboard-response","trial_index":166,"time_elapsed":2597076,"internal_node_id":"0.0-13.0-2.28","match_key":"a","participant_id":"COGS219_2020_18","correct":true},{"rt":null,"stimulus":"Sounds/correct.wav","key_press":null,"block":1,"trial_type":"audio-keyboard-response","trial_index":167,"time_elapsed":2599091,"internal_node_id":"0.0-13.0-3.28","match_key":"a","participant_id":"COGS219_2020_18"},{"rt":null,"stimulus":"Sounds/frog_label.wav","key_press":null,"block":1,"trial_type":"audio-keyboard-response","trial_index":168,"time_elapsed":2599984,"internal_node_id":"0.0-13.0-0.29","match_key":"a","participant_id":"COGS219_2020_18"},{"rt":null,"stimulus":"<p style=\"font-size: 48px;\">+</p>","key_press":null,"block":1,"trial_type":"html-keyboard-response","trial_index":169,"time_elapsed":2600973,"internal_node_id":"0.0-13.0-1.29","match_key":"a","participant_id":"COGS219_2020_18"},{"rt":470.62999999988824,"stimulus":"Images/rooster_2.png","key_press":76,"stim_onset":1581985233073,"block":1,"match_type":"non-match","image_category":"rooster","sound_category":"frog","audio_type":"label","phase":"test","trial_type":"image-keyboard-response","trial_index":170,"time_elapsed":2601445,"internal_node_id":"0.0-13.0-2.29","match_key":"a","participant_id":"COGS219_2020_18","correct":true},{"rt":null,"stimulus":"Sounds/correct.wav","key_press":null,"block":1,"trial_type":"audio-keyboard-response","trial_index":171,"time_elapsed":2603453,"internal_node_id":"0.0-13.0-3.29","match_key":"a","participant_id":"COGS219_2020_18"},{"rt":null,"stimulus":"Sounds/cat_sound.wav","key_press":null,"block":1,"trial_type":"audio-keyboard-response","trial_index":172,"time_elapsed":2604284,"internal_node_id":"0.0-13.0-0.30","match_key":"a","participant_id":"COGS219_2020_18"},{"rt":null,"stimulus":"<p style=\"font-size: 48px;\">+</p>","key_press":null,"block":1,"trial_type":"html-keyboard-response","trial_index":173,"time_elapsed":2605273,"internal_node_id":"0.0-13.0-1.30","match_key":"a","participant_id":"COGS219_2020_18"},{"rt":354.6150000002235,"stimulus":"Images/cat_1.png","key_press":65,"stim_onset":1581985237373,"block":1,"match_type":"match","image_category":"cat","sound_category":"cat","audio_type":"sound","phase":"test","trial_type":"image-keyboard-response","trial_index":174,"time_elapsed":2605629,"internal_node_id":"0.0-13.0-2.30","match_key":"a","participant_id":"COGS219_2020_18","correct":true},{"rt":null,"stimulus":"Sounds/correct.wav","key_press":null,"block":1,"trial_type":"audio-keyboard-response","trial_index":175,"time_elapsed":2607644,"internal_node_id":"0.0-13.0-3.30","match_key":"a","participant_id":"COGS219_2020_18"},{"rt":null,"stimulus":"Sounds/gun_sound.wav","key_press":null,"block":1,"trial_type":"audio-keyboard-response","trial_index":176,"time_elapsed":2608224,"internal_node_id":"0.0-13.0-0.31","match_key":"a","participant_id":"COGS219_2020_18"},{"rt":null,"stimulus":"<p style=\"font-size: 48px;\">+</p>","key_press":null,"block":1,"trial_type":"html-keyboard-response","trial_index":177,"time_elapsed":2609223,"internal_node_id":"0.0-13.0-1.31","match_key":"a","participant_id":"COGS219_2020_18"},{"rt":452.29000000143424,"stimulus":"Images/cow_2.png","key_press":76,"stim_onset":1581985241323,"block":1,"match_type":"non-match","image_category":"cow","sound_category":"gun","audio_type":"sound","phase":"test","trial_type":"image-keyboard-response","trial_index":178,"time_elapsed":2609676,"internal_node_id":"0.0-13.0-2.31","match_key":"a","participant_id":"COGS219_2020_18","correct":true},{"rt":null,"stimulus":"Sounds/correct.wav","key_press":null,"block":1,"trial_type":"audio-keyboard-response","trial_index":179,"time_elapsed":2611687,"internal_node_id":"0.0-13.0-3.31","match_key":"a","participant_id":"COGS219_2020_18"},{"rt":null,"stimulus":"Sounds/dog_label.wav","key_press":null,"block":1,"trial_type":"audio-keyboard-response","trial_index":180,"time_elapsed":2612344,"internal_node_id":"0.0-13.0-0.32","match_key":"a","participant_id":"COGS219_2020_18"},{"rt":null,"stimulus":"<p style=\"font-size: 48px;\">+</p>","key_press":null,"block":1,"trial_type":"html-keyboard-response","trial_index":181,"time_elapsed":2613340,"internal_node_id":"0.0-13.0-1.32","match_key":"a","participant_id":"COGS219_2020_18"},{"rt":471.7750000017695,"stimulus":"Images/motorcycle_orig.png","key_press":76,"stim_onset":1581985245440,"block":1,"match_type":"non-match","image_category":"motorcycle","sound_category":"dog","audio_type":"label","phase":"test","trial_type":"image-keyboard-response","trial_index":182,"time_elapsed":2613813,"internal_node_id":"0.0-13.0-2.32","match_key":"a","participant_id":"COGS219_2020_18","correct":true},{"rt":null,"stimulus":"Sounds/correct.wav","key_press":null,"block":1,"trial_type":"audio-keyboard-response","trial_index":183,"time_elapsed":2615819,"internal_node_id":"0.0-13.0-3.32","match_key":"a","participant_id":"COGS219_2020_18"},{"rt":null,"stimulus":"Sounds/car_label.wav","key_press":null,"block":1,"trial_type":"audio-keyboard-response","trial_index":184,"time_elapsed":2616904,"internal_node_id":"0.0-13.0-0.33","match_key":"a","participant_id":"COGS219_2020_18"},{"rt":null,"stimulus":"<p style=\"font-size: 48px;\">+</p>","key_press":null,"block":1,"trial_type":"html-keyboard-response","trial_index":185,"time_elapsed":2617907,"internal_node_id":"0.0-13.0-1.33","match_key":"a","participant_id":"COGS219_2020_18"},{"rt":424.90500000026077,"stimulus":"Images/car_3.png","key_press":65,"stim_onset":1581985250007,"block":1,"match_type":"match","image_category":"car","sound_category":"car","audio_type":"label","phase":"test","trial_type":"image-keyboard-response","trial_index":186,"time_elapsed":2618332,"internal_node_id":"0.0-13.0-2.33","match_key":"a","participant_id":"COGS219_2020_18","correct":true},{"rt":null,"stimulus":"Sounds/correct.wav","key_press":null,"block":1,"trial_type":"audio-keyboard-response","trial_index":187,"time_elapsed":2620344,"internal_node_id":"0.0-13.0-3.33","match_key":"a","participant_id":"COGS219_2020_18"},{"rt":null,"stimulus":"Sounds/rooster_label.wav","key_press":null,"block":1,"trial_type":"audio-keyboard-response","trial_index":188,"time_elapsed":2621044,"internal_node_id":"0.0-13.0-0.34","match_key":"a","participant_id":"COGS219_2020_18"},{"rt":null,"stimulus":"<p style=\"font-size: 48px;\">+</p>","key_press":null,"block":1,"trial_type":"html-keyboard-response","trial_index":189,"time_elapsed":2622040,"internal_node_id":"0.0-13.0-1.34","match_key":"a","participant_id":"COGS219_2020_18"},{"rt":355.6700000008568,"stimulus":"Images/train_1.png","key_press":76,"stim_onset":1581985254140,"block":1,"match_type":"non-match","image_category":"train","sound_category":"rooster","audio_type":"label","phase":"test","trial_type":"image-keyboard-response","trial_index":190,"time_elapsed":2622396,"internal_node_id":"0.0-13.0-2.34","match_key":"a","participant_id":"COGS219_2020_18","correct":true},{"rt":null,"stimulus":"Sounds/correct.wav","key_press":null,"block":1,"trial_type":"audio-keyboard-response","trial_index":191,"time_elapsed":2624412,"internal_node_id":"0.0-13.0-3.34","match_key":"a","participant_id":"COGS219_2020_18"},{"rt":null,"stimulus":"Sounds/motorcycle_label.wav","key_press":null,"block":1,"trial_type":"audio-keyboard-response","trial_index":192,"time_elapsed":2625544,"internal_node_id":"0.0-13.0-0.35","match_key":"a","participant_id":"COGS219_2020_18"},{"rt":null,"stimulus":"<p style=\"font-size: 48px;\">+</p>","key_press":null,"block":1,"trial_type":"html-keyboard-response","trial_index":193,"time_elapsed":2626540,"internal_node_id":"0.0-13.0-1.35","match_key":"a","participant_id":"COGS219_2020_18"},{"rt":341.88499999791384,"stimulus":"Images/motorcycle_cartoon.png","key_press":65,"stim_onset":1581985258640,"block":1,"match_type":"match","image_category":"motorcycle","sound_category":"motorcycle","audio_type":"label","phase":"test","trial_type":"image-keyboard-response","trial_index":194,"time_elapsed":2626885,"internal_node_id":"0.0-13.0-2.35","match_key":"a","participant_id":"COGS219_2020_18","correct":true},{"rt":null,"stimulus":"Sounds/correct.wav","key_press":null,"block":1,"trial_type":"audio-keyboard-response","trial_index":195,"time_elapsed":2628898,"internal_node_id":"0.0-13.0-3.35","match_key":"a","participant_id":"COGS219_2020_18"},{"rt":null,"stimulus":"Sounds/cow_sound.wav","key_press":null,"block":1,"trial_type":"audio-keyboard-response","trial_index":196,"time_elapsed":2629924,"internal_node_id":"0.0-13.0-0.36","match_key":"a","participant_id":"COGS219_2020_18"},{"rt":null,"stimulus":"<p style=\"font-size: 48px;\">+</p>","key_press":null,"block":1,"trial_type":"html-keyboard-response","trial_index":197,"time_elapsed":2630923,"internal_node_id":"0.0-13.0-1.36","match_key":"a","participant_id":"COGS219_2020_18"},{"rt":360.37500000046566,"stimulus":"Images/dog_orig.png","key_press":76,"stim_onset":1581985263023,"block":1,"match_type":"non-match","image_category":"dog","sound_category":"cow","audio_type":"sound","phase":"test","trial_type":"image-keyboard-response","trial_index":198,"time_elapsed":2631284,"internal_node_id":"0.0-13.0-2.36","match_key":"a","participant_id":"COGS219_2020_18","correct":true},{"rt":null,"stimulus":"Sounds/correct.wav","key_press":null,"block":1,"trial_type":"audio-keyboard-response","trial_index":199,"time_elapsed":2633295,"internal_node_id":"0.0-13.0-3.36","match_key":"a","participant_id":"COGS219_2020_18"},{"rt":null,"stimulus":"Sounds/gun_sound.wav","key_press":null,"block":1,"trial_type":"audio-keyboard-response","trial_index":200,"time_elapsed":2633864,"internal_node_id":"0.0-13.0-0.37","match_key":"a","participant_id":"COGS219_2020_18"},{"rt":null,"stimulus":"<p style=\"font-size: 48px;\">+</p>","key_press":null,"block":1,"trial_type":"html-keyboard-response","trial_index":201,"time_elapsed":2634857,"internal_node_id":"0.0-13.0-1.37","match_key":"a","participant_id":"COGS219_2020_18"},{"rt":362.82000000216067,"stimulus":"Images/gun_1.png","key_press":65,"stim_onset":1581985266957,"block":1,"match_type":"match","image_category":"gun","sound_category":"gun","audio_type":"sound","phase":"test","trial_type":"image-keyboard-response","trial_index":202,"time_elapsed":2635220,"internal_node_id":"0.0-13.0-2.37","match_key":"a","participant_id":"COGS219_2020_18","correct":true},{"rt":null,"stimulus":"Sounds/correct.wav","key_press":null,"block":1,"trial_type":"audio-keyboard-response","trial_index":203,"time_elapsed":2637229,"internal_node_id":"0.0-13.0-3.37","match_key":"a","participant_id":"COGS219_2020_18"},{"rt":null,"stimulus":"Sounds/rooster_label.wav","key_press":null,"block":1,"trial_type":"audio-keyboard-response","trial_index":204,"time_elapsed":2637904,"internal_node_id":"0.0-13.0-0.38","match_key":"a","participant_id":"COGS219_2020_18"},{"rt":null,"stimulus":"<p style=\"font-size: 48px;\">+</p>","key_press":null,"block":1,"trial_type":"html-keyboard-response","trial_index":205,"time_elapsed":2638907,"internal_node_id":"0.0-13.0-1.38","match_key":"a","participant_id":"COGS219_2020_18"},{"rt":408.839999999851,"stimulus":"Images/rooster_orig.png","key_press":65,"stim_onset":1581985271007,"block":1,"match_type":"match","image_category":"rooster","sound_category":"rooster","audio_type":"label","phase":"test","trial_type":"image-keyboard-response","trial_index":206,"time_elapsed":2639317,"internal_node_id":"0.0-13.0-2.38","match_key":"a","participant_id":"COGS219_2020_18","correct":true},{"rt":null,"stimulus":"Sounds/correct.wav","key_press":null,"block":1,"trial_type":"audio-keyboard-response","trial_index":207,"time_elapsed":2641324,"internal_node_id":"0.0-13.0-3.38","match_key":"a","participant_id":"COGS219_2020_18"},{"rt":null,"stimulus":"Sounds/cow_label.wav","key_press":null,"block":1,"trial_type":"audio-keyboard-response","trial_index":208,"time_elapsed":2642344,"internal_node_id":"0.0-13.0-0.39","match_key":"a","participant_id":"COGS219_2020_18"},{"rt":null,"stimulus":"<p style=\"font-size: 48px;\">+</p>","key_press":null,"block":1,"trial_type":"html-keyboard-response","trial_index":209,"time_elapsed":2643340,"internal_node_id":"0.0-13.0-1.39","match_key":"a","participant_id":"COGS219_2020_18"},{"rt":479.6199999982491,"stimulus":"Images/cow_cartoon.png","key_press":65,"stim_onset":1581985275440,"block":1,"match_type":"match","image_category":"cow","sound_category":"cow","audio_type":"label","phase":"test","trial_type":"image-keyboard-response","trial_index":210,"time_elapsed":2643821,"internal_node_id":"0.0-13.0-2.39","match_key":"a","participant_id":"COGS219_2020_18","correct":true},{"rt":null,"stimulus":"Sounds/correct.wav","key_press":null,"block":1,"trial_type":"audio-keyboard-response","trial_index":211,"time_elapsed":2645835,"internal_node_id":"0.0-13.0-3.39","match_key":"a","participant_id":"COGS219_2020_18"},{"rt":null,"stimulus":"Sounds/cat_label.wav","key_press":null,"block":1,"trial_type":"audio-keyboard-response","trial_index":212,"time_elapsed":2646664,"internal_node_id":"0.0-13.0-0.40","match_key":"a","participant_id":"COGS219_2020_18"},{"rt":null,"stimulus":"<p style=\"font-size: 48px;\">+</p>","key_press":null,"block":1,"trial_type":"html-keyboard-response","trial_index":213,"time_elapsed":2647657,"internal_node_id":"0.0-13.0-1.40","match_key":"a","participant_id":"COGS219_2020_18"},{"rt":434.7150000031106,"stimulus":"Images/cat_2.png","key_press":65,"stim_onset":1581985279757,"block":1,"match_type":"match","image_category":"cat","sound_category":"cat","audio_type":"label","phase":"test","trial_type":"image-keyboard-response","trial_index":214,"time_elapsed":2648092,"internal_node_id":"0.0-13.0-2.40","match_key":"a","participant_id":"COGS219_2020_18","correct":true},{"rt":null,"stimulus":"Sounds/correct.wav","key_press":null,"block":1,"trial_type":"audio-keyboard-response","trial_index":215,"time_elapsed":2650107,"internal_node_id":"0.0-13.0-3.40","match_key":"a","participant_id":"COGS219_2020_18"},{"rt":null,"stimulus":"Sounds/frog_sound.wav","key_press":null,"block":1,"trial_type":"audio-keyboard-response","trial_index":216,"time_elapsed":2651024,"internal_node_id":"0.0-13.0-0.41","match_key":"a","participant_id":"COGS219_2020_18"},{"rt":null,"stimulus":"<p style=\"font-size: 48px;\">+</p>","key_press":null,"block":1,"trial_type":"html-keyboard-response","trial_index":217,"time_elapsed":2652023,"internal_node_id":"0.0-13.0-1.41","match_key":"a","participant_id":"COGS219_2020_18"},{"rt":428.1150000025518,"stimulus":"Images/frog_orig.png","key_press":65,"stim_onset":1581985284123,"block":1,"match_type":"match","image_category":"frog","sound_category":"frog","audio_type":"sound","phase":"test","trial_type":"image-keyboard-response","trial_index":218,"time_elapsed":2652452,"internal_node_id":"0.0-13.0-2.41","match_key":"a","participant_id":"COGS219_2020_18","correct":true},{"rt":null,"stimulus":"Sounds/correct.wav","key_press":null,"block":1,"trial_type":"audio-keyboard-response","trial_index":219,"time_elapsed":2654462,"internal_node_id":"0.0-13.0-3.41","match_key":"a","participant_id":"COGS219_2020_18"},{"rt":null,"stimulus":"Sounds/whistle_label.wav","key_press":null,"block":1,"trial_type":"audio-keyboard-response","trial_index":220,"time_elapsed":2655164,"internal_node_id":"0.0-13.0-0.42","match_key":"a","participant_id":"COGS219_2020_18"},{"rt":null,"stimulus":"<p style=\"font-size: 48px;\">+</p>","key_press":null,"block":1,"trial_type":"html-keyboard-response","trial_index":221,"time_elapsed":2656157,"internal_node_id":"0.0-13.0-1.42","match_key":"a","participant_id":"COGS219_2020_18"},{"rt":430.67499999981374,"stimulus":"Images/car_3.png","key_press":76,"stim_onset":1581985288257,"block":1,"match_type":"non-match","image_category":"car","sound_category":"whistle","audio_type":"label","phase":"test","trial_type":"image-keyboard-response","trial_index":222,"time_elapsed":2656588,"internal_node_id":"0.0-13.0-2.42","match_key":"a","participant_id":"COGS219_2020_18","correct":true},{"rt":null,"stimulus":"Sounds/correct.wav","key_press":null,"block":1,"trial_type":"audio-keyboard-response","trial_index":223,"time_elapsed":2658606,"internal_node_id":"0.0-13.0-3.42","match_key":"a","participant_id":"COGS219_2020_18"},{"rt":null,"stimulus":"Sounds/dog_sound.wav","key_press":null,"block":1,"trial_type":"audio-keyboard-response","trial_index":224,"time_elapsed":2659324,"internal_node_id":"0.0-13.0-0.43","match_key":"a","participant_id":"COGS219_2020_18"},{"rt":null,"stimulus":"<p style=\"font-size: 48px;\">+</p>","key_press":null,"block":1,"trial_type":"html-keyboard-response","trial_index":225,"time_elapsed":2660323,"internal_node_id":"0.0-13.0-1.43","match_key":"a","participant_id":"COGS219_2020_18"},{"rt":455.84500000067055,"stimulus":"Images/rooster_1.png","key_press":76,"stim_onset":1581985292423,"block":1,"match_type":"non-match","image_category":"rooster","sound_category":"dog","audio_type":"sound","phase":"test","trial_type":"image-keyboard-response","trial_index":226,"time_elapsed":2660780,"internal_node_id":"0.0-13.0-2.43","match_key":"a","participant_id":"COGS219_2020_18","correct":true},{"rt":null,"stimulus":"Sounds/correct.wav","key_press":null,"block":1,"trial_type":"audio-keyboard-response","trial_index":227,"time_elapsed":2662787,"internal_node_id":"0.0-13.0-3.43","match_key":"a","participant_id":"COGS219_2020_18"},{"rt":null,"stimulus":"Sounds/car_label.wav","key_press":null,"block":1,"trial_type":"audio-keyboard-response","trial_index":228,"time_elapsed":2663864,"internal_node_id":"0.0-13.0-0.44","match_key":"a","participant_id":"COGS219_2020_18"},{"rt":null,"stimulus":"<p style=\"font-size: 48px;\">+</p>","key_press":null,"block":1,"trial_type":"html-keyboard-response","trial_index":229,"time_elapsed":2664857,"internal_node_id":"0.0-13.0-1.44","match_key":"a","participant_id":"COGS219_2020_18"},{"rt":386.76499999919906,"stimulus":"Images/car_1.png","key_press":65,"stim_onset":1581985296957,"block":1,"match_type":"match","image_category":"car","sound_category":"car","audio_type":"label","phase":"test","trial_type":"image-keyboard-response","trial_index":230,"time_elapsed":2665244,"internal_node_id":"0.0-13.0-2.44","match_key":"a","participant_id":"COGS219_2020_18","correct":true},{"rt":null,"stimulus":"Sounds/correct.wav","key_press":null,"block":1,"trial_type":"audio-keyboard-response","trial_index":231,"time_elapsed":2667259,"internal_node_id":"0.0-13.0-3.44","match_key":"a","participant_id":"COGS219_2020_18"},{"rt":null,"stimulus":"Sounds/whistle_label.wav","key_press":null,"block":1,"trial_type":"audio-keyboard-response","trial_index":232,"time_elapsed":2667924,"internal_node_id":"0.0-13.0-0.45","match_key":"a","participant_id":"COGS219_2020_18"},{"rt":null,"stimulus":"<p style=\"font-size: 48px;\">+</p>","key_press":null,"block":1,"trial_type":"html-keyboard-response","trial_index":233,"time_elapsed":2668923,"internal_node_id":"0.0-13.0-1.45","match_key":"a","participant_id":"COGS219_2020_18"},{"rt":447.88499999791384,"stimulus":"Images/whistle_1.png","key_press":65,"stim_onset":1581985301023,"block":1,"match_type":"match","image_category":"whistle","sound_category":"whistle","audio_type":"label","phase":"test","trial_type":"image-keyboard-response","trial_index":234,"time_elapsed":2669372,"internal_node_id":"0.0-13.0-2.45","match_key":"a","participant_id":"COGS219_2020_18","correct":true},{"rt":null,"stimulus":"Sounds/correct.wav","key_press":null,"block":1,"trial_type":"audio-keyboard-response","trial_index":235,"time_elapsed":2671387,"internal_node_id":"0.0-13.0-3.45","match_key":"a","participant_id":"COGS219_2020_18"},{"rt":null,"stimulus":"Sounds/train_label.wav","key_press":null,"block":1,"trial_type":"audio-keyboard-response","trial_index":236,"time_elapsed":2672664,"internal_node_id":"0.0-13.0-0.46","match_key":"a","participant_id":"COGS219_2020_18"},{"rt":null,"stimulus":"<p style=\"font-size: 48px;\">+</p>","key_press":null,"block":1,"trial_type":"html-keyboard-response","trial_index":237,"time_elapsed":2673657,"internal_node_id":"0.0-13.0-1.46","match_key":"a","participant_id":"COGS219_2020_18"},{"rt":434.4700000002049,"stimulus":"Images/car_2.png","key_press":65,"stim_onset":1581985305757,"block":1,"match_type":"non-match","image_category":"car","sound_category":"train","audio_type":"label","phase":"test","trial_type":"image-keyboard-response","trial_index":238,"time_elapsed":2674092,"internal_node_id":"0.0-13.0-2.46","match_key":"a","participant_id":"COGS219_2020_18","correct":false},{"rt":null,"stimulus":"Sounds/incorrect.wav","key_press":null,"block":1,"trial_type":"audio-keyboard-response","trial_index":239,"time_elapsed":2676107,"internal_node_id":"0.0-13.0-3.46","match_key":"a","participant_id":"COGS219_2020_18"},{"rt":null,"stimulus":"Sounds/motorcycle_label.wav","key_press":null,"block":1,"trial_type":"audio-keyboard-response","trial_index":240,"time_elapsed":2677244,"internal_node_id":"0.0-13.0-0.47","match_key":"a","participant_id":"COGS219_2020_18"},{"rt":null,"stimulus":"<p style=\"font-size: 48px;\">+</p>","key_press":null,"block":1,"trial_type":"html-keyboard-response","trial_index":241,"time_elapsed":2678240,"internal_node_id":"0.0-13.0-1.47","match_key":"a","participant_id":"COGS219_2020_18"},{"rt":451.3300000000745,"stimulus":"Images/motorcycle_3.png","key_press":65,"stim_onset":1581985310340,"block":1,"match_type":"match","image_category":"motorcycle","sound_category":"motorcycle","audio_type":"label","phase":"test","trial_type":"image-keyboard-response","trial_index":242,"time_elapsed":2678692,"internal_node_id":"0.0-13.0-2.47","match_key":"a","participant_id":"COGS219_2020_18","correct":true},{"rt":null,"stimulus":"Sounds/correct.wav","key_press":null,"block":1,"trial_type":"audio-keyboard-response","trial_index":243,"time_elapsed":2680704,"internal_node_id":"0.0-13.0-3.47","match_key":"a","participant_id":"COGS219_2020_18"},{"rt":null,"stimulus":"Sounds/car_label.wav","key_press":null,"block":1,"trial_type":"audio-keyboard-response","trial_index":244,"time_elapsed":2681764,"internal_node_id":"0.0-13.0-0.48","match_key":"a","participant_id":"COGS219_2020_18"},{"rt":null,"stimulus":"<p style=\"font-size: 48px;\">+</p>","key_press":null,"block":1,"trial_type":"html-keyboard-response","trial_index":245,"time_elapsed":2682757,"internal_node_id":"0.0-13.0-1.48","match_key":"a","participant_id":"COGS219_2020_18"},{"rt":966.2749999989755,"stimulus":"Images/car_cartoon.png","key_press":65,"stim_onset":1581985314857,"block":1,"match_type":"match","image_category":"car","sound_category":"car","audio_type":"label","phase":"test","trial_type":"image-keyboard-response","trial_index":246,"time_elapsed":2683724,"internal_node_id":"0.0-13.0-2.48","match_key":"a","participant_id":"COGS219_2020_18","correct":true},{"rt":null,"stimulus":"Sounds/correct.wav","key_press":null,"block":1,"trial_type":"audio-keyboard-response","trial_index":247,"time_elapsed":2685734,"internal_node_id":"0.0-13.0-3.48","match_key":"a","participant_id":"COGS219_2020_18"},{"rt":null,"stimulus":"Sounds/car_sound.wav","key_press":null,"block":1,"trial_type":"audio-keyboard-response","trial_index":248,"time_elapsed":2686804,"internal_node_id":"0.0-13.0-0.49","match_key":"a","participant_id":"COGS219_2020_18"},{"rt":null,"stimulus":"<p style=\"font-size: 48px;\">+</p>","key_press":null,"block":1,"trial_type":"html-keyboard-response","trial_index":249,"time_elapsed":2687807,"internal_node_id":"0.0-13.0-1.49","match_key":"a","participant_id":"COGS219_2020_18"},{"rt":804.4799999985844,"stimulus":"Images/whistle_3.png","key_press":76,"stim_onset":1581985319907,"block":1,"match_type":"non-match","image_category":"whistle","sound_category":"car","audio_type":"sound","phase":"test","trial_type":"image-keyboard-response","trial_index":250,"time_elapsed":2688612,"internal_node_id":"0.0-13.0-2.49","match_key":"a","participant_id":"COGS219_2020_18","correct":true},{"rt":null,"stimulus":"Sounds/correct.wav","key_press":null,"block":1,"trial_type":"audio-keyboard-response","trial_index":251,"time_elapsed":2690627,"internal_node_id":"0.0-13.0-3.49","match_key":"a","participant_id":"COGS219_2020_18"},{"rt":null,"stimulus":"Sounds/car_sound.wav","key_press":null,"block":1,"trial_type":"audio-keyboard-response","trial_index":252,"time_elapsed":2691684,"internal_node_id":"0.0-13.0-0.50","match_key":"a","participant_id":"COGS219_2020_18"},{"rt":null,"stimulus":"<p style=\"font-size: 48px;\">+</p>","key_press":null,"block":1,"trial_type":"html-keyboard-response","trial_index":253,"time_elapsed":2692673,"internal_node_id":"0.0-13.0-1.50","match_key":"a","participant_id":"COGS219_2020_18"},{"rt":449.98999999742955,"stimulus":"Images/gun_orig.png","key_press":76,"stim_onset":1581985324774,"block":1,"match_type":"non-match","image_category":"gun","sound_category":"car","audio_type":"sound","phase":"test","trial_type":"image-keyboard-response","trial_index":254,"time_elapsed":2693124,"internal_node_id":"0.0-13.0-2.50","match_key":"a","participant_id":"COGS219_2020_18","correct":true},{"rt":null,"stimulus":"Sounds/correct.wav","key_press":null,"block":1,"trial_type":"audio-keyboard-response","trial_index":255,"time_elapsed":2695139,"internal_node_id":"0.0-13.0-3.50","match_key":"a","participant_id":"COGS219_2020_18"},{"rt":null,"stimulus":"Sounds/motorcycle_label.wav","key_press":null,"block":1,"trial_type":"audio-keyboard-response","trial_index":256,"time_elapsed":2696264,"internal_node_id":"0.0-13.0-0.51","match_key":"a","participant_id":"COGS219_2020_18"},{"rt":null,"stimulus":"<p style=\"font-size: 48px;\">+</p>","key_press":null,"block":1,"trial_type":"html-keyboard-response","trial_index":257,"time_elapsed":2697257,"internal_node_id":"0.0-13.0-1.51","match_key":"a","participant_id":"COGS219_2020_18"},{"rt":386.31000000145286,"stimulus":"Images/motorcycle_orig.png","key_press":65,"stim_onset":1581985329357,"block":1,"match_type":"match","image_category":"motorcycle","sound_category":"motorcycle","audio_type":"label","phase":"test","trial_type":"image-keyboard-response","trial_index":258,"time_elapsed":2697644,"internal_node_id":"0.0-13.0-2.51","match_key":"a","participant_id":"COGS219_2020_18","correct":true},{"rt":null,"stimulus":"Sounds/correct.wav","key_press":null,"block":1,"trial_type":"audio-keyboard-response","trial_index":259,"time_elapsed":2699660,"internal_node_id":"0.0-13.0-3.51","match_key":"a","participant_id":"COGS219_2020_18"},{"rt":null,"stimulus":"Sounds/motorcycle_sound.wav","key_press":null,"block":1,"trial_type":"audio-keyboard-response","trial_index":260,"time_elapsed":2700784,"internal_node_id":"0.0-13.0-0.52","match_key":"a","participant_id":"COGS219_2020_18"},{"rt":null,"stimulus":"<p style=\"font-size: 48px;\">+</p>","key_press":null,"block":1,"trial_type":"html-keyboard-response","trial_index":261,"time_elapsed":2701773,"internal_node_id":"0.0-13.0-1.52","match_key":"a","participant_id":"COGS219_2020_18"},{"rt":389.6150000002235,"stimulus":"Images/motorcycle_2.png","key_press":65,"stim_onset":1581985333874,"block":1,"match_type":"match","image_category":"motorcycle","sound_category":"motorcycle","audio_type":"sound","phase":"test","trial_type":"image-keyboard-response","trial_index":262,"time_elapsed":2702164,"internal_node_id":"0.0-13.0-2.52","match_key":"a","participant_id":"COGS219_2020_18","correct":true},{"rt":null,"stimulus":"Sounds/correct.wav","key_press":null,"block":1,"trial_type":"audio-keyboard-response","trial_index":263,"time_elapsed":2704178,"internal_node_id":"0.0-13.0-3.52","match_key":"a","participant_id":"COGS219_2020_18"},{"rt":null,"stimulus":"Sounds/motorcycle_label.wav","key_press":null,"block":1,"trial_type":"audio-keyboard-response","trial_index":264,"time_elapsed":2705284,"internal_node_id":"0.0-13.0-0.53","match_key":"a","participant_id":"COGS219_2020_18"},{"rt":null,"stimulus":"<p style=\"font-size: 48px;\">+</p>","key_press":null,"block":1,"trial_type":"html-keyboard-response","trial_index":265,"time_elapsed":2706273,"internal_node_id":"0.0-13.0-1.53","match_key":"a","participant_id":"COGS219_2020_18"},{"rt":426.0250000008382,"stimulus":"Images/motorcycle_1.png","key_press":65,"stim_onset":1581985338374,"block":1,"match_type":"match","image_category":"motorcycle","sound_category":"motorcycle","audio_type":"label","phase":"test","trial_type":"image-keyboard-response","trial_index":266,"time_elapsed":2706700,"internal_node_id":"0.0-13.0-2.53","match_key":"a","participant_id":"COGS219_2020_18","correct":true},{"rt":null,"stimulus":"Sounds/correct.wav","key_press":null,"block":1,"trial_type":"audio-keyboard-response","trial_index":267,"time_elapsed":2708709,"internal_node_id":"0.0-13.0-3.53","match_key":"a","participant_id":"COGS219_2020_18"},{"rt":null,"stimulus":"Sounds/car_sound.wav","key_press":null,"block":1,"trial_type":"audio-keyboard-response","trial_index":268,"time_elapsed":2709784,"internal_node_id":"0.0-13.0-0.54","match_key":"a","participant_id":"COGS219_2020_18"},{"rt":null,"stimulus":"<p style=\"font-size: 48px;\">+</p>","key_press":null,"block":1,"trial_type":"html-keyboard-response","trial_index":269,"time_elapsed":2710774,"internal_node_id":"0.0-13.0-1.54","match_key":"a","participant_id":"COGS219_2020_18"},{"rt":437.6299999966286,"stimulus":"Images/cow_orig.png","key_press":76,"stim_onset":1581985342874,"block":1,"match_type":"non-match","image_category":"cow","sound_category":"car","audio_type":"sound","phase":"test","trial_type":"image-keyboard-response","trial_index":270,"time_elapsed":2711212,"internal_node_id":"0.0-13.0-2.54","match_key":"a","participant_id":"COGS219_2020_18","correct":true},{"rt":null,"stimulus":"Sounds/correct.wav","key_press":null,"block":1,"trial_type":"audio-keyboard-response","trial_index":271,"time_elapsed":2713222,"internal_node_id":"0.0-13.0-3.54","match_key":"a","participant_id":"COGS219_2020_18"},{"rt":null,"stimulus":"Sounds/cow_sound.wav","key_press":null,"block":1,"trial_type":"audio-keyboard-response","trial_index":272,"time_elapsed":2714243,"internal_node_id":"0.0-13.0-0.55","match_key":"a","participant_id":"COGS219_2020_18"},{"rt":null,"stimulus":"<p style=\"font-size: 48px;\">+</p>","key_press":null,"block":1,"trial_type":"html-keyboard-response","trial_index":273,"time_elapsed":2715240,"internal_node_id":"0.0-13.0-1.55","match_key":"a","participant_id":"COGS219_2020_18"},{"rt":450.76999999955297,"stimulus":"Images/rooster_orig.png","key_press":76,"stim_onset":1581985347340,"block":1,"match_type":"non-match","image_category":"rooster","sound_category":"cow","audio_type":"sound","phase":"test","trial_type":"image-keyboard-response","trial_index":274,"time_elapsed":2715692,"internal_node_id":"0.0-13.0-2.55","match_key":"a","participant_id":"COGS219_2020_18","correct":true},{"rt":null,"stimulus":"Sounds/correct.wav","key_press":null,"block":1,"trial_type":"audio-keyboard-response","trial_index":275,"time_elapsed":2717704,"internal_node_id":"0.0-13.0-3.55","match_key":"a","participant_id":"COGS219_2020_18"},{"rt":null,"stimulus":"Sounds/rooster_label.wav","key_press":null,"block":1,"trial_type":"audio-keyboard-response","trial_index":276,"time_elapsed":2718403,"internal_node_id":"0.0-13.0-0.56","match_key":"a","participant_id":"COGS219_2020_18"},{"rt":null,"stimulus":"<p style=\"font-size: 48px;\">+</p>","key_press":null,"block":1,"trial_type":"html-keyboard-response","trial_index":277,"time_elapsed":2719407,"internal_node_id":"0.0-13.0-1.56","match_key":"a","participant_id":"COGS219_2020_18"},{"rt":411.97499999869615,"stimulus":"Images/rooster_cartoon.png","key_press":65,"stim_onset":1581985351507,"block":1,"match_type":"match","image_category":"rooster","sound_category":"rooster","audio_type":"label","phase":"test","trial_type":"image-keyboard-response","trial_index":278,"time_elapsed":2719820,"internal_node_id":"0.0-13.0-2.56","match_key":"a","participant_id":"COGS219_2020_18","correct":true},{"rt":null,"stimulus":"Sounds/correct.wav","key_press":null,"block":1,"trial_type":"audio-keyboard-response","trial_index":279,"time_elapsed":2721824,"internal_node_id":"0.0-13.0-3.56","match_key":"a","participant_id":"COGS219_2020_18"},{"rt":null,"stimulus":"Sounds/whistle_sound.wav","key_press":null,"block":1,"trial_type":"audio-keyboard-response","trial_index":280,"time_elapsed":2722523,"internal_node_id":"0.0-13.0-0.57","match_key":"a","participant_id":"COGS219_2020_18"},{"rt":null,"stimulus":"<p style=\"font-size: 48px;\">+</p>","key_press":null,"block":1,"trial_type":"html-keyboard-response","trial_index":281,"time_elapsed":2723523,"internal_node_id":"0.0-13.0-1.57","match_key":"a","participant_id":"COGS219_2020_18"},{"rt":511.3950000014156,"stimulus":"Images/whistle_orig.png","key_press":65,"stim_onset":1581985355624,"block":1,"match_type":"match","image_category":"whistle","sound_category":"whistle","audio_type":"sound","phase":"test","trial_type":"image-keyboard-response","trial_index":282,"time_elapsed":2724036,"internal_node_id":"0.0-13.0-2.57","match_key":"a","participant_id":"COGS219_2020_18","correct":true},{"rt":null,"stimulus":"Sounds/correct.wav","key_press":null,"block":1,"trial_type":"audio-keyboard-response","trial_index":283,"time_elapsed":2726051,"internal_node_id":"0.0-13.0-3.57","match_key":"a","participant_id":"COGS219_2020_18"},{"rt":null,"stimulus":"Sounds/gun_label.wav","key_press":null,"block":1,"trial_type":"audio-keyboard-response","trial_index":284,"time_elapsed":2726623,"internal_node_id":"0.0-13.0-0.58","match_key":"a","participant_id":"COGS219_2020_18"},{"rt":null,"stimulus":"<p style=\"font-size: 48px;\">+</p>","key_press":null,"block":1,"trial_type":"html-keyboard-response","trial_index":285,"time_elapsed":2727623,"internal_node_id":"0.0-13.0-1.58","match_key":"a","participant_id":"COGS219_2020_18"},{"rt":435.4500000006519,"stimulus":"Images/cat_cartoon.png","key_press":76,"stim_onset":1581985359724,"block":1,"match_type":"non-match","image_category":"cat","sound_category":"gun","audio_type":"label","phase":"test","trial_type":"image-keyboard-response","trial_index":286,"time_elapsed":2728060,"internal_node_id":"0.0-13.0-2.58","match_key":"a","participant_id":"COGS219_2020_18","correct":true},{"rt":null,"stimulus":"Sounds/correct.wav","key_press":null,"block":1,"trial_type":"audio-keyboard-response","trial_index":287,"time_elapsed":2730078,"internal_node_id":"0.0-13.0-3.58","match_key":"a","participant_id":"COGS219_2020_18"},{"rt":null,"stimulus":"Sounds/cat_sound.wav","key_press":null,"block":1,"trial_type":"audio-keyboard-response","trial_index":288,"time_elapsed":2730903,"internal_node_id":"0.0-13.0-0.59","match_key":"a","participant_id":"COGS219_2020_18"},{"rt":null,"stimulus":"<p style=\"font-size: 48px;\">+</p>","key_press":null,"block":1,"trial_type":"html-keyboard-response","trial_index":289,"time_elapsed":2731907,"internal_node_id":"0.0-13.0-1.59","match_key":"a","participant_id":"COGS219_2020_18"},{"rt":368.089999999851,"stimulus":"Images/cat_3.png","key_press":65,"stim_onset":1581985364007,"block":1,"match_type":"match","image_category":"cat","sound_category":"cat","audio_type":"sound","phase":"test","trial_type":"image-keyboard-response","trial_index":290,"time_elapsed":2732276,"internal_node_id":"0.0-13.0-2.59","match_key":"a","participant_id":"COGS219_2020_18","correct":true},{"rt":null,"stimulus":"Sounds/correct.wav","key_press":null,"block":1,"trial_type":"audio-keyboard-response","trial_index":291,"time_elapsed":2734280,"internal_node_id":"0.0-13.0-3.59","match_key":"a","participant_id":"COGS219_2020_18"},{"rt":null,"stimulus":"Sounds/dog_sound.wav","key_press":null,"block":1,"trial_type":"audio-keyboard-response","trial_index":292,"time_elapsed":2734984,"internal_node_id":"0.0-13.0-0.60","match_key":"a","participant_id":"COGS219_2020_18"},{"rt":null,"stimulus":"<p style=\"font-size: 48px;\">+</p>","key_press":null,"block":1,"trial_type":"html-keyboard-response","trial_index":293,"time_elapsed":2735974,"internal_node_id":"0.0-13.0-1.60","match_key":"a","participant_id":"COGS219_2020_18"},{"rt":389.14499999722466,"stimulus":"Images/dog_cartoon.png","key_press":65,"stim_onset":1581985368074,"block":1,"match_type":"match","image_category":"dog","sound_category":"dog","audio_type":"sound","phase":"test","trial_type":"image-keyboard-response","trial_index":294,"time_elapsed":2736364,"internal_node_id":"0.0-13.0-2.60","match_key":"a","participant_id":"COGS219_2020_18","correct":true},{"rt":null,"stimulus":"Sounds/correct.wav","key_press":null,"block":1,"trial_type":"audio-keyboard-response","trial_index":295,"time_elapsed":2738377,"internal_node_id":"0.0-13.0-3.60","match_key":"a","participant_id":"COGS219_2020_18"},{"rt":null,"stimulus":"Sounds/train_label.wav","key_press":null,"block":1,"trial_type":"audio-keyboard-response","trial_index":296,"time_elapsed":2739664,"internal_node_id":"0.0-13.0-0.61","match_key":"a","participant_id":"COGS219_2020_18"},{"rt":null,"stimulus":"<p style=\"font-size: 48px;\">+</p>","key_press":null,"block":1,"trial_type":"html-keyboard-response","trial_index":297,"time_elapsed":2740657,"internal_node_id":"0.0-13.0-1.61","match_key":"a","participant_id":"COGS219_2020_18"},{"rt":417.7200000011362,"stimulus":"Images/train_cartoon.png","key_press":65,"stim_onset":1581985372757,"block":1,"match_type":"match","image_category":"train","sound_category":"train","audio_type":"label","phase":"test","trial_type":"image-keyboard-response","trial_index":298,"time_elapsed":2741076,"internal_node_id":"0.0-13.0-2.61","match_key":"a","participant_id":"COGS219_2020_18","correct":true},{"rt":null,"stimulus":"Sounds/correct.wav","key_press":null,"block":1,"trial_type":"audio-keyboard-response","trial_index":299,"time_elapsed":2743090,"internal_node_id":"0.0-13.0-3.61","match_key":"a","participant_id":"COGS219_2020_18"},{"rt":null,"stimulus":"Sounds/car_sound.wav","key_press":null,"block":1,"trial_type":"audio-keyboard-response","trial_index":300,"time_elapsed":2744163,"internal_node_id":"0.0-13.0-0.62","match_key":"a","participant_id":"COGS219_2020_18"},{"rt":null,"stimulus":"<p style=\"font-size: 48px;\">+</p>","key_press":null,"block":1,"trial_type":"html-keyboard-response","trial_index":301,"time_elapsed":2745157,"internal_node_id":"0.0-13.0-1.62","match_key":"a","participant_id":"COGS219_2020_18"},{"rt":604.9999999995343,"stimulus":"Images/car_2.png","key_press":65,"stim_onset":1581985377257,"block":1,"match_type":"match","image_category":"car","sound_category":"car","audio_type":"sound","phase":"test","trial_type":"image-keyboard-response","trial_index":302,"time_elapsed":2745764,"internal_node_id":"0.0-13.0-2.62","match_key":"a","participant_id":"COGS219_2020_18","correct":true},{"rt":null,"stimulus":"Sounds/correct.wav","key_press":null,"block":1,"trial_type":"audio-keyboard-response","trial_index":303,"time_elapsed":2747777,"internal_node_id":"0.0-13.0-3.62","match_key":"a","participant_id":"COGS219_2020_18"},{"rt":null,"stimulus":"Sounds/train_label.wav","key_press":null,"block":1,"trial_type":"audio-keyboard-response","trial_index":304,"time_elapsed":2749023,"internal_node_id":"0.0-13.0-0.63","match_key":"a","participant_id":"COGS219_2020_18"},{"rt":null,"stimulus":"<p style=\"font-size: 48px;\">+</p>","key_press":null,"block":1,"trial_type":"html-keyboard-response","trial_index":305,"time_elapsed":2750024,"internal_node_id":"0.0-13.0-1.63","match_key":"a","participant_id":"COGS219_2020_18"},{"rt":490.910000000149,"stimulus":"Images/train_3.png","key_press":65,"stim_onset":1581985382124,"block":1,"match_type":"match","image_category":"train","sound_category":"train","audio_type":"label","phase":"test","trial_type":"image-keyboard-response","trial_index":306,"time_elapsed":2750516,"internal_node_id":"0.0-13.0-2.63","match_key":"a","participant_id":"COGS219_2020_18","correct":true},{"rt":null,"stimulus":"Sounds/correct.wav","key_press":null,"block":1,"trial_type":"audio-keyboard-response","trial_index":307,"time_elapsed":2752518,"internal_node_id":"0.0-13.0-3.63","match_key":"a","participant_id":"COGS219_2020_18"},{"rt":null,"stimulus":"Sounds/whistle_label.wav","key_press":null,"block":1,"trial_type":"audio-keyboard-response","trial_index":308,"time_elapsed":2753223,"internal_node_id":"0.0-13.0-0.64","match_key":"a","participant_id":"COGS219_2020_18"},{"rt":null,"stimulus":"<p style=\"font-size: 48px;\">+</p>","key_press":null,"block":1,"trial_type":"html-keyboard-response","trial_index":309,"time_elapsed":2754224,"internal_node_id":"0.0-13.0-1.64","match_key":"a","participant_id":"COGS219_2020_18"},{"rt":394.8950000014156,"stimulus":"Images/frog_cartoon.png","key_press":76,"stim_onset":1581985386324,"block":1,"match_type":"non-match","image_category":"frog","sound_category":"whistle","audio_type":"label","phase":"test","trial_type":"image-keyboard-response","trial_index":310,"time_elapsed":2754620,"internal_node_id":"0.0-13.0-2.64","match_key":"a","participant_id":"COGS219_2020_18","correct":true},{"rt":null,"stimulus":"Sounds/correct.wav","key_press":null,"block":1,"trial_type":"audio-keyboard-response","trial_index":311,"time_elapsed":2756625,"internal_node_id":"0.0-13.0-3.64","match_key":"a","participant_id":"COGS219_2020_18"},{"rt":null,"stimulus":"Sounds/dog_label.wav","key_press":null,"block":1,"trial_type":"audio-keyboard-response","trial_index":312,"time_elapsed":2757283,"internal_node_id":"0.0-13.0-0.65","match_key":"a","participant_id":"COGS219_2020_18"},{"rt":null,"stimulus":"<p style=\"font-size: 48px;\">+</p>","key_press":null,"block":1,"trial_type":"html-keyboard-response","trial_index":313,"time_elapsed":2758274,"internal_node_id":"0.0-13.0-1.65","match_key":"a","participant_id":"COGS219_2020_18"},{"rt":408.9000000022352,"stimulus":"Images/gun_3.png","key_press":76,"stim_onset":1581985390374,"block":1,"match_type":"non-match","image_category":"gun","sound_category":"dog","audio_type":"label","phase":"test","trial_type":"image-keyboard-response","trial_index":314,"time_elapsed":2758684,"internal_node_id":"0.0-13.0-2.65","match_key":"a","participant_id":"COGS219_2020_18","correct":true},{"rt":null,"stimulus":"Sounds/correct.wav","key_press":null,"block":1,"trial_type":"audio-keyboard-response","trial_index":315,"time_elapsed":2760694,"internal_node_id":"0.0-13.0-3.65","match_key":"a","participant_id":"COGS219_2020_18"},{"rt":null,"stimulus":"Sounds/rooster_label.wav","key_press":null,"block":1,"trial_type":"audio-keyboard-response","trial_index":316,"time_elapsed":2761383,"internal_node_id":"0.0-13.0-0.66","match_key":"a","participant_id":"COGS219_2020_18"},{"rt":null,"stimulus":"<p style=\"font-size: 48px;\">+</p>","key_press":null,"block":1,"trial_type":"html-keyboard-response","trial_index":317,"time_elapsed":2762374,"internal_node_id":"0.0-13.0-1.66","match_key":"a","participant_id":"COGS219_2020_18"},{"rt":396.89999999990687,"stimulus":"Images/rooster_2.png","key_press":65,"stim_onset":1581985394474,"block":1,"match_type":"match","image_category":"rooster","sound_category":"rooster","audio_type":"label","phase":"test","trial_type":"image-keyboard-response","trial_index":318,"time_elapsed":2762772,"internal_node_id":"0.0-13.0-2.66","match_key":"a","participant_id":"COGS219_2020_18","correct":true},{"rt":null,"stimulus":"Sounds/correct.wav","key_press":null,"block":1,"trial_type":"audio-keyboard-response","trial_index":319,"time_elapsed":2764777,"internal_node_id":"0.0-13.0-3.66","match_key":"a","participant_id":"COGS219_2020_18"},{"rt":null,"stimulus":"Sounds/rooster_label.wav","key_press":null,"block":1,"trial_type":"audio-keyboard-response","trial_index":320,"time_elapsed":2765443,"internal_node_id":"0.0-13.0-0.67","match_key":"a","participant_id":"COGS219_2020_18"},{"rt":null,"stimulus":"<p style=\"font-size: 48px;\">+</p>","key_press":null,"block":1,"trial_type":"html-keyboard-response","trial_index":321,"time_elapsed":2766440,"internal_node_id":"0.0-13.0-1.67","match_key":"a","participant_id":"COGS219_2020_18"},{"rt":386.2000000011176,"stimulus":"Images/car_cartoon.png","key_press":76,"stim_onset":1581985398541,"block":1,"match_type":"non-match","image_category":"car","sound_category":"rooster","audio_type":"label","phase":"test","trial_type":"image-keyboard-response","trial_index":322,"time_elapsed":2766828,"internal_node_id":"0.0-13.0-2.67","match_key":"a","participant_id":"COGS219_2020_18","correct":true},{"rt":null,"stimulus":"Sounds/correct.wav","key_press":null,"block":1,"trial_type":"audio-keyboard-response","trial_index":323,"time_elapsed":2768843,"internal_node_id":"0.0-13.0-3.67","match_key":"a","participant_id":"COGS219_2020_18"},{"rt":null,"stimulus":"Sounds/frog_label.wav","key_press":null,"block":1,"trial_type":"audio-keyboard-response","trial_index":324,"time_elapsed":2769743,"internal_node_id":"0.0-13.0-0.68","match_key":"a","participant_id":"COGS219_2020_18"},{"rt":null,"stimulus":"<p style=\"font-size: 48px;\">+</p>","key_press":null,"block":1,"trial_type":"html-keyboard-response","trial_index":325,"time_elapsed":2770741,"internal_node_id":"0.0-13.0-1.68","match_key":"a","participant_id":"COGS219_2020_18"},{"rt":406.21500000264496,"stimulus":"Images/motorcycle_2.png","key_press":76,"stim_onset":1581985402841,"block":1,"match_type":"non-match","image_category":"motorcycle","sound_category":"frog","audio_type":"label","phase":"test","trial_type":"image-keyboard-response","trial_index":326,"time_elapsed":2771148,"internal_node_id":"0.0-13.0-2.68","match_key":"a","participant_id":"COGS219_2020_18","correct":true},{"rt":null,"stimulus":"Sounds/correct.wav","key_press":null,"block":1,"trial_type":"audio-keyboard-response","trial_index":327,"time_elapsed":2773158,"internal_node_id":"0.0-13.0-3.68","match_key":"a","participant_id":"COGS219_2020_18"},{"rt":null,"stimulus":"Sounds/rooster_label.wav","key_press":null,"block":1,"trial_type":"audio-keyboard-response","trial_index":328,"time_elapsed":2773823,"internal_node_id":"0.0-13.0-0.69","match_key":"a","participant_id":"COGS219_2020_18"},{"rt":null,"stimulus":"<p style=\"font-size: 48px;\">+</p>","key_press":null,"block":1,"trial_type":"html-keyboard-response","trial_index":329,"time_elapsed":2774824,"internal_node_id":"0.0-13.0-1.69","match_key":"a","participant_id":"COGS219_2020_18"},{"rt":409.4750000005588,"stimulus":"Images/gun_1.png","key_press":76,"stim_onset":1581985406924,"block":1,"match_type":"non-match","image_category":"gun","sound_category":"rooster","audio_type":"label","phase":"test","trial_type":"image-keyboard-response","trial_index":330,"time_elapsed":2775235,"internal_node_id":"0.0-13.0-2.69","match_key":"a","participant_id":"COGS219_2020_18","correct":true},{"rt":null,"stimulus":"Sounds/correct.wav","key_press":null,"block":1,"trial_type":"audio-keyboard-response","trial_index":331,"time_elapsed":2777241,"internal_node_id":"0.0-13.0-3.69","match_key":"a","participant_id":"COGS219_2020_18"},{"rt":null,"stimulus":"Sounds/rooster_sound.wav","key_press":null,"block":1,"trial_type":"audio-keyboard-response","trial_index":332,"time_elapsed":2777943,"internal_node_id":"0.0-13.0-0.70","match_key":"a","participant_id":"COGS219_2020_18"},{"rt":null,"stimulus":"<p style=\"font-size: 48px;\">+</p>","key_press":null,"block":1,"trial_type":"html-keyboard-response","trial_index":333,"time_elapsed":2778940,"internal_node_id":"0.0-13.0-1.70","match_key":"a","participant_id":"COGS219_2020_18"},{"rt":381.7700000000186,"stimulus":"Images/rooster_3.png","key_press":65,"stim_onset":1581985411040,"block":1,"match_type":"match","image_category":"rooster","sound_category":"rooster","audio_type":"sound","phase":"test","trial_type":"image-keyboard-response","trial_index":334,"time_elapsed":2779323,"internal_node_id":"0.0-13.0-2.70","match_key":"a","participant_id":"COGS219_2020_18","correct":true},{"rt":null,"stimulus":"Sounds/correct.wav","key_press":null,"block":1,"trial_type":"audio-keyboard-response","trial_index":335,"time_elapsed":2781328,"internal_node_id":"0.0-13.0-3.70","match_key":"a","participant_id":"COGS219_2020_18"},{"rt":null,"stimulus":"Sounds/motorcycle_label.wav","key_press":null,"block":1,"trial_type":"audio-keyboard-response","trial_index":336,"time_elapsed":2782463,"internal_node_id":"0.0-13.0-0.71","match_key":"a","participant_id":"COGS219_2020_18"},{"rt":null,"stimulus":"<p style=\"font-size: 48px;\">+</p>","key_press":null,"block":1,"trial_type":"html-keyboard-response","trial_index":337,"time_elapsed":2783457,"internal_node_id":"0.0-13.0-1.71","match_key":"a","participant_id":"COGS219_2020_18"},{"rt":465.4499999997206,"stimulus":"Images/whistle_cartoon.png","key_press":76,"stim_onset":1581985415557,"block":1,"match_type":"non-match","image_category":"whistle","sound_category":"motorcycle","audio_type":"label","phase":"test","trial_type":"image-keyboard-response","trial_index":338,"time_elapsed":2783924,"internal_node_id":"0.0-13.0-2.71","match_key":"a","participant_id":"COGS219_2020_18","correct":true},{"rt":null,"stimulus":"Sounds/correct.wav","key_press":null,"block":1,"trial_type":"audio-keyboard-response","trial_index":339,"time_elapsed":2785936,"internal_node_id":"0.0-13.0-3.71","match_key":"a","participant_id":"COGS219_2020_18"},{"rt":null,"stimulus":"Sounds/cow_label.wav","key_press":null,"block":1,"trial_type":"audio-keyboard-response","trial_index":340,"time_elapsed":2786963,"internal_node_id":"0.0-13.0-0.72","match_key":"a","participant_id":"COGS219_2020_18"},{"rt":null,"stimulus":"<p style=\"font-size: 48px;\">+</p>","key_press":null,"block":1,"trial_type":"html-keyboard-response","trial_index":341,"time_elapsed":2787957,"internal_node_id":"0.0-13.0-1.72","match_key":"a","participant_id":"COGS219_2020_18"},{"rt":477.2750000008382,"stimulus":"Images/frog_1.png","key_press":76,"stim_onset":1581985420057,"block":1,"match_type":"non-match","image_category":"frog","sound_category":"cow","audio_type":"label","phase":"test","trial_type":"image-keyboard-response","trial_index":342,"time_elapsed":2788436,"internal_node_id":"0.0-13.0-2.72","match_key":"a","participant_id":"COGS219_2020_18","correct":true},{"rt":null,"stimulus":"Sounds/correct.wav","key_press":null,"block":1,"trial_type":"audio-keyboard-response","trial_index":343,"time_elapsed":2790452,"internal_node_id":"0.0-13.0-3.72","match_key":"a","participant_id":"COGS219_2020_18"},{"rt":null,"stimulus":"Sounds/motorcycle_label.wav","key_press":null,"block":1,"trial_type":"audio-keyboard-response","trial_index":344,"time_elapsed":2791563,"internal_node_id":"0.0-13.0-0.73","match_key":"a","participant_id":"COGS219_2020_18"},{"rt":null,"stimulus":"<p style=\"font-size: 48px;\">+</p>","key_press":null,"block":1,"trial_type":"html-keyboard-response","trial_index":345,"time_elapsed":2792557,"internal_node_id":"0.0-13.0-1.73","match_key":"a","participant_id":"COGS219_2020_18"},{"rt":389.21000000135973,"stimulus":"Images/gun_2.png","key_press":76,"stim_onset":1581985424657,"block":1,"match_type":"non-match","image_category":"gun","sound_category":"motorcycle","audio_type":"label","phase":"test","trial_type":"image-keyboard-response","trial_index":346,"time_elapsed":2792947,"internal_node_id":"0.0-13.0-2.73","match_key":"a","participant_id":"COGS219_2020_18","correct":true},{"rt":null,"stimulus":"Sounds/correct.wav","key_press":null,"block":1,"trial_type":"audio-keyboard-response","trial_index":347,"time_elapsed":2794961,"internal_node_id":"0.0-13.0-3.73","match_key":"a","participant_id":"COGS219_2020_18"},{"rt":null,"stimulus":"Sounds/cat_label.wav","key_press":null,"block":1,"trial_type":"audio-keyboard-response","trial_index":348,"time_elapsed":2795803,"internal_node_id":"0.0-13.0-0.74","match_key":"a","participant_id":"COGS219_2020_18"},{"rt":null,"stimulus":"<p