"rt","responses","trial_type","trial_index","time_elapsed","internal_node_id","match_key","participant_id","stimulus","key_press","block","stim_onset","match_type","image_category","sound_category","audio_type","phase","correct"
"2751.959999994142","{""Q0"":""21""}","survey-text","0","2787","0.0-0.0","l","21","","","","","","","","","",""
"168735.1450000133","","html-keyboard-response","1","171540","0.0-1.0","l","21","<p>Use KEYBOARD 1 (match RIGHT)</p><p>Press MATCH to continue.</p>","76","","","","","","","",""
"3019965.1749999905","","html-keyboard-response","2","3191936","0.0-2.0","l","21","<p>Welcome to the experiment.</p>","32","","","","","","","",""
"12409.920000005513","","html-keyboard-response","3","3204351","0.0-3.0","l","21","<p>Thank you for agreeing to participate in this study.</p><p>If during any part of the procedure you must stop for any reason, please inform the researcher that you do not wish to continue.</p>","32","","","","","","","",""
"34799.040000013076","","html-keyboard-response","4","3239150","0.0-4.0","l","21","<p>In this experiment, you will hear various words or sounds and see pictures of various animals and objects.</p><p>Most of the images will be of common everyday objects, such as cars, cats, cows, firearms, frogs, chickens, whistles, trains, motorcycles, and dogs.</p><p>Some of the images will be real-life stills, while others will be cartoons.</p>","32","","","","","","","",""
"15534.76499998942","","html-keyboard-response","5","3254686","0.0-5.0","l","21","<p>Sometimes, the word/sound will match the picture, for example you'll hear a meowing sound and see a cat.</p><p>Other times, the picture will not match the sound or word.</p><p>Your task is to decide as quickly as possible if the word/sound matches the picture or not. </p>","32","","","","","","","",""
"16223.399999988265","","html-keyboard-response","6","3270911","0.0-6.0","l","21","<p>For example, if you hear the word ""cat"" or hear a meowing sound, and then see a picture of a cat, you should press the MATCH key.</p><p> If the sound and image do not match, press the NOT-MATCH key to indicate that there is not a match.</p>","32","","","","","","","",""
"12158.134999976028","","html-keyboard-response","7","3283070","0.0-7.0","l","21","<p>If you make a mistake, you will hear a buzzing sound instead of a more pleasant sound.</p><p> Try to respond as quickly as possible, while making as few errors as possible. If you are making mistakes, you are probably rushing.</p>","32","","","","","","","",""
"12671.219999989495","","html-keyboard-response","8","3295743","0.0-8.0","l","21","<p>Please try to not move or blink your eyes during the presentation of the images. You can move and blink between images.</p><p>During the experiment there will be some breaks during which you can rest your eyes.</p>","32","","","","","","","",""
"10174.484999996144","","html-keyboard-response","9","3305919","0.0-9.0","l","21","<p>We will begin with 10 practice trials. Please let the experimenter know if you have any questions.</p>","32","","","","","","","",""
"null","","audio-keyboard-response","10","3306701","0.0-10.0-0.0","l","21","Sounds/rooster_label.wav","null","0","","","","","","",""
"null","","html-keyboard-response","11","3307699","0.0-10.0-1.0","l","21","<p style=""font-size: 48px;"">+</p>","null","0","","","","","","",""
"1465.6900000115857","","image-keyboard-response","12","3309166","0.0-10.0-2.0","l","21","Images/rooster_3.png","76","0","1582160726781","match","rooster","rooster","label","practice","true"
"null","","audio-keyboard-response","13","3311171","0.0-10.0-3.0","l","21","Sounds/correct.wav","null","0","","","","","","",""
"null","","audio-keyboard-response","14","3311760","0.0-10.0-0.1","l","21","Sounds/gun_sound.wav","null","0","","","","","","",""
"null","","html-keyboard-response","15","3312749","0.0-10.0-1.1","l","21","<p style=""font-size: 48px;"">+</p>","null","0","","","","","","",""
"17393.08999999799","","image-keyboard-response","16","3330143","0.0-10.0-2.1","l","21","Images/gun_cartoon.png","76","0","1582160731831","match","gun","gun","sound","practice","true"
"null","","audio-keyboard-response","17","3332145","0.0-10.0-3.1","l","21","Sounds/correct.wav","null","0","","","","","","",""
"null","","audio-keyboard-response","18","3332994","0.0-10.0-0.2","l","21","Sounds/cat_sound.wav","null","0","","","","","","",""
"null","","html-keyboard-response","19","3333982","0.0-10.0-1.2","l","21","<p style=""font-size: 48px;"">+</p>","null","0","","","","","","",""
"815.2300000069663","","image-keyboard-response","20","3334799","0.0-10.0-2.2","l","21","Images/cat_3.png","76","0","1582160753064","match","cat","cat","sound","practice","true"
"null","","audio-keyboard-response","21","3336804","0.0-10.0-3.2","l","21","Sounds/correct.wav","null","0","","","","","","",""
"null","","audio-keyboard-response","22","3338114","0.0-10.0-0.3","l","21","Sounds/train_sound.wav","null","0","","","","","","",""
"null","","html-keyboard-response","23","3339116","0.0-10.0-1.3","l","21","<p style=""font-size: 48px;"">+</p>","null","0","","","","","","",""
"1490.1650000242516","","image-keyboard-response","24","3340607","0.0-10.0-2.3","l","21","Images/dog_3.png","65","0","1582160758198","non-match","dog","train","sound","practice","true"
"null","","audio-keyboard-response","25","3342624","0.0-10.0-3.3","l","21","Sounds/correct.wav","null","0","","","","","","",""
"null","","audio-keyboard-response","26","3343774","0.0-10.0-0.4","l","21","Sounds/motorcycle_label.wav","null","0","","","","","","",""
"null","","html-keyboard-response","27","3344766","0.0-10.0-1.4","l","21","<p style=""font-size: 48px;"">+</p>","null","0","","","","","","",""
"1407.7050000196323","","image-keyboard-response","28","3346174","0.0-10.0-2.4","l","21","Images/whistle_cartoon.png","65","0","1582160763848","non-match","whistle","motorcycle","label","practice","true"
"null","","audio-keyboard-response","29","3348189","0.0-10.0-3.4","l","21","Sounds/correct.wav","null","0","","","","","","",""
"null","","audio-keyboard-response","30","3348894","0.0-10.0-0.5","l","21","Sounds/whistle_label.wav","null","0","","","","","","",""
"null","","html-keyboard-response","31","3349882","0.0-10.0-1.5","l","21","<p style=""font-size: 48px;"">+</p>","null","0","","","","","","",""
"1219.3649999974295","","image-keyboard-response","32","3351103","0.0-10.0-2.5","l","21","Images/whistle_1.png","76","0","1582160768964","match","whistle","whistle","label","practice","true"
"null","","audio-keyboard-response","33","3353107","0.0-10.0-3.5","l","21","Sounds/correct.wav","null","0","","","","","","",""
"null","","audio-keyboard-response","34","3354114","0.0-10.0-0.6","l","21","Sounds/cow_sound.wav","null","0","","","","","","",""
"null","","html-keyboard-response","35","3355116","0.0-10.0-1.6","l","21","<p style=""font-size: 48px;"">+</p>","null","0","","","","","","",""
"977.9250000137836","","image-keyboard-response","36","3356095","0.0-10.0-2.6","l","21","Images/cow_1.png","76","0","1582160774198","match","cow","cow","sound","practice","true"
"null","","audio-keyboard-response","37","3358107","0.0-10.0-3.6","l","21","Sounds/correct.wav","null","0","","","","","","",""
"null","","audio-keyboard-response","38","3359234","0.0-10.0-0.7","l","21","Sounds/motorcycle_sound.wav","null","0","","","","","","",""
"null","","html-keyboard-response","39","3360233","0.0-10.0-1.7","l","21","<p style=""font-size: 48px;"">+</p>","null","0","","","","","","",""
"1828.2400000020862","","image-keyboard-response","40","3362063","0.0-10.0-2.7","l","21","Images/motorcycle_2.png","76","0","1582160779315","match","motorcycle","motorcycle","sound","practice","true"
"null","","audio-keyboard-response","41","3364072","0.0-10.0-3.7","l","21","Sounds/correct.wav","null","0","","","","","","",""
"null","","audio-keyboard-response","42","3364654","0.0-10.0-0.8","l","21","Sounds/gun_label.wav","null","0","","","","","","",""
"null","","html-keyboard-response","43","3365650","0.0-10.0-1.8","l","21","<p style=""font-size: 48px;"">+</p>","null","0","","","","","","",""
"1020.2749999882653","","image-keyboard-response","44","3366671","0.0-10.0-2.8","l","21","Images/whistle_orig.png","65","0","1582160784732","non-match","whistle","gun","label","practice","true"
"null","","audio-keyboard-response","45","3368687","0.0-10.0-3.8","l","21","Sounds/correct.wav","null","0","","","","","","",""
"null","","audio-keyboard-response","46","3369594","0.0-10.0-0.9","l","21","Sounds/frog_sound.wav","null","0","","","","","","",""
"null","","html-keyboard-response","47","3370583","0.0-10.0-1.9","l","21","<p style=""font-size: 48px;"">+</p>","null","0","","","","","","",""
"1206.7349999854341","","image-keyboard-response","48","3371791","0.0-10.0-2.9","l","21","Images/cow_1.png","65","0","1582160789665","non-match","cow","frog","sound","practice","true"
"null","","audio-keyboard-response","49","3373804","0.0-10.0-3.9","l","21","Sounds/correct.wav","null","0","","","","","","",""
"20387.025000003632","","html-keyboard-response","50","3394192","0.0-11.0","l","21","<p>The rest of the experiment is divided into five blocks with 100 trials in each block. It will take about 45 minutes to complete.</p><p>The experimenter will be in the outer room and you can communicate with them through the monitor if you have any questions or wish to stop the experiment.</p>","32","","","","","","","",""
"45566.98000000324","","html-keyboard-response","51","3439760","0.0-12.0","l","21","<p>Remember, please try not to move or blink your eyes during the presentation of the images. </p><p>At the end of the experiment, we will show you your scores on the task so you can see how you did.</p><p>The experiment will start on the next screen.</p>","32","","","","","","","",""
"null","","audio-keyboard-response","52","3442914","0.0-13.0-0.0","l","21","Sounds/motorcycle_label.wav","null","1","","","","","","",""
"null","","html-keyboard-response","53","3443917","0.0-13.0-1.0","l","21","<p style=""font-size: 48px;"">+</p>","null","1","","","","","","",""
"896.5949999978766","","image-keyboard-response","54","3444815","0.0-13.0-2.0","l","21","Images/whistle_3.png","65","1","1582160862999","non-match","whistle","motorcycle","label","test","true"
"null","","audio-keyboard-response","55","3446822","0.0-13.0-3.0","l","21","Sounds/correct.wav","null","1","","","","","","",""
"null","","audio-keyboard-response","56","3447735","0.0-13.0-0.1","l","21","Sounds/frog_sound.wav","null","1","","","","","","",""
"null","","html-keyboard-response","57","3448734","0.0-13.0-1.1","l","21","<p style=""font-size: 48px;"">+</p>","null","1","","","","","","",""
"656.2050000065938","","image-keyboard-response","58","3449391","0.0-13.0-2.1","l","21","Images/frog_cartoon.png","76","1","1582160867816","match","frog","frog","sound","test","true"
"null","","audio-keyboard-response","59","3451404","0.0-13.0-3.1","l","21","Sounds/correct.wav","null","1","","","","","","",""
"null","","audio-keyboard-response","60","3452514","0.0-13.0-0.2","l","21","Sounds/motorcycle_label.wav","null","1","","","","","","",""
"null","","html-keyboard-response","61","3453517","0.0-13.0-1.2","l","21","<p style=""font-size: 48px;"">+</p>","null","1","","","","","","",""
"1072.8649999946356","","image-keyboard-response","62","3454591","0.0-13.0-2.2","l","21","Images/frog_2.png","65","1","1582160872599","non-match","frog","motorcycle","label","test","true"
"null","","audio-keyboard-response","63","3456605","0.0-13.0-3.2","l","21","Sounds/correct.wav","null","1","","","","","","",""
"null","","audio-keyboard-response","64","3457714","0.0-13.0-0.3","l","21","Sounds/motorcycle_label.wav","null","1","","","","","","",""
"null","","html-keyboard-response","65","3458717","0.0-13.0-1.3","l","21","<p style=""font-size: 48px;"">+</p>","null","1","","","","","","",""
"656.6750000054017","","image-keyboard-response","66","3459375","0.0-13.0-2.3","l","21","Images/motorcycle_cartoon.png","76","1","1582160877799","match","motorcycle","motorcycle","label","test","true"
"null","","audio-keyboard-response","67","3461388","0.0-13.0-3.3","l","21","Sounds/correct.wav","null","1","","","","","","",""
"null","","audio-keyboard-response","68","3462094","0.0-13.0-0.4","l","21","Sounds/dog_sound.wav","null","1","","","","","","",""
"null","","html-keyboard-response","69","3463101","0.0-13.0-1.4","l","21","<p style=""font-size: 48px;"">+</p>","null","1","","","","","","",""
"769.4950000150129","","image-keyboard-response","70","3463871","0.0-13.0-2.4","l","21","Images/rooster_orig.png","65","1","1582160882183","non-match","rooster","dog","sound","test","true"
"null","","audio-keyboard-response","71","3465889","0.0-13.0-3.4","l","21","Sounds/correct.wav","null","1","","","","","","",""
"null","","audio-keyboard-response","72","3466914","0.0-13.0-0.5","l","21","Sounds/cow_label.wav","null","1","","","","","","",""
"null","","html-keyboard-response","73","3467917","0.0-13.0-1.5","l","21","<p style=""font-size: 48px;"">+</p>","null","1","","","","","","",""
"1296.6000000014901","","image-keyboard-response","74","3469215","0.0-13.0-2.5","l","21","Images/cow_3.png","76","1","1582160887000","match","cow","cow","label","test","true"
"null","","audio-keyboard-response","75","3471226","0.0-13.0-3.5","l","21","Sounds/correct.wav","null","1","","","","","","",""
"null","","audio-keyboard-response","76","3471934","0.0-13.0-0.6","l","21","Sounds/whistle_sound.wav","null","1","","","","","","",""
"null","","html-keyboard-response","77","3472934","0.0-13.0-1.6","l","21","<p style=""font-size: 48px;"">+</p>","null","1","","","","","","",""
"744.2250000024214","","image-keyboard-response","78","3473679","0.0-13.0-2.6","l","21","Images/whistle_1.png","76","1","1582160892016","match","whistle","whistle","sound","test","true"
"null","","audio-keyboard-response","79","3475688","0.0-13.0-3.6","l","21","Sounds/correct.wav","null","1","","","","","","",""
"null","","audio-keyboard-response","80","3476354","0.0-13.0-0.7","l","21","Sounds/whistle_sound.wav","null","1","","","","","","",""
"null","","html-keyboard-response","81","3477351","0.0-13.0-1.7","l","21","<p style=""font-size: 48px;"">+</p>","null","1","","","","","","",""
"389.67499998398125","","image-keyboard-response","82","3477743","0.0-13.0-2.7","l","21","Images/motorcycle_orig.png","65","1","1582160896433","non-match","motorcycle","whistle","sound","test","true"
"null","","audio-keyboard-response","83","3479757","0.0-13.0-3.7","l","21","Sounds/correct.wav","null","1","","","","","","",""
"null","","audio-keyboard-response","84","3480774","0.0-13.0-0.8","l","21","Sounds/cow_sound.wav","null","1","","","","","","",""
"null","","html-keyboard-response","85","3481768","0.0-13.0-1.8","l","21","<p style=""font-size: 48px;"">+</p>","null","1","","","","","","",""
"550.8149999952875","","image-keyboard-response","86","3482319","0.0-13.0-2.8","l","21","Images/cow_1.png","76","1","1582160900850","match","cow","cow","sound","test","true"
"null","","audio-keyboard-response","87","3484325","0.0-13.0-3.8","l","21","Sounds/correct.wav","null","1","","","","","","",""
"null","","audio-keyboard-response","88","3485154","0.0-13.0-0.9","l","21","Sounds/cat_sound.wav","null","1","","","","","","",""
"null","","html-keyboard-response","89","3486151","0.0-13.0-1.9","l","21","<p style=""font-size: 48px;"">+</p>","null","1","","","","","","",""
"583.1349999937229","","image-keyboard-response","90","3486735","0.0-13.0-2.9","l","21","Images/car_cartoon.png","65","1","1582160905233","non-match","car","cat","sound","test","true"
"null","","audio-keyboard-response","91","3488740","0.0-13.0-3.9","l","21","Sounds/correct.wav","null","1","","","","","","",""
"null","","audio-keyboard-response","92","3490035","0.0-13.0-0.10","l","21","Sounds/train_sound.wav","null","1","","","","","","",""
"null","","html-keyboard-response","93","3491035","0.0-13.0-1.10","l","21","<p style=""font-size: 48px;"">+</p>","null","1","","","","","","",""
"867.6849999753758","","image-keyboard-response","94","3491904","0.0-13.0-2.10","l","21","Images/motorcycle_3.png","65","1","1582160910118","non-match","motorcycle","train","sound","test","true"
"null","","audio-keyboard-response","95","3493910","0.0-13.0-3.10","l","21","Sounds/correct.wav","null","1","","","","","","",""
"null","","audio-keyboard-response","96","3494995","0.0-13.0-0.11","l","21","Sounds/car_sound.wav","null","1","","","","","","",""
"null","","html-keyboard-response","97","3495986","0.0-13.0-1.11","l","21","<p style=""font-size: 48px;"">+</p>","null","1","","","","","","",""
"957.529999984894","","image-keyboard-response","98","3496944","0.0-13.0-2.11","l","21","Images/rooster_2.png","65","1","1582160915068","non-match","rooster","car","sound","test","true"
"null","","audio-keyboard-response","99","3498956","0.0-13.0-3.11","l","21","Sounds/correct.wav","null","1","","","","","","",""
"null","","audio-keyboard-response","100","3499855","0.0-13.0-0.12","l","21","Sounds/frog_label.wav","null","1","","","","","","",""
"null","","html-keyboard-response","101","3500852","0.0-13.0-1.12","l","21","<p style=""font-size: 48px;"">+</p>","null","1","","","","","","",""
"586.9300000192598","","image-keyboard-response","102","3501440","0.0-13.0-2.12","l","21","Images/frog_2.png","76","1","1582160919934","match","frog","frog","label","test","true"
"null","","audio-keyboard-response","103","3503457","0.0-13.0-3.12","l","21","Sounds/correct.wav","null","1","","","","","","",""
"null","","audio-keyboard-response","104","3504115","0.0-13.0-0.13","l","21","Sounds/dog_label.wav","null","1","","","","","","",""
"null","","html-keyboard-response","105","3505119","0.0-13.0-1.13","l","21","<p style=""font-size: 48px;"">+</p>","null","1","","","","","","",""
"880.1550000207499","","image-keyboard-response","106","3506000","0.0-13.0-2.13","l","21","Images/dog_2.png","76","1","1582160924201","match","dog","dog","label","test","true"
"null","","audio-keyboard-response","107","3508007","0.0-13.0-3.13","l","21","Sounds/correct.wav","null","1","","","","","","",""
"null","","audio-keyboard-response","108","3508716","0.0-13.0-0.14","l","21","Sounds/whistle_label.wav","null","1","","","","","","",""
"null","","html-keyboard-response","109","3509719","0.0-13.0-1.14","l","21","<p style=""font-size: 48px;"">+</p>","null","1","","","","","","",""
"600.63499998115","","image-keyboard-response","110","3510321","0.0-13.0-2.14","l","21","Images/whistle_2.png","76","1","1582160928802","match","whistle","whistle","label","test","true"
"null","","audio-keyboard-response","111","3512324","0.0-13.0-3.14","l","21","Sounds/correct.wav","null","1","","","","","","",""
"null","","audio-keyboard-response","112","3513335","0.0-13.0-0.15","l","21","Sounds/cow_label.wav","null","1","","","","","","",""
"null","","html-keyboard-response","113","3514336","0.0-13.0-1.15","l","21","<p style=""font-size: 48px;"">+</p>","null","1","","","","","","",""
"527.5799999944866","","image-keyboard-response","114","3514864","0.0-13.0-2.15","l","21","Images/cow_orig.png","76","1","1582160933418","match","cow","cow","label","test","true"
"null","","audio-keyboard-response","115","3516872","0.0-13.0-3.15","l","21","Sounds/correct.wav","null","1","","","","","","",""
"null","","audio-keyboard-response","116","3517535","0.0-13.0-0.16","l","21","Sounds/whistle_label.wav","null","1","","","","","","",""
"null","","html-keyboard-response","117","3518536","0.0-13.0-1.16","l","21","<p style=""font-size: 48px;"">+</p>","null","1","","","","","","",""
"535.3100000065751","","image-keyboard-response","118","3519072","0.0-13.0-2.16","l","21","Images/whistle_orig.png","76","1","1582160937618","match","whistle","whistle","label","test","true"
"null","","audio-keyboard-response","119","3521076","0.0-13.0-3.16","l","21","Sounds/correct.wav","null","1","","","","","","",""
"null","","audio-keyboard-response","120","3521975","0.0-13.0-0.17","l","21","Sounds/frog_sound.wav","null","1","","","","","","",""
"null","","html-keyboard-response","121","3522969","0.0-13.0-1.17","l","21","<p style=""font-size: 48px;"">+</p>","null","1","","","","","","",""
"502.15499999467283","","image-keyboard-response","122","3523472","0.0-13.0-2.17","l","21","Images/frog_1.png","76","1","1582160942051","match","frog","frog","sound","test","true"
"null","","audio-keyboard-response","123","3525490","0.0-13.0-3.17","l","21","Sounds/correct.wav","null","1","","","","","","",""
"null","","audio-keyboard-response","124","3526575","0.0-13.0-0.18","l","21","Sounds/car_label.wav","null","1","","","","","","",""
"null","","html-keyboard-response","125","3527569","0.0-13.0-1.18","l","21","<p style=""font-size: 48px;"">+</p>","null","1","","","","","","",""
"654.0149999782443","","image-keyboard-response","126","3528224","0.0-13.0-2.18","l","21","Images/car_orig.png","76","1","1582160946651","match","car","car","label","test","true"
"null","","audio-keyboard-response","127","3530228","0.0-13.0-3.18","l","21","Sounds/correct.wav","null","1","","","","","","",""
"null","","audio-keyboard-response","128","3530816","0.0-13.0-0.19","l","21","Sounds/gun_sound.wav","null","1","","","","","","",""
"null","","html-keyboard-response","129","3531819","0.0-13.0-1.19","l","21","<p style=""font-size: 48px;"">+</p>","null","1","","","","","","",""
"659.734999993816","","image-keyboard-response","130","3532480","0.0-13.0-2.19","l","21","Images/gun_1.png","76","1","1582160950901","match","gun","gun","sound","test","true"
"null","","audio-keyboard-response","131","3534490","0.0-13.0-3.19","l","21","Sounds/correct.wav","null","1","","","","","","",""
"null","","audio-keyboard-response","132","3535195","0.0-13.0-0.20","l","21","Sounds/rooster_label.wav","null","1","","","","","","",""
"null","","html-keyboard-response","133","3536186","0.0-13.0-1.20","l","21","<p style=""font-size: 48px;"">+</p>","null","1","","","","","","",""
"501.53500001784414","","image-keyboard-response","134","3536688","0.0-13.0-2.20","l","21","Images/rooster_cartoon.png","76","1","1582160955268","match","rooster","rooster","label","test","true"
"null","","audio-keyboard-response","135","3538692","0.0-13.0-3.20","l","21","Sounds/correct.wav","null","1","","","","","","",""
"null","","audio-keyboard-response","136","3539715","0.0-13.0-0.21","l","21","Sounds/cow_sound.wav","null","1","","","","","","",""
"null","","html-keyboard-response","137","3540719","0.0-13.0-1.21","l","21","<p style=""font-size: 48px;"">+</p>","null","1","","","","","","",""
"495.82000001054257","","image-keyboard-response","138","3541216","0.0-13.0-2.21","l","21","Images/cow_cartoon.png","76","1","1582160959802","match","cow","cow","sound","test","true"
"null","","audio-keyboard-response","139","3543225","0.0-13.0-3.21","l","21","Sounds/correct.wav","null","1","","","","","","",""
"null","","audio-keyboard-response","140","3544495","0.0-13.0-0.22","l","21","Sounds/train_label.wav","null","1","","","","","","",""
"null","","html-keyboard-response","141","3545486","0.0-13.0-1.22","l","21","<p style=""font-size: 48px;"">+</p>","null","1","","","","","","",""
"849.0750000053085","","image-keyboard-response","142","3546336","0.0-13.0-2.22","l","21","Images/train_orig.png","76","1","1582160964568","match","train","train","label","test","true"
"null","","audio-keyboard-response","143","3548341","0.0-13.0-3.22","l","21","Sounds/correct.wav","null","1","","","","","","",""
"null","","audio-keyboard-response","144","3548915","0.0-13.0-0.23","l","21","Sounds/gun_label.wav","null","1","","","","","","",""
"null","","html-keyboard-response","145","3549920","0.0-13.0-1.23","l","21","<p style=""font-size: 48px;"">+</p>","null","1","","","","","","",""
"527.7899999930523","","image-keyboard-response","146","3550448","0.0-13.0-2.23","l","21","Images/gun_orig.png","76","1","1582160969001","match","gun","gun","label","test","true"
"null","","audio-keyboard-response","147","3552459","0.0-13.0-3.23","l","21","Sounds/correct.wav","null","1","","","","","","",""
"null","","audio-keyboard-response","148","3553295","0.0-13.0-0.24","l","21","Sounds/cat_label.wav","null","1","","","","","","",""
"null","","html-keyboard-response","149","3554286","0.0-13.0-1.24","l","21","<p style=""font-size: 48px;"">+</p>","null","1","","","","","","",""
"593.0400000074878","","image-keyboard-response","150","3554880","0.0-13.0-2.24","l","21","Images/rooster_cartoon.png","65","1","1582160973368","non-match","rooster","cat","label","test","true"
"null","","audio-keyboard-response","151","3556891","0.0-13.0-3.24","l","21","Sounds/correct.wav","null","1","","","","","","",""
"null","","audio-keyboard-response","152","3557735","0.0-13.0-0.25","l","21","Sounds/cat_sound.wav","null","1","","","","","","",""
"null","","html-keyboard-response","153","3558753","0.0-13.0-1.25","l","21","<p style=""font-size: 48px;"">+</p>","null","1","","","","","","",""
"670.4700000118464","","image-keyboard-response","154","3559424","0.0-13.0-2.25","l","21","Images/dog_1.png","65","1","1582160977835","non-match","dog","cat","sound","test","true"
"null","","audio-keyboard-response","155","3561441","0.0-13.0-3.25","l","21","Sounds/correct.wav","null","1","","","","","","",""
"null","","audio-keyboard-response","156","3562335","0.0-13.0-0.26","l","21","Sounds/frog_label.wav","null","1","","","","","","",""
"null","","html-keyboard-response","157","3563353","0.0-13.0-1.26","l","21","<p style=""font-size: 48px;"">+</p>","null","1","","","","","","",""
"646.6099999961443","","image-keyboard-response","158","3564001","0.0-13.0-2.26","l","21","Images/frog_3.png","76","1","1582160982435","match","frog","frog","label","test","true"
"null","","audio-keyboard-response","159","3566008","0.0-13.0-3.26","l","21","Sounds/correct.wav","null","1","","","","","","",""
"null","","audio-keyboard-response","160","3566575","0.0-13.0-0.27","l","21","Sounds/gun_label.wav","null","1","","","","","","",""
"null","","html-keyboard-response","161","3567570","0.0-13.0-1.27","l","21","<p style=""font-size: 48px;"">+</p>","null","1","","","","","","",""
"877.5250000180677","","image-keyboard-response","162","3568448","0.0-13.0-2.27","l","21","Images/whistle_orig.png","65","1","1582160986652","non-match","whistle","gun","label","test","true"
"null","","audio-keyboard-response","163","3570458","0.0-13.0-3.27","l","21","Sounds/correct.wav","null","1","","","","","","",""
"null","","audio-keyboard-response","164","3571175","0.0-13.0-0.28","l","21","Sounds/dog_sound.wav","null","1","","","","","","",""
"null","","html-keyboard-response","165","3572170","0.0-13.0-1.28","l","21","<p style=""font-size: 48px;"">+</p>","null","1","","","","","","",""
"661.629999987781","","image-keyboard-response","166","3572832","0.0-13.0-2.28","l","21","Images/frog_orig.png","65","1","1582160991252","non-match","frog","dog","sound","test","true"
"null","","audio-keyboard-response","167","3574843","0.0-13.0-3.28","l","21","Sounds/correct.wav","null","1","","","","","","",""
"null","","audio-keyboard-response","168","3576115","0.0-13.0-0.29","l","21","Sounds/train_label.wav","null","1","","","","","","",""
"null","","html-keyboard-response","169","3577120","0.0-13.0-1.29","l","21","<p style=""font-size: 48px;"">+</p>","null","1","","","","","","",""
"879.7499999925494","","image-keyboard-response","170","3578000","0.0-13.0-2.29","l","21","Images/train_cartoon.png","76","1","1582160996202","match","train","train","label","test","true"
"null","","audio-keyboard-response","171","3580010","0.0-13.0-3.29","l","21","Sounds/correct.wav","null","1","","","","","","",""
"null","","audio-keyboard-response","172","3581035","0.0-13.0-0.30","l","21","Sounds/cow_label.wav","null","1","","","","","","",""
"null","","html-keyboard-response","173","3582053","0.0-13.0-1.30","l","21","<p style=""font-size: 48px;"">+</p>","null","1","","","","","","",""
"778.2350000049919","","image-keyboard-response","174","3582832","0.0-13.0-2.30","l","21","Images/train_cartoon.png","65","1","1582161001135","non-match","train","cow","label","test","true"
"null","","audio-keyboard-response","175","3584844","0.0-13.0-3.30","l","21","Sounds/correct.wav","null","1","","","","","","",""
"null","","audio-keyboard-response","176","3585915","0.0-13.0-0.31","l","21","Sounds/car_sound.wav","null","1","","","","","","",""
"null","","html-keyboard-response","177","3586920","0.0-13.0-1.31","l","21","<p style=""font-size: 48px;"">+</p>","null","1","","","","","","",""
"583.4750000215136","","image-keyboard-response","178","3587504","0.0-13.0-2.31","l","21","Images/car_3.png","76","1","1582161006002","match","car","car","sound","test","true"
"null","","audio-keyboard-response","179","3589508","0.0-13.0-3.31","l","21","Sounds/correct.wav","null","1","","","","","","",""
"null","","audio-keyboard-response","180","3590415","0.0-13.0-0.32","l","21","Sounds/frog_label.wav","null","1","","","","","","",""
"null","","html-keyboard-response","181","3591420","0.0-13.0-1.32","l","21","<p style=""font-size: 48px;"">+</p>","null","1","","","","","","",""
"627.2599999792874","","image-keyboard-response","182","3592049","0.0-13.0-2.32","l","21","Images/cow_orig.png","65","1","1582161010502","non-match","cow","frog","label","test","true"
"null","","audio-keyboard-response","183","3594059","0.0-13.0-3.32","l","21","Sounds/correct.wav","null","1","","","","","","",""
"null","","audio-keyboard-response","184","3594895","0.0-13.0-0.33","l","21","Sounds/cat_sound.wav","null","1","","","","","","",""
"null","","html-keyboard-response","185","3595887","0.0-13.0-1.33","l","21","<p style=""font-size: 48px;"">+</p>","null","1","","","","","","",""
"624.5249999919906","","image-keyboard-response","186","3596512","0.0-13.0-2.33","l","21","Images/cat_orig.png","76","1","1582161014969","match","cat","cat","sound","test","true"
"null","","audio-keyboard-response","187","3598523","0.0-13.0-3.33","l","21","Sounds/correct.wav","null","1","","","","","","",""
"null","","audio-keyboard-response","188","3599815","0.0-13.0-0.34","l","21","Sounds/train_sound.wav","null","1","","","","","","",""
"null","","html-keyboard-response","189","3600820","0.0-13.0-1.34","l","21","<p style=""font-size: 48px;"">+</p>","null","1","","","","","","",""
"458.9850000045262","","image-keyboard-response","190","3601280","0.0-13.0-2.34","l","21","Images/dog_3.png","65","1","1582161019902","non-match","dog","train","sound","test","true"
"null","","audio-keyboard-response","191","3603290","0.0-13.0-3.34","l","21","Sounds/correct.wav","null","1","","","","","","",""
"null","","audio-keyboard-response","192","3603995","0.0-13.0-0.35","l","21","Sounds/whistle_label.wav","null","1","","","","","","",""
"null","","html-keyboard-response","193","3604987","0.0-13.0-1.35","l","21","<p style=""font-size: 48px;"">+</p>","null","1","","","","","","",""
"644.704999984242","","image-keyboard-response","194","3605632","0.0-13.0-2.35","l","21","Images/whistle_cartoon.png","76","1","1582161024069","match","whistle","whistle","label","test","true"
"null","","audio-keyboard-response","195","3607642","0.0-13.0-3.35","l","21","Sounds/correct.wav","null","1","","","","","","",""
"null","","audio-keyboard-response","196","3608655","0.0-13.0-0.36","l","21","Sounds/cow_sound.wav","null","1","","","","","","",""
"null","","html-keyboard-response","197","3609653","0.0-13.0-1.36","l","21","<p style=""font-size: 48px;"">+</p>","null","1","","","","","","",""
"649.8650000137277","","image-keyboard-response","198","3610304","0.0-13.0-2.36","l","21","Images/whistle_2.png","65","1","1582161028736","non-match","whistle","cow","sound","test","true"
"null","","audio-keyboard-response","199","3612309","0.0-13.0-3.36","l","21","Sounds/correct.wav","null","1","","","","","","",""
"null","","audio-keyboard-response","200","3612896","0.0-13.0-0.37","l","21","Sounds/gun_sound.wav","null","1","","","","","","",""
"null","","html-keyboard-response","201","3613887","0.0-13.0-1.37","l","21","<p style=""font-size: 48px;"">+</p>","null","1","","","","","","",""
"640.4949999996461","","image-keyboard-response","202","3614529","0.0-13.0-2.37","l","21","Images/motorcycle_cartoon.png","65","1","1582161032969","non-match","motorcycle","gun","sound","test","true"
"null","","audio-keyboard-response","203","3616542","0.0-13.0-3.37","l","21","Sounds/correct.wav","null","1","","","","","","",""
"null","","audio-keyboard-response","204","3617256","0.0-13.0-0.38","l","21","Sounds/dog_sound.wav","null","1","","","","","","",""
"null","","html-keyboard-response","205","3618254","0.0-13.0-1.38","l","21","<p style=""font-size: 48px;"">+</p>","null","1","","","","","","",""
"721.9349999791011","","image-keyboard-response","206","3618977","0.0-13.0-2.38","l","21","Images/dog_orig.png","76","1","1582161037336","match","dog","dog","sound","test","true"
"null","","audio-keyboard-response","207","3620991","0.0-13.0-3.38","l","21","Sounds/correct.wav","null","1","","","","","","",""
"null","","audio-keyboard-response","208","3621536","0.0-13.0-0.39","l","21","Sounds/gun_sound.wav","null","1","","","","","","",""
"null","","html-keyboard-response","209","3622554","0.0-13.0-1.39","l","21","<p style=""font-size: 48px;"">+</p>","null","1","","","","","","",""
"629.7999999951571","","image-keyboard-response","210","3623184","0.0-13.0-2.39","l","21","Images/cow_3.png","65","1","1582161041636","non-match","cow","gun","sound","test","true"
"null","","audio-keyboard-response","211","3625194","0.0-13.0-3.39","l","21","Sounds/correct.wav","null","1","","","","","","",""
"null","","audio-keyboard-response","212","3626196","0.0-13.0-0.40","l","21","Sounds/cow_sound.wav","null","1","","","","","","",""
"null","","html-keyboard-response","213","3627187","0.0-13.0-1.40","l","21","<p style=""font-size: 48px;"">+</p>","null","1","","","","","","",""
"700.1200000233948","","image-keyboard-response","214","3627888","0.0-13.0-2.40","l","21","Images/frog_3.png","65","1","1582161046269","non-match","frog","cow","sound","test","true"
"null","","audio-keyboard-response","215","3629895","0.0-13.0-3.40","l","21","Sounds/correct.wav","null","1","","","","","","",""
"null","","audio-keyboard-response","216","3630976","0.0-13.0-0.41","l","21","Sounds/car_sound.wav","null","1","","","","","","",""
"null","","html-keyboard-response","217","3631971","0.0-13.0-1.41","l","21","<p style=""font-size: 48px;"">+</p>","null","1","","","","","","",""
"621.1249999762513","","image-keyboard-response","218","3632593","0.0-13.0-2.41","l","21","Images/train_orig.png","65","1","1582161051053","non-match","train","car","sound","test","true"
"null","","audio-keyboard-response","219","3634608","0.0-13.0-3.41","l","21","Sounds/correct.wav","null","1","","","","","","",""
"null","","audio-keyboard-response","220","3635296","0.0-13.0-0.42","l","21","Sounds/rooster_label.wav","null","1","","","","","","",""
"null","","html-keyboard-response","221","3636287","0.0-13.0-1.42","l","21","<p style=""font-size: 48px;"">+</p>","null","1","","","","","","",""
"448.00000000419095","","image-keyboard-response","222","3636736","0.0-13.0-2.42","l","21","Images/rooster_2.png","76","1","1582161055369","match","rooster","rooster","label","test","true"
"null","","audio-keyboard-response","223","3638743","0.0-13.0-3.42","l","21","Sounds/correct.wav","null","1","","","","","","",""
"null","","audio-keyboard-response","224","3639856","0.0-13.0-0.43","l","21","Sounds/motorcycle_sound.wav","null","1","","","","","","",""
"null","","html-keyboard-response","225","3640854","0.0-13.0-1.43","l","21","<p style=""font-size: 48px;"">+</p>","null","1","","","","","","",""
"1385.4900000151247","","image-keyboard-response","226","3642240","0.0-13.0-2.43","l","21","Images/motorcycle_orig.png","76","1","1582161059936","match","motorcycle","motorcycle","sound","test","true"
"null","","audio-keyboard-response","227","3644247","0.0-13.0-3.43","l","21","Sounds/correct.wav","null","1","","","","","","",""
"null","","audio-keyboard-response","228","3645336","0.0-13.0-0.44","l","21","Sounds/car_label.wav","null","1","","","","","","",""
"null","","html-keyboard-response","229","3646354","0.0-13.0-1.44","l","21","<p style=""font-size: 48px;"">+</p>","null","1","","","","","","",""
"684.305000002496","","image-keyboard-response","230","3647041","0.0-13.0-2.44","l","21","Images/frog_1.png","65","1","1582161065436","non-match","frog","car","label","test","true"
"null","","audio-keyboard-response","231","3649056","0.0-13.0-3.44","l","21","Sounds/correct.wav","null","1","","","","","","",""
"null","","audio-keyboard-response","232","3650155","0.0-13.0-0.45","l","21","Sounds/motorcycle_sound.wav","null","1","","","","","","",""
"null","","html-keyboard-response","233","3651154","0.0-13.0-1.45","l","21","<p style=""font-size: 48px;"">+</p>","null","1","","","","","","",""
"2701.395000010729","","image-keyboard-response","234","3653857","0.0-13.0-2.45","l","21","Images/motorcycle_1.png","65","1","1582161070236","match","motorcycle","motorcycle","sound","test","false"
"null","","audio-keyboard-response","235","3655861","0.0-13.0-3.45","l","21","Sounds/incorrect.wav","null","1","","","","","","",""
"null","","audio-keyboard-response","236","3656996","0.0-13.0-0.46","l","21","Sounds/motorcycle_label.wav","null","1","","","","","","",""
"null","","html-keyboard-response","237","3657987","0.0-13.0-1.46","l","21","<p style=""font-size: 48px;"">+</p>","null","1","","","","","","",""
"620.215000002645","","image-keyboard-response","238","3658609","0.0-13.0-2.46","l","21","Images/motorcycle_3.png","76","1","1582161077070","match","motorcycle","motorcycle","label","test","true"
"null","","audio-keyboard-response","239","3660625","0.0-13.0-3.46","l","21","Sounds/correct.wav","null","1","","","","","","",""
"null","","audio-keyboard-response","240","3661336","0.0-13.0-0.47","l","21","Sounds/whistle_sound.wav","null","1","","","","","","",""
"null","","html-keyboard-response","241","3662338","0.0-13.0-1.47","l","21","<p style=""font-size: 48px;"">+</p>","null","1","","","","","","",""
"893.6499999836087","","image-keyboard-response","242","3663232","0.0-13.0-2.47","l","21","Images/gun_2.png","65","1","1582161081420","non-match","gun","whistle","sound","test","true"
"null","","audio-keyboard-response","243","3665240","0.0-13.0-3.47","l","21","Sounds/correct.wav","null","1","","","","","","",""
"null","","audio-keyboard-response","244","3665936","0.0-13.0-0.48","l","21","Sounds/rooster_sound.wav","null","1","","","","","","",""
"null","","html-keyboard-response","245","3666938","0.0-13.0-1.48","l","21","<p style=""font-size: 48px;"">+</p>","null","1","","","","","","",""
"629.8950000200421","","image-keyboard-response","246","3667569","0.0-13.0-2.48","l","21","Images/car_orig.png","65","1","1582161086020","non-match","car","rooster","sound","test","true"
"null","","audio-keyboard-response","247","3669576","0.0-13.0-3.48","l","21","Sounds/correct.wav","null","1","","","","","","",""
"null","","audio-keyboard-response","248","3670656","0.0-13.0-0.49","l","21","Sounds/car_sound.wav","null","1","","","","","","",""
"null","","html-keyboard-response","249","3671654","0.0-13.0-1.49","l","21","<p style=""font-size: 48px;"">+</p>","null","1","","","","","","",""
"1353.2750000013039","","image-keyboard-response","250","3673009","0.0-13.0-2.49","l","21","Images/car_cartoon.png","76","1","1582161090736","match","car","car","sound","test","true"
"null","","audio-keyboard-response","251","3675011","0.0-13.0-3.49","l","21","Sounds/correct.wav","null","1","","","","","","",""
"null","","audio-keyboard-response","252","3675676","0.0-13.0-0.50","l","21","Sounds/dog_label.wav","null","1","","","","","","",""
"null","","html-keyboard-response","253","3676671","0.0-13.0-1.50","l","21","<p style=""font-size: 48px;"">+</p>","null","1","","","","","","",""
"912.4149999991059","","image-keyboard-response","254","3677585","0.0-13.0-2.50","l","21","Images/dog_1.png","76","1","1582161095753","match","dog","dog","label","test","true"
"null","","audio-keyboard-response","255","3679595","0.0-13.0-3.50","l","21","Sounds/correct.wav","null","1","","","","","","",""
"null","","audio-keyboard-response","256","3680276","0.0-13.0-0.51","l","21","Sounds/rooster_sound.wav","null","1","","","","","","",""
"null","","html-keyboard-response","257","3681271","0.0-13.0-1.51","l","21","<p style=""font-size: 48px;"">+</p>","null","1","","","","","","",""
"568.5649999943562","","image-keyboard-response","258","3681841","0.0-13.0-2.51","l","21","Images/rooster_1.png","76","1","1582161100353","match","rooster","rooster","sound","test","true"
"null","","audio-keyboard-response","259","3683843","0.0-13.0-3.51","l","21","Sounds/correct.wav","null","1","","","","","","",""
"null","","audio-keyboard-response","260","3684736","0.0-13.0-0.52","l","21","Sounds/frog_label.wav","null","1","","","","","","",""
"null","","html-keyboard-response","261","3685738","0.0-13.0-1.52","l","21","<p style=""font-size: 48px;"">+</p>","null","1","","","","","","",""
"709.8700000206009","","image-keyboard-response","262","3686449","0.0-13.0-2.52","l","21","Images/gun_cartoon.png","65","1","1582161104820","non-match","gun","frog","label","test","true"
"null","","audio-keyboard-response","263","3688457","0.0-13.0-3.52","l","21","Sounds/correct.wav","null","1","","","","","","",""
"null","","audio-keyboard-response","264","3689536","0.0-13.0-0.53","l","21","Sounds/car_sound.wav","null","1","","","","","","",""
"null","","html-keyboard-response","265","3690538","0.0-13.0-1.53","l","21","<p style=""font-size: 48px;"">+</p>","null","1","","","","","","",""
"676.7250000266358","","image-keyboard-response","266","3691217","0.0-13.0-2.53","l","21","Images/dog_orig.png","65","1","1582161109620","non-match","dog","car","sound","test","true"
"null","","audio-keyboard-response","267","3693226","0.0-13.0-3.53","l","21","Sounds/correct.wav","null","1","","","","","","",""
"null","","audio-keyboard-response","268","3694316","0.0-13.0-0.54","l","21","Sounds/car_label.wav","null","1","","","","","","",""
"null","","html-keyboard-response","269","3695321","0.0-13.0-1.54","l","21","<p style=""font-size: 48px;"">+</p>","null","1","","","","","","",""
"692.5950000006706","","image-keyboard-response","270","3696017","0.0-13.0-2.54","l","21","Images/whistle_1.png","65","1","1582161114403","non-match","whistle","car","label","test","true"
"null","","audio-keyboard-response","271","3698026","0.0-13.0-3.54","l","21","Sounds/correct.wav","null","1","","","","","","",""
"null","","audio-keyboard-response","272","3699036","0.0-13.0-0.55","l","21","Sounds/cow_sound.wav","null","1","","","","","","",""
"null","","html-keyboard-response","273","3700038","0.0-13.0-1.55","l","21","<p style=""font-size: 48px;"">+</p>","null","1","","","","","","",""
"649.9699999988079","","image-keyboard-response","274","3700689","0.0-13.0-2.55","l","21","Images/cow_2.png","76","1","1582161119120","match","cow","cow","sound","test","true"
"null","","audio-keyboard-response","275","3702693","0.0-13.0-3.55","l","21","Sounds/correct.wav","null","1","","","","","","",""
"null","","audio-keyboard-response","276","3703276","0.0-13.0-0.56","l","21","Sounds/gun_label.wav","null","1","","","","","","",""
"null","","html-keyboard-response","277","3704271","0.0-13.0-1.56","l","21","<p style=""font-size: 48px;"">+</p>","null","1","","","","","","",""
"736.1300000045449","","image-keyboard-response","278","3705009","0.0-13.0-2.56","l","21","Images/frog_cartoon.png","65","1","1582161123353","non-match","frog","gun","label","test","true"
"null","","audio-keyboard-response","279","3707025","0.0-13.0-3.56","l","21","Sounds/correct.wav","null","1","","","","","","",""
"null","","audio-keyboard-response","280","3707716","0.0-13.0-0.57","l","21","Sounds/rooster_sound.wav","null","1","","","","","","",""
"null","","html-keyboard-response","281","3708705","0.0-13.0-1.57","l","21","<p style=""font-size: 48px;"">+</p>","null","1","","","","","","",""
"894.7550000157207","","image-keyboard-response","282","3709601","0.0-13.0-2.57","l","21","Images/rooster_3.png","76","1","1582161127787","match","rooster","rooster","sound","test","true"
"null","","audio-keyboard-response","283","3711611","0.0-13.0-3.57","l","21","Sounds/correct.wav","null","1","","","","","","",""
"null","","audio-keyboard-response","284","3712196","0.0-13.0-0.58","l","21","Sounds/gun_sound.wav","null","1","","","","","","",""
"null","","html-keyboard-response","285","3713188","0.0-13.0-1.58","l","21","<p style=""font-size: 48px;"">+</p>","null","1","","","","","","",""
"859.4999999911524","","image-keyboard-response","286","3714049","0.0-13.0-2.58","l","21","Images/gun_cartoon.png","76","1","1582161132270","match","gun","gun","sound","test","true"
"null","","audio-keyboard-response","287","3716058","0.0-13.0-3.58","l","21","Sounds/correct.wav","null","1","","","","","","",""
"null","","audio-keyboard-response","288","3716756","0.0-13.0-0.59","l","21","Sounds/whistle_sound.wav","null","1","","","","","","",""
"null","","html-keyboard-response","289","3717755","0.0-13.0-1.59","l","21","<p style=""font-size: 48px;"">+</p>","null","1","","","","","","",""
"1028.539999999106","","image-keyboard-response","290","3718784","0.0-13.0-2.59","l","21","Images/cat_cartoon.png","65","1","1582161136837","non-match","cat","whistle","sound","test","true"
"null","","audio-keyboard-response","291","3720794","0.0-13.0-3.59","l","21","Sounds/correct.wav","null","1","","","","","","",""
"null","","audio-keyboard-response","292","3722096","0.0-13.0-0.60","l","21","Sounds/train_sound.wav","null","1","","","","","","",""
"null","","html-keyboard-response","293","3723088","0.0-13.0-1.60","l","21","<p style=""font-size: 48px;"">+</p>","null","1","","","","","","",""
"847.2799999872223","","image-keyboard-response","294","3723936","0.0-13.0-2.60","l","21","Images/train_1.png","76","1","1582161142170","match","train","train","sound","test","true"
"null","","audio-keyboard-response","295","3725945","0.0-13.0-3.60","l","21","Sounds/correct.wav","null","1","","","","","","",""
"null","","audio-keyboard-response","296","3726636","0.0-13.0-0.61","l","21","Sounds/rooster_sound.wav","null","1","","","","","","",""
"null","","html-keyboard-response","297","3727638","0.0-13.0-1.61","l","21","<p style=""font-size: 48px;"">+</p>","null","1","","","","","","",""
"921.4700000016019","","image-keyboard-response","298","3728561","0.0-13.0-2.61","l","21","Images/motorcycle_1.png","65","1","1582161146720","non-match","motorcycle","rooster","sound","test","true"
"null","","audio-keyboard-response","299","3730577","0.0-13.0-3.61","l","21","Sounds/correct.wav","null","1","","","","","","",""
"null","","audio-keyboard-response","300","3731596","0.0-13.0-0.62","l","21","Sounds/cow_label.wav","null","1","","","","","","",""
"null","","html-keyboard-response","301","3732588","0.0-13.0-1.62","l","21","<p style=""font-size: 48px;"">+</p>","null","1","","","","","","",""
"563.3349999841303","","image-keyboard-response","302","3733152","0.0-13.0-2.62","l","21","Images/dog_2.png","65","1","1582161151670","non-match","dog","cow","label","test","true"
"null","","audio-keyboard-response","303","3735162","0.0-13.0-3.62","l","21","Sounds/correct.wav","null","1","","","","","","",""
"null","","audio-keyboard-response","304","3736276","0.0-13.0-0.63","l","21","Sounds/motorcycle_sound.wav","null","1","","","","","","",""
"null","","html-keyboard-response","305","3737272","0.0-13.0-1.63","l","21","<p style=""font-size: 48px;"">+</p>","null","1","","","","","","",""
"567.8900000052527","","image-keyboard-response","306","3737841","0.0-13.0-2.63","l","21","Images/cat_2.png","65","1","1582161156354","non-match","cat","motorcycle","sound","test","true"
"null","","audio-keyboard-response","307","3739843","0.0-13.0-3.63","l","21","Sounds/correct.wav","null","1","","","","","","",""
"null","","audio-keyboard-response","308","3740756","0.0-13.0-0.64","l","21","Sounds/frog_sound.wav","null","1","","","","","","",""
"null","","html-keyboard-response","309","3741755","0.0-13.0-1.64","l","21","<p style=""font-size: 48px;"">+</p>","null","1","","","","","","",""
"692.8149999873713","","image-keyboard-response","310","3742449","0.0-13.0-2.64","l","21","Images/rooster_1.png","65","1","1582161160837","non-match","rooster","frog","sound","test","true"
"null","","audio-keyboard-response","311","3744458","0.0-13.0-3.64","l","21","Sounds/correct.wav","null","1","","","","","","",""
"null","","audio-keyboard-response","312","3745556","0.0-13.0-0.65","l","21","Sounds/motorcycle_sound.wav","null","1","","","","","","",""
"null","","html-keyboard-response","313","3746555","0.0-13.0-1.65","l","21","<p style=""font-size: 48px;"">+</p>","null","1","","","","","","",""
"820.3100000098348","","image-keyboard-response","314","3747376","0.0-13.0-2.65","l","21","Images/train_1.png","76","1","1582161165637","non-match","train","motorcycle","sound","test","false"
"null","","audio-keyboard-response","315","3749392","0.0-13.0-3.65","l","21","Sounds/incorrect.wav","null","1","","","","","","",""
"null","","audio-keyboard-response","316","3750056","0.0-13.0-0.66","l","21","Sounds/dog_label.wav","null","1","","","","","","",""
"null","","html-keyboard-response","317","3751055","0.0-13.0-1.66","l","21","<p style=""font-size: 48px;"">+</p>","null","1","","","","","","",""
"656.3900000182912","","image-keyboard-response","318","3751713","0.0-13.0-2.66","l","21","Images/train_2.png","65","1","1582161170137","non-match","train","dog","label","test","true"
"null","","audio-keyboard-response","319","3753728","0.0-13.0-3.66","l","21","Sounds/correct.wav","null","1","","","","","","",""
"null","","audio-keyboard-response","320","3754816","0.0-13.0-0.67","l","21","Sounds/car_label.wav","null","1","","","","","","",""
"null","","html-keyboard-response","321","3755822","0.0-13.0-1.67","l","21","<p style=""font-size: 48px;"">+</p>","null","1","","","","","","",""
"593.4649999840185","","image-keyboard-response","322","3756417","0.0-13.0-2.67","l","21","Images/car_1.png","76","1","1582161174904","match","car","car","label","test","true"
"null","","audio-keyboard-response","323","3758426","0.0-13.0-3.67","l","21","Sounds/correct.wav","null","1","","","","","","",""
"null","","audio-keyboard-response","324","3759116","0.0-13.0-0.68","l","21","Sounds/rooster_label.wav","null","1","","","","","","",""
"null","","html-keyboard-response","325","3760105","0.0-13.0-1.68","l","21","<p style=""font-size: 48px;"">+</p>","null","1","","","","","","",""
"614.4799999892712","","image-keyboard-response","326","3760721","0.0-13.0-2.68","l","21","Images/gun_3.png","65","1","1582161179187","non-match","gun","rooster","label","test","true"
"null","","audio-keyboard-response","327","3762730","0.0-13.0-3.68","l","21","Sounds/correct.wav","null","1","","","","","","",""
"null","","audio-keyboard-response","328","3763316","0.0-13.0-0.69","l","21","Sounds/gun_label.wav","null","1","","","","","","",""
"null","","html-keyboard-response","329","3764305","0.0-13.0-1.69","l","21","<p style=""font-size: 48px;"">+</p>","null","1","","","","","","",""
"606.1850000112318","","image-keyboard-response","330","3764912","0.0-13.0-2.69","l","21","Images/cat_1.png","65","1","1582161183387","non-match","cat","gun","label","test","true"
"null","","audio-keyboard-response","331","3766926","0.0-13.0-3.69","l","21","Sounds/correct.wav","null","1","","","","","","",""
"null","","audio-keyboard-response","332","3767576","0.0-13.0-0.70","l","21","Sounds/dog_label.wav","null","1","","","","","","",""
"null","","html-keyboard-response","333","3768572","0.0-13.0-1.70","l","21","<p style=""font-size: 48px;"">+</p>","null","1","","","","","","",""
"1107.6499999905936","","image-keyboard-response","334","3769681","0.0-13.0-2.70","l","21","Images/dog_3.png","76","1","1582161187654","match","dog","dog","label","test","true"
"null","","audio-keyboard-response","335","3771692","0.0-13.0-3.70","l","21","Sounds/correct.wav","null","1","","","","","","",""
"null","","audio-keyboard-response","336","3772996","0.0-13.0-0.71","l","21","Sounds/train_sound.wav","null","1","","","","","","",""
"null","","html-keyboard-response","337","3773989","0.0-13.0-1.71","l","21","<p style=""font-size: 48px;"">+</p>","null","1","","","","","","",""
"394.72500002011657","","image-keyboard-response","338","3774385","0.0-13.0-2.71","l","21","Images/train_2.png","76","1","1582161193071","match","train","train","sound","test","true"
"null","","audio-keyboard-response","339","3776395","0.0-13.0-3.71","l","21","Sounds/correct.wav","null","1","","","","","","",""
"null","","audio-keyboard-response","340","3777096","0.0-13.0-0.72","l","21","Sounds/dog_sound.wav","null","1","","","","","","",""
"null","","html-keyboard-response","341","3778089","0.0-13.0-1.72","l","21","<p style=""font-size: 48px;"">+</p>","null","1","","","","","","",""
"870.6000000238419","","image-keyboard-response","342","3778960","0.0-13.0-2.72","l","21","Images/dog_cartoon.png","76","1","1582161197171","match","dog","dog","sound","test","true"
"null","","audio-keyboard-response","343","3780979","0.0-13.0-3.72","l","21","Sounds/correct.wav","null","1","","","","","","",""
"null","","audio-keyboard-response","344","3782256","0.0-13.0-0.73","l","21","Sounds/train_label.wav","null","1","","","","","","",""
"null","","html-keyboard-response","345","3783255","0.0-13.0-1.73","l","21","<p style=""font-size: 48px;"">+</p>","null","1","","","","","","",""
"552.4900000016205","","image-keyboard-response","346","3783809","0.0-13.0-2.73","l","21","Images/train_3.png","76","1","1582161202338","match","train","train","label","test","true"
"null","","audio-keyboard-response","347","3785812","0.0-13.0-3.73","l","21","Sounds/correct.wav","null","1","","","","","","",""
"null","","audio-keyboard-response","348","3786656","0.0-13.0-0.74","l","21","Sounds/cat_label.wav","null","1","","","","","","",""
"null","","html-keyboard-response","349","3787655","0.0-13.0-1.74","l","21","<p style=""font-size: 48px;"">+</p>","null","1","","","","","","",""
"808.4450000026263","","image-keyboard-response","350","3788464","0.0-13.0-2.74","l","21","Images/motorcycle_2.png","65","1","1582161206738","non-match","motorcycle","cat","label","test","true"
"null","","audio-keyboard-response","351","3790478","0.0-13.0-3.74","l","21","Sounds/correct.wav","null","1","","","","","","",""
"null","","audio-keyboard-response","352","3791176","0.0-13.0-0.75","l","21","Sounds/rooster_sound.wav","null","1","","","","","","",""
"null","","html-keyboard-response","353","3792172","0.0-13.0-1.75","l","21","<p style=""font-size: 48px;"">+</p>","null","1","","","","","","",""
"627.3900000085123","","image-keyboard-response","354","3792801","0.0-13.0-2.75","l","21","Images/whistle_cartoon.png","65","1","1582161211254","non-match","whistle","rooster","sound","test","true"
"null","","audio-keyboard-response","355","3794808","0.0-13.0-3.75","l","21","Sounds/correct.wav","null","1","","","","","","",""
"null","","audio-keyboard-response","356","3795896","0.0-13.0-0.76","l","21","Sounds/car_label.wav","null","1","","","","","","",""
"null","","html-keyboard-response","357","3796889","0.0-13.0-1.76","l","21","<p style=""font-size: 48px;"">+</p>","null","1","","","","","","",""
"598.7000000025146","","image-keyboard-response","358","3797489","0.0-13.0-2.76","l","21","Images/car_2.png","76","1","1582161215971","match","car","car","label","test","true"
"null","","audio-keyboard-response","359","3799496","0.0-13.0-3.76","l","21","Sounds/correct.wav","null","1","","","","","","",""
"null","","audio-keyboard-response","360","3800196","0.0-13.0-0.77","l","21","Sounds/dog_sound.wav","null","1","","","","","","",""
"null","","html-keyboard-response","361","3801189","0.0-13.0-1.77","l","21","<p style=""font-size: 48px;"">+</p>","null","1","","","","","","",""
"650.7150000249967","","image-keyboard-response","362","3801840","0.0-13.0-2.77","l","21","Images/car_1.png","65","1","1582161220271","non-match","car","dog","sound","test","true"
"null","","audio-keyboard-response","363","3803844","0.0-13.0-3.77","l","21","Sounds/correct.wav","null","1","","","","","","",""
"null","","audio-keyboard-response","364","3805116","0.0-13.0-0.78","l","21","Sounds/train_label.wav","null","1","","","","","","",""
"null","","html-keyboard-response","365","3806106","0.0-13.0-1.78","l","21","<p style=""font-size: 48px;"">+</p>","null","1","","","","","","",""
"1221.7700000032783","","image-keyboard-response","366","3807328","0.0-13.0-2.78","l","21","Images/car_3.png","65","1","1582161225188","non-match","car","train","label","test","true"
"null","","audio-keyboard-response","367","3809342","0.0-13.0-3.78","l","21","Sounds/correct.wav","null","1","","","","","","",""
"null","","audio-keyboard-response","368","3810456","0.0-13.0-0.79","l","21","Sounds/motorcycle_sound.wav","null","1","","","","","","",""
"null","","html-keyboard-response","369","3811456","0.0-13.0-1.79","l","21","<p style=""font-size: 48px;"">+</p>","null","1","","","","","","",""
"751.8050000071526","","image-keyboard-response","370","3812208","0.0-13.0-2.79","l","21","Images/motorcycle_2.png","65","1","1582161230538","match","motorcycle","motorcycle","sound","test","false"
"null","","audio-keyboard-response","371","3814212","0.0-13.0-3.79","l","21","Sounds/incorrect.wav","null","1","","","","","","",""
"null","","audio-keyboard-response","372","3814916","0.0-13.0-0.80","l","21","Sounds/rooster_label.wav","null","1","","","","","","",""
"null","","html-keyboard-response","373","3815906","0.0-13.0-1.80","l","21","<p style=""font-size: 48px;"">+</p>","null","1","","","","","","",""
"685.6599999885075","","image-keyboard-response","374","3816592","0.0-13.0-2.80","l","21","Images/dog_cartoon.png","65","1","1582161234988","non-match","dog","rooster","label","test","true"
"null","","audio-keyboard-response","375","3818595","0.0-13.0-3.80","l","21","Sounds/correct.wav","null","1","","","","","","",""
"null","","audio-keyboard-response","376","3819496","0.0-13.0-0.81","l","21","Sounds/frog_label.wav","null","1","","","","","","",""
"null","","html-keyboard-response","377","3820489","0.0-13.0-1.81","l","21","<p style=""font-size: 48px;"">+</p>","null","1","","","","","","",""
"534.2299999902025","","image-keyboard-response","378","3821024","0.0-13.0-2.81","l","21","Images/car_2.png","65","1","1582161239571","non-match","car","frog","label","test","true"
"null","","audio-keyboard-response","379","3823027","0.0-13.0-3.81","l","21","Sounds/correct.wav","null","1","","","","","","",""
"null","","audio-keyboard-response","380","3823856","0.0-13.0-0.82","l","21","Sounds/cat_sound.wav","null","1","","","","","","",""
"null","","html-keyboard-response","381","3824856","0.0-13.0-1.82","l","21","<p style=""font-size: 48px;"">+</p>","null","1","","","","","","",""
"551.8300000112504","","image-keyboard-response","382","3825409","0.0-13.0-2.82","l","21","Images/cat_3.png","76","1","1582161243938","match","cat","cat","sound","test","true"
"null","","audio-keyboard-response","383","3827411","0.0-13.0-3.82","l","21","Sounds/correct.wav","null","1","","","","","","",""
"null","","audio-keyboard-response","384","3827996","0.0-13.0-0.83","l","21","Sounds/gun_sound.wav","null","1","","","","","","",""
"null","","html-keyboard-response","385","3828989","0.0-13.0-1.83","l","21","<p style=""font-size: 48px;"">+</p>","null","1","","","","","","",""
"1250.1349999802187","","image-keyboard-response","386","3830240","0.0-13.0-2.83","l","21","Images/gun_3.png","76","1","1582161248071","match","gun","gun","sound","test","true"
"null","","audio-keyboard-response","387","3832250","0.0-13.0-3.83","l","21","Sounds/correct.wav","null","1","","","","","","",""
"null","","audio-keyboard-response","388","3833336","0.0-13.0-0.84","l","21","Sounds/car_label.wav","null","1","","","","","","",""
"null","","html-keyboard-response","389","3834339","0.0-13.0-1.84","l","21","<p style=""font-size: 48px;"">+</p>","null","1","","","","","","",""
"604.1100000147708","","image-keyboard-response","390","3834944","0.0-13.0-2.84","l","21","Images/cat_orig.png","65","1","1582161253421","non-match","cat","car","label","test","true"
"null","","audio-keyboard-response","391","3836960","0.0-13.0-3.84","l","21","Sounds/correct.wav","null","1","","","","","","",""
"null","","audio-keyboard-response","392","3837976","0.0-13.0-0.85","l","21","Sounds/cow_label.wav","null","1","","","","","","",""
"null","","html-keyboard-response","393","3838973","0.0-13.0-1.85","l","21","<p style=""font-size: 48px;"">+</p>","null","1","","","","","","",""
"512.6949999830686","","image-keyboard-response","394","3839489","0.0-13.0-2.85","l","21","Images/cat_3.png","65","1","1582161258055","non-match","cat","cow","label","test","true"
"null","","audio-keyboard-response","395","3841496","0.0-13.0-3.85","l","21","Sounds/correct.wav","null","1","","","","","","",""
"null","","audio-keyboard-response","396","3842796","0.0-13.0-0.86","l","21","Sounds/train_sound.wav","null","1","","","","","","",""
"null","","html-keyboard-response","397","3843789","0.0-13.0-1.86","l","21","<p style=""font-size: 48px;"">+</p>","null","1","","","","","","",""
"514.1700000092387","","image-keyboard-response","398","3844304","0.0-13.0-2.86","l","21","Images/gun_1.png","65","1","1582161262872","non-match","gun","train","sound","test","true"
"null","","audio-keyboard-response","399","3846313","0.0-13.0-3.86","l","21","Sounds/correct.wav","null","1","","","","","","",""
"null","","audio-keyboard-response","400","3847156","0.0-13.0-0.87","l","21","Sounds/cat_label.wav","null","1","","","","","","",""
"null","","html-keyboard-response","401","3848156","0.0-13.0-1.87","l","21","<p style=""font-size: 48px;"">+</p>","null","1","","","","","","",""
"515.4150000018999","","image-keyboard-response","402","3848673","0.0-13.0-2.87","l","21","Images/cow_2.png","65","1","1582161267238","non-match","cow","cat","label","test","true"
"null","","audio-keyboard-response","403","3850678","0.0-13.0-3.87","l","21","Sounds/correct.wav","null","1","","","","","","",""
"null","","audio-keyboard-response","404","3851376","0.0-13.0-0.88","l","21","Sounds/whistle_label.wav","null","1","","","","","","",""
"null","","html-keyboard-response","405","3852373","0.0-13.0-1.88","l","21","<p style=""font-size: 48px;"">+</p>","null","1","","","","","","",""
"698.7850000150502","","image-keyboard-response","406","3853073","0.0-13.0-2.88","l","21","Images/whistle_3.png","76","1","1582161271455","match","whistle","whistle","label","test","true"
"null","","audio-keyboard-response","407","3855080","0.0-13.0-3.88","l","21","Sounds/correct.wav","null","1","","","","","","",""
"null","","audio-keyboard-response","408","3855736","0.0-13.0-0.89","l","21","Sounds/dog_label.wav","null","1","","","","","","",""
"null","","html-keyboard-response","409","3856740","0.0-13.0-1.89","l","21","<p style=""font-size: 48px;"">+</p>","null","1","","","","","","",""
"651.7649999880232","","image-keyboard-response","410","3857393","0.0-13.0-2.89","l","21","Images/gun_orig.png","65","1","1582161275822","non-match","gun","dog","label","test","true"
"null","","audio-keyboard-response","411","3859410","0.0-13.0-3.89","l","21","Sounds/correct.wav","null","1","","","","","","",""
"null","","audio-keyboard-response","412","3859996","0.0-13.0-0.90","l","21","Sounds/gun_sound.wav","null","1","","","","","","",""
"null","","html-keyboard-response","413","3860990","0.0-13.0-1.90","l","21","<p style=""font-size: 48px;"">+</p>","null","1","","","","","","",""
"529.8649999890476","","image-keyboard-response","414","3861521","0.0-13.0-2.90","l","21","Images/gun_2.png","76","1","1582161280072","match","gun","gun","sound","test","true"
"null","","audio-keyboard-response","415","3863528","0.0-13.0-3.90","l","21","Sounds/correct.wav","null","1","","","","","","",""
"null","","audio-keyboard-response","416","3864676","0.0-13.0-0.91","l","21","Sounds/motorcycle_label.wav","null","1","","","","","","",""
"null","","html-keyboard-response","417","3865673","0.0-13.0-1.91","l","21","<p style=""font-size: 48px;"">+</p>","null","1","","","","","","",""
"518.7549999975599","","image-keyboard-response","418","3866193","0.0-13.0-2.91","l","21","Images/cow_cartoon.png","65","1","1582161284755","non-match","cow","motorcycle","label","test","true"
"null","","audio-keyboard-response","419","3868211","0.0-13.0-3.91","l","21","Sounds/correct.wav","null","1","","","","","","",""
"null","","audio-keyboard-response","420","3869056","0.0-13.0-0.92","l","21","Sounds/cat_label.wav","null","1","","","","","","",""
"null","","html-keyboard-response","421","3870073","0.0-13.0-1.92","l","21","<p style=""font-size: 48px;"">+</p>","null","1","","","","","","",""
"788.8200000161305","","image-keyboard-response","422","3870865","0.0-13.0-2.92","l","21","Images/cat_2.png","76","1","1582161289155","match","cat","cat","label","test","true"
"null","","audio-keyboard-response","423","3872877","0.0-13.0-3.92","l","21","Sounds/correct.wav","null","1","","","","","","",""
"null","","audio-keyboard-response","424","3873716","0.0-13.0-0.93","l","21","Sounds/cat_sound.wav","null","1","","","","","","",""
"null","","html-keyboard-response","425","3874706","0.0-13.0-1.93","l","21","<p style=""font-size: 48px;"">+</p>","null","1","","","","","","",""
"604.9950000010431","","image-keyboard-response","426","3875313","0.0-13.0-2.93","l","21","Images/cat_1.png","76","1","1582161293789","match","cat","cat","sound","test","true"
"null","","audio-keyboard-response","427","3877327","0.0-13.0-3.93","l","21","Sounds/correct.wav","null","1","","","","","","",""
"null","","audio-keyboard-response","428","3878596","0.0-13.0-0.94","l","21","Sounds/train_label.wav","null","1","","","","","","",""
"null","","html-keyboard-response","429","3879590","0.0-13.0-1.94","l","21","<p style=""font-size: 48px;"">+</p>","null","1","","","","","","",""
"633.7449999991804","","image-keyboard-response","430","3880225","0.0-13.0-2.94","l","21","Images/rooster_3.png","65","1","1582161298672","non-match","rooster","train","label","test","true"
"null","","audio-keyboard-response","431","3882231","0.0-13.0-3.94","l","21","Sounds/correct.wav","null","1","","","","","","",""
"null","","audio-keyboard-response","432","3883136","0.0-13.0-0.95","l","21","Sounds/frog_sound.wav","null","1","","","","","","",""
"null","","html-keyboard-response","433","3884140","0.0-13.0-1.95","l","21","<p style=""font-size: 48px;"">+</p>","null","1","","","","","","",""
"482.3599999942817","","image-keyboard-response","434","3884625","0.0-13.0-2.95","l","21","Images/train_3.png","65","1","1582161303222","non-match","train","frog","sound","test","true"
"null","","audio-keyboard-response","435","3886627","0.0-13.0-3.95","l","21","Sounds/correct.wav","null","1","","","","","","",""
"null","","audio-keyboard-response","436","3887436","0.0-13.0-0.96","l","21","Sounds/cat_sound.wav","null","1","","","","","","",""
"null","","html-keyboard-response","437","3888440","0.0-13.0-1.96","l","21","<p style=""font-size: 48px;"">+</p>","null","1","","","","","","",""
"983.4700000062585","","image-keyboard-response","438","3889425","0.0-13.0-2.96","l","21","Images/cat_cartoon.png","76","1","1582161307522","match","cat","cat","sound","test","true"
"null","","audio-keyboard-response","439","3891428","0.0-13.0-3.96","l","21","Sounds/correct.wav","null","1","","","","","","",""
"null","","audio-keyboard-response","440","3892336","0.0-13.0-0.97","l","21","Sounds/frog_label.wav","null","1","","","","","","",""
"null","","html-keyboard-response","441","3893340","0.0-13.0-1.97","l","21","<p style=""font-size: 48px;"">+</p>","null","1","","","","","","",""
"419.6700000031851","","image-keyboard-response","442","3893761","0.0-13.0-2.97","l","21","Images/frog_orig.png","76","1","1582161312422","match","frog","frog","label","test","true"
"null","","audio-keyboard-response","443","3895777","0.0-13.0-3.97","l","21","Sounds/correct.wav","null","1","","","","","","",""
"null","","audio-keyboard-response","444","3896476","0.0-13.0-0.98","l","21","Sounds/whistle_label.wav","null","1","","","","","","",""
"null","","html-keyboard-response","445","3897473","0.0-13.0-1.98","l","21","<p style=""font-size: 48px;"">+</p>","null","1","","","","","","",""
"478.0550000136718","","image-keyboard-response","446","3897952","0.0-13.0-2.98","l","21","Images/cow_1.png","65","1","1582161316555","non-match","cow","whistle","label","test","true"
"null","","audio-keyboard-response","447","3899962","0.0-13.0-3.98","l","21","Sounds/correct.wav","null","1","","","","","","",""
"null","","audio-keyboard-response","448","3900656","0.0-13.0-0.99","l","21","Sounds/rooster_label.wav","null","1","","","","","","",""
"null","","html-keyboard-response","449","3901673","0.0-13.0-1.99","l","21","<p style=""font-size: 48px;"">+</p>","null","1","","","","","","",""
"438.010000012815","","image-keyboard-response","450","3902112","0.0-13.0-2.99","l","21","Images/rooster_orig.png","76","1","1582161320756","match","rooster","rooster","label","test","true"
"null","","audio-keyboard-response","451","3904127","0.0-13.0-3.99","l","21","Sounds/correct.wav","null","1","","","","","","",""
"13584.884999989066","","html-keyboard-response","452","3917706","0.0-14.0","l","21","<p>Please take this opportunity to rest your eyes before proceeding.</p><p>When ready, press the enter key to continue to the next set of trials.</p>","13","","","","","","","",""
"null","","audio-keyboard-response","453","3920747","0.0-15.0-0.0","l","21","Sounds/cow_sound.wav","null","2","","","","","","",""
"null","","html-keyboard-response","454","3921750","0.0-15.0-1.0","l","21","<p style=""font-size: 48px;"">+</p>","null","2","","","","","","",""
"594.344999990426","","image-keyboard-response","455","3922346","0.0-15.0-2.0","l","21","Images/cow_2.png","76","2","1582161340832","match","cow","cow","sound","test","true"
"null","","audio-keyboard-response","456","3924355","0.0-15.0-3.0","l","21","Sounds/correct.wav","null","2","","","","","","",""
"null","","audio-keyboard-response","457","3925047","0.0-15.0-0.1","l","21","Sounds/rooster_sound.wav","null","2","","","","","","",""
"null","","html-keyboard-response","458","3926050","0.0-15.0-1.1","l","21","<p style=""font-size: 48px;"">+</p>","null","2","","","","","","",""
"630.525000014808","","image-keyboard-response","459","3926682","0.0-15.0-2.1","l","21","Images/rooster_2.png","76","2","1582161345132","match","rooster","rooster","sound","test","true"
"null","","audio-keyboard-response","460","3928691","0.0-15.0-3.1","l","21","Sounds/correct.wav","null","2","","","","","","",""
"null","","audio-keyboard-response","461","3929527","0.0-15.0-0.2","l","21","Sounds/cat_sound.wav","null","2","","","","","","",""
"null","","html-keyboard-response","462","3930517","0.0-15.0-1.2","l","21","<p style=""font-size: 48px;"">+</p>","null","2","","","","","","",""
"516.1500000106171","","image-keyboard-response","463","3931034","0.0-15.0-2.2","l","21","Images/frog_orig.png","65","2","1582161349599","non-match","frog","cat","sound","test","true"
"null","","audio-keyboard-response","464","3933039","0.0-15.0-3.2","l","21","Sounds/correct.wav","null","2","","","","","","",""
"null","","audio-keyboard-response","465","3934167","0.0-15.0-0.3","l","21","Sounds/motorcycle_sound.wav","null","2","","","","","","",""
"null","","html-keyboard-response","466","3935167","0.0-15.0-1.3","l","21","<p style=""font-size: 48px;"">+</p>","null","2","","","","","","",""
"793.7000000094995","","image-keyboard-response","467","3935962","0.0-15.0-2.3","l","21","Images/cow_cartoon.png","65","2","1582161354249","non-match","cow","motorcycle","sound","test","true"
"null","","audio-keyboard-response","468","3937971","0.0-15.0-3.3","l","21","Sounds/correct.wav","null","2","","","","","","",""
"null","","audio-keyboard-response","469","3939047","0.0-15.0-0.4","l","21","Sounds/car_sound.wav","null","2","","","","","","",""
"null","","html-keyboard-response","470","3940050","0.0-15.0-1.4","l","21","<p style=""font-size: 48px;"">+</p>","null","2","","","","","","",""
"598.5299999881536","","image-keyboard-response","471","3940650","0.0-15.0-2.4","l","21","Images/car_orig.png","76","2","1582161359133","match","car","car","sound","test","true"
"null","","audio-keyboard-response","472","3942655","0.0-15.0-3.4","l","21","Sounds/correct.wav","null","2","","","","","","",""
"null","","audio-keyboard-response","473","3943307","0.0-15.0-0.5","l","21","Sounds/dog_label.wav","null","2","","","","","","",""
"null","","html-keyboard-response","474","3944300","0.0-15.0-1.5","l","21","<p style=""font-size: 48px;"">+</p>","null","2","","","","","","",""
"460.46500001102686","","image-keyboard-response","475","3944762","0.0-15.0-2.5","l","21","Images/motorcycle_3.png","65","2","1582161363383","non-match","motorcycle","dog","label","test","true"
"null","","audio-keyboard-response","476","3946770","0.0-15.0-3.5","l","21","Sounds/correct.wav","null","2","","","","","","",""
"null","","audio-keyboard-response","477","3947687","0.0-15.0-0.6","l","21","Sounds/frog_sound.wav","null","2","","","","","","",""
"null","","html-keyboard-response","478","3948684","0.0-15.0-1.6","l","21","<p style=""font-size: 48px;"">+</p>","null","2","","","","","","",""
"443.8200000151992","","image-keyboard-response","479","3949130","0.0-15.0-2.6","l","21","Images/frog_3.png","76","2","1582161367766","match","frog","frog","sound","test","true"
"null","","audio-keyboard-response","480","3951140","0.0-15.0-3.6","l","21","Sounds/correct.wav","null","2","","","","","","",""
"null","","audio-keyboard-response","481","3951987","0.0-15.0-0.7","l","21","Sounds/cat_label.wav","null","2","","","","","","",""
"null","","html-keyboard-response","482","3952984","0.0-15.0-1.7","l","21","<p style=""font-size: 48px;"">+</p>","null","2","","","","","","",""
"464.89000000292435","","image-keyboard-response","483","3953450","0.0-15.0-2.7","l","21","Images/cat_1.png","76","2","1582161372066","match","cat","cat","label","test","true"
"null","","audio-keyboard-response","484","3955458","0.0-15.0-3.7","l","21","Sounds/correct.wav","null","2","","","","","","",""
"null","","audio-keyboard-response","485","3956587","0.0-15.0-0.8","l","21","Sounds/motorcycle_label.wav","null","2","","","","","","",""
"null","","html-keyboard-response","486","3957584","0.0-15.0-1.8","l","21","<p style=""font-size: 48px;"">+</p>","null","2","","","","","","",""
"585.2149999989197","","image-keyboard-response","487","3958170","0.0-15.0-2.8","l","21","Images/motorcycle_2.png","76","2","1582161376666","match","motorcycle","motorcycle","label","test","true"
"null","","audio-keyboard-response","488","3960174","0.0-15.0-3.8","l","21","Sounds/correct.wav","null","2","","","","","","",""
"null","","audio-keyboard-response","489","3960987","0.0-15.0-0.9","l","21","Sounds/cat_label.wav","null","2","","","","","","",""
"null","","html-keyboard-response","490","3961984","0.0-15.0-1.9","l","21","<p style=""font-size: 48px;"">+</p>","null","2","","","","","","",""
"600.8349999901839","","image-keyboard-response","491","3962586","0.0-15.0-2.9","l","21","Images/train_orig.png","65","2","1582161381066","non-match","train","cat","label","test","true"
"null","","audio-keyboard-response","492","3964589","0.0-15.0-3.9","l","21","Sounds/correct.wav","null","2","","","","","","",""
"null","","audio-keyboard-response","493","3965667","0.0-15.0-0.10","l","21","Sounds/car_label.wav","null","2","","","","","","",""
"null","","html-keyboard-response","494","3966667","0.0-15.0-1.10","l","21","<p style=""font-size: 48px;"">+</p>","null","2","","","","","","",""
"589.574999990873","","image-keyboard-response","495","3967258","0.0-15.0-2.10","l","21","Images/car_2.png","76","2","1582161385749","match","car","car","label","test","true"
"null","","audio-keyboard-response","496","3969272","0.0-15.0-3.10","l","21","Sounds/correct.wav","null","2","","","","","","",""
"null","","audio-keyboard-response","497","3970327","0.0-15.0-0.11","l","21","Sounds/car_label.wav","null","2","","","","","","",""
"null","","html-keyboard-response","498","3971317","0.0-15.0-1.11","l","21","<p style=""font-size: 48px;"">+</p>","null","2","","","","","","",""
"419.7500000009313","","image-keyboard-response","499","3971738","0.0-15.0-2.11","l","21","Images/rooster_3.png","65","2","1582161390399","non-match","rooster","car","label","test","true"
"null","","audio-keyboard-response","500","3973754","0.0-15.0-3.11","l","21","Sounds/correct.wav","null","2","","","","","","",""
"null","","audio-keyboard-response","501","3974447","0.0-15.0-0.12","l","21","Sounds/rooster_sound.wav","null","2","","","","","","",""
"null","","html-keyboard-response","502","3975451","0.0-15.0-1.12","l","21","<p style=""font-size: 48px;"">+</p>","null","2","","","","","","",""
"1117.9300000076182","","image-keyboard-response","503","3976570","0.0-15.0-2.12","l","21","Images/rooster_orig.png","76","2","1582161394533","match","rooster","rooster","sound","test","true"
"null","","audio-keyboard-response","504","3978579","0.0-15.0-3.12","l","21","Sounds/correct.wav","null","2","","","","","","",""
"null","","audio-keyboard-response","505","3979634","0.0-15.0-0.13","l","21","Sounds/car_label.wav","null","2","","","","","","",""
"null","","html-keyboard-response","506","3980624","0.0-15.0-1.13","l","21","<p style=""font-size: 48px;"">+</p>","null","2","","","","","","",""
"623.4399999957532","","image-keyboard-response","507","3981248","0.0-15.0-2.13","l","21","Images/gun_1.png","65","2","1582161399706","non-match","gun","car","label","test","true"
"null","","audio-keyboard-response","508","3983262","0.0-15.0-3.13","l","21","Sounds/correct.wav","null","2","","","","","","",""
"null","","audio-keyboard-response","509","3983974","0.0-15.0-0.14","l","21","Sounds/dog_sound.wav","null","2","","","","","","",""
"null","","html-keyboard-response","510","3984974","0.0-15.0-1.14","l","21","<p style=""font-size: 48px;"">+</p>","null","2","","","","","","",""
"417.6650000154041","","image-keyboard-response","511","3985392","0.0-15.0-2.14","l","21","Images/dog_2.png","76","2","1582161404056","match","dog","dog","sound","test","true"
"null","","audio-keyboard-response","512","3987396","0.0-15.0-3.14","l","21","Sounds/correct.wav","null","2","","","","","","",""
"null","","audio-keyboard-response","513","3988414","0.0-15.0-0.15","l","21","Sounds/cow_sound.wav","null","2","","","","","","",""
"null","","html-keyboard-response","514","3989407","0.0-15.0-1.15","l","21","<p style=""font-size: 48px;"">+</p>","null","2","","","","","","",""
"607.8550000092946","","image-keyboard-response","515","3990016","0.0-15.0-2.15","l","21","Images/dog_orig.png","65","2","1582161408489","non-match","dog","cow","sound","test","true"
"null","","audio-keyboard-response","516","3992027","0.0-15.0-3.15","l","21","Sounds/correct.wav","null","2","","","","","","",""
"null","","audio-keyboard-response","517","3993154","0.0-15.0-0.16","l","21","Sounds/motorcycle_sound.wav","null","2","","","","","","",""
"null","","html-keyboard-response","518","3994157","0.0-15.0-1.16","l","21","<p style=""font-size: 48px;"">+</p>","null","2","","","","","","",""
"609.8900000215508","","image-keyboard-response","519","3994768","0.0-15.0-2.16","l","21","Images/frog_1.png","65","2","1582161413239","non-match","frog","motorcycle","sound","test","true"
"null","","audio-keyboard-response","520","3996777","0.0-15.0-3.16","l","21","Sounds/correct.wav","null","2","","","","","","",""
"null","","audio-keyboard-response","521","3997474","0.0-15.0-0.17","l","21","Sounds/rooster_label.wav","null","2","","","","","","",""
"null","","html-keyboard-response","522","3998474","0.0-15.0-1.17","l","21","<p style=""font-size: 48px;"">+</p>","null","2","","","","","","",""
"645.3150000013411","","image-keyboard-response","523","3999120","0.0-15.0-2.17","l","21","Images/rooster_1.png","76","2","1582161417556","match","rooster","rooster","label","test","true"
"null","","audio-keyboard-response","524","4001129","0.0-15.0-3.17","l","21","Sounds/correct.wav","null","2","","","","","","",""
"null","","audio-keyboard-response","525","4001794","0.0-15.0-0.18","l","21","Sounds/dog_label.wav","null","2","","","","","","",""
"null","","html-keyboard-response","526","4002791","0.0-15.0-1.18","l","21","<p style=""font-size: 48px;"">+</p>","null","2","","","","","","",""
"424.28499998664483","","image-keyboard-response","527","4003216","0.0-15.0-2.18","l","21","Images/frog_2.png","65","2","1582161421873","non-match","frog","dog","label","test","true"
"null","","audio-keyboard-response","528","4005229","0.0-15.0-3.18","l","21","Sounds/correct.wav","null","2","","","","","","",""
"null","","audio-keyboard-response","529","4006314","0.0-15.0-0.19","l","21","Sounds/motorcycle_sound.wav","null","2","","","","","","",""
"null","","html-keyboard-response","530","4007307","0.0-15.0-1.19","l","21","<p style=""font-size: 48px;"">+</p>","null","2","","","","","","",""
"450.8650000207126","","image-keyboard-response","531","4007760","0.0-15.0-2.19","l","21","Images/motorcycle_3.png","76","2","1582161426389","match","motorcycle","motorcycle","sound","test","true"
"null","","audio-keyboard-response","532","4009763","0.0-15.0-3.19","l","21","Sounds/correct.wav","null","2","","","","","","",""
"null","","audio-keyboard-response","533","4010594","0.0-15.0-0.20","l","21","Sounds/cat_sound.wav","null","2","","","","","","",""
"null","","html-keyboard-response","534","4011591","0.0-15.0-1.20","l","21","<p style=""font-size: 48px;"">+</p>","null","2","","","","","","",""
"520.5250000003725","","image-keyboard-response","535","4012112","0.0-15.0-2.20","l","21","Images/cat_2.png","76","2","1582161430673","match","cat","cat","sound","test","true"
"null","","audio-keyboard-response","536","4014128","0.0-15.0-3.20","l","21","Sounds/correct.wav","null","2","","","","","","",""
"null","","audio-keyboard-response","537","4015214","0.0-15.0-0.21","l","21","Sounds/car_label.wav","null","2","","","","","","",""
"null","","html-keyboard-response","538","4016207","0.0-15.0-1.21","l","21","<p style=""font-size: 48px;"">+</p>","null","2","","","","","","",""
"367.655000009574","","image-keyboard-response","539","4016576","0.0-15.0-2.21","l","21","Images/car_1.png","76","2","1582161435290","match","car","car","label","test","true"
"null","","audio-keyboard-response","540","4018579","0.0-15.0-3.21","l","21","Sounds/correct.wav","null","2","","","","","","",""
"null","","audio-keyboard-response","541","4019274","0.0-15.0-0.22","l","21","Sounds/whistle_sound.wav","null","2","","","","","","",""
"null","","html-keyboard-response","542","4020274","0.0-15.0-1.22","l","21","<p style=""font-size: 48px;"">+</p>","null","2","","","","","","",""
"620.9450000026263","","image-keyboard-response","543","4020896","0.0-15.0-2.22","l","21","Images/motorcycle_1.png","65","2","1582161439356","non-match","motorcycle","whistle","sound","test","true"
"null","","audio-keyboard-response","544","4022912","0.0-15.0-3.22","l","21","Sounds/correct.wav","null","2","","","","","","",""
"null","","audio-keyboard-response","545","4023614","0.0-15.0-0.23","l","21","Sounds/dog_sound.wav","null","2","","","","","","",""
"null","","html-keyboard-response","546","4024608","0.0-15.0-1.23","l","21","<p style=""font-size: 48px;"">+</p>","null","2","","","","","","",""
"399.71500000730157","","image-keyboard-response","547","4025008","0.0-15.0-2.23","l","21","Images/dog_orig.png","76","2","1582161443690","match","dog","dog","sound","test","true"
"null","","audio-keyboard-response","548","4027014","0.0-15.0-3.23","l","21","Sounds/correct.wav","null","2","","","","","","",""
"null","","audio-keyboard-response","549","4028034","0.0-15.0-0.24","l","21","Sounds/cow_sound.wav","null","2","","","","","","",""
"null","","html-keyboard-response","550","4029024","0.0-15.0-1.24","l","21","<p style=""font-size: 48px;"">+</p>","null","2","","","","","","",""
"430.7749999864027","","image-keyboard-response","551","4029456","0.0-15.0-2.24","l","21","Images/cow_cartoon.png","76","2","1582161448106","match","cow","cow","sound","test","true"
"null","","audio-keyboard-response","552","4031464","0.0-15.0-3.24","l","21","Sounds/correct.wav","null","2","","","","","","",""
"null","","audio-keyboard-response","553","4032754","0.0-15.0-0.25","l","21","Sounds/train_sound.wav","null","2","","","","","","",""
"null","","html-keyboard-response","554","4033758","0.0-15.0-1.25","l","21","<p style=""font-size: 48px;"">+</p>","null","2","","","","","","",""
"513.3099999800324","","image-keyboard-response","555","4034272","0.0-15.0-2.25","l","21","Images/train_1.png","65","2","1582161452840","match","train","train","sound","test","false"
"null","","audio-keyboard-response","556","4036280","0.0-15.0-3.25","l","21","Sounds/incorrect.wav","null","2","","","","","","",""
"null","","audio-keyboard-response","557","4036854","0.0-15.0-0.26","l","21","Sounds/gun_label.wav","null","2","","","","","","",""
"null","","html-keyboard-response","558","4037858","0.0-15.0-1.26","l","21","<p style=""font-size: 48px;"">+</p>","null","2","","","","","","",""
"701.4049999997951","","image-keyboard-response","559","4038560","0.0-15.0-2.26","l","21","Images/frog_3.png","65","2","1582161456940","non-match","frog","gun","label","test","true"
"null","","audio-keyboard-response","560","4040563","0.0-15.0-3.26","l","21","Sounds/correct.wav","null","2","","","","","","",""
"null","","audio-keyboard-response","561","4041134","0.0-15.0-0.27","l","21","Sounds/gun_sound.wav","null","2","","","","","","",""
"null","","html-keyboard-response","562","4042124","0.0-15.0-1.27","l","21","<p style=""font-size: 48px;"">+</p>","null","2","","","","","","",""
"450.71999999368563","","image-keyboard-response","563","4042576","0.0-15.0-2.27","l","21","Images/gun_cartoon.png","76","2","1582161461206","match","gun","gun","sound","test","true"
"null","","audio-keyboard-response","564","4044579","0.0-15.0-3.27","l","21","Sounds/correct.wav","null","2","","","","","","",""
"null","","audio-keyboard-response","565","4045274","0.0-15.0-0.28","l","21","Sounds/whistle_label.wav","null","2","","","","","","",""
"null","","html-keyboard-response","566","4046274","0.0-15.0-1.28","l","21","<p style=""font-size: 48px;"">+</p>","null","2","","","","","","",""
"428.625","","image-keyboard-response","567","4046704","0.0-15.0-2.28","l","21","Images/whistle_orig.png","76","2","1582161465356","match","whistle","whistle","label","test","true"
"null","","audio-keyboard-response","568","4048713","0.0-15.0-3.28","l","21","Sounds/correct.wav","null","2","","","","","","",""
"null","","audio-keyboard-response","569","4049414","0.0-15.0-0.29","l","21","Sounds/whistle_sound.wav","null","2","","","","","","",""
"null","","html-keyboard-response","570","4050408","0.0-15.0-1.29","l","21","<p style=""font-size: 48px;"">+</p>","null","2","","","","","","",""
"407.40999998524785","","image-keyboard-response","571","4050816","0.0-15.0-2.29","l","21","Images/dog_2.png","65","2","1582161469490","non-match","dog","whistle","sound","test","true"
"null","","audio-keyboard-response","572","4052828","0.0-15.0-3.29","l","21","Sounds/correct.wav","null","2","","","","","","",""
"null","","audio-keyboard-response","573","4053914","0.0-15.0-0.30","l","21","Sounds/car_sound.wav","null","2","","","","","","",""
"null","","html-keyboard-response","574","4054908","0.0-15.0-1.30","l","21","<p style=""font-size: 48px;"">+</p>","null","2","","","","","","",""
"659.2650000238791","","image-keyboard-response","575","4055568","0.0-15.0-2.30","l","21","Images/car_cartoon.png","76","2","1582161473990","match","car","car","sound","test","true"
"null","","audio-keyboard-response","576","4057577","0.0-15.0-3.30","l","21","Sounds/correct.wav","null","2","","","","","","",""
"null","","audio-keyboard-response","577","4058254","0.0-15.0-0.31","l","21","Sounds/whistle_label.wav","null","2","","","","","","",""
"null","","html-keyboard-response","578","4059258","0.0-15.0-1.31","l","21","<p style=""font-size: 48px;"">+</p>","null","2","","","","","","",""
"453.1000000135973","","image-keyboard-response","579","4059712","0.0-15.0-2.31","l","21","Images/whistle_1.png","76","2","1582161478340","match","whistle","whistle","label","test","true"
"null","","audio-keyboard-response","580","4061719","0.0-15.0-3.31","l","21","Sounds/correct.wav","null","2","","","","","","",""
"null","","audio-keyboard-response","581","4062634","0.0-15.0-0.32","l","21","Sounds/frog_sound.wav","null","2","","","","","","",""
"null","","html-keyboard-response","582","4063624","0.0-15.0-1.32","l","21","<p style=""font-size: 48px;"">+</p>","null","2","","","","","","",""
"662.6500000129454","","image-keyboard-response","583","4064288","0.0-15.0-2.32","l","21","Images/whistle_2.png","65","2","1582161482707","non-match","whistle","frog","sound","test","true"
"null","","audio-keyboard-response","584","4066296","0.0-15.0-3.32","l","21","Sounds/correct.wav","null","2","","","","","","",""
"null","","audio-keyboard-response","585","4066994","0.0-15.0-0.33","l","21","Sounds/rooster_label.wav","null","2","","","","","","",""
"null","","html-keyboard-response","586","4067991","0.0-15.0-1.33","l","21","<p style=""font-size: 48px;"">+</p>","null","2","","","","","","",""
"407.61500000348315","","image-keyboard-response","587","4068400","0.0-15.0-2.33","l","21","Images/rooster_3.png","76","2","1582161487073","match","rooster","rooster","label","test","true"
"null","","audio-keyboard-response","588","4070411","0.0-15.0-3.33","l","21","Sounds/correct.wav","null","2","","","","","","",""
"null","","audio-keyboard-response","589","4071494","0.0-15.0-0.34","l","21","Sounds/car_label.wav","null","2","","","","","","",""
"null","","html-keyboard-response","590","4072491","0.0-15.0-1.34","l","21","<p style=""font-size: 48px;"">+</p>","null","2","","","","","","",""
"659.7199999960139","","image-keyboard-response","591","4073152","0.0-15.0-2.34","l","21","Images/cow_1.png","65","2","1582161491573","non-match","cow","car","label","test","true"
"null","","audio-keyboard-response","592","4075162","0.0-15.0-3.34","l","21","Sounds/correct.wav","null","2","","","","","","",""
"null","","audio-keyboard-response","593","4076234","0.0-15.0-0.35","l","21","Sounds/car_sound.wav","null","2","","","","","","",""
"null","","html-keyboard-response","594","4077225","0.0-15.0-1.35","l","21","<p style=""font-size: 48px;"">+</p>","null","2","","","","","","",""
"550.5949999787845","","image-keyboard-response","595","4077776","0.0-15.0-2.35","l","21","Images/whistle_3.png","65","2","1582161496307","non-match","whistle","car","sound","test","true"
"null","","audio-keyboard-response","596","4079782","0.0-15.0-3.35","l","21","Sounds/correct.wav","null","2","","","","","","",""
"null","","audio-keyboard-response","597","4080914","0.0-15.0-0.36","l","21","Sounds/motorcycle_label.wav","null","2","","","","","","",""
"null","","html-keyboard-response","598","4081908","0.0-15.0-1.36","l","21","<p style=""font-size: 48px;"">+</p>","null","2","","","","","","",""
"490.91500000236556","","image-keyboard-response","599","4082400","0.0-15.0-2.36","l","21","Images/motorcycle_cartoon.png","76","2","1582161500990","match","motorcycle","motorcycle","label","test","true"
"null","","audio-keyboard-response","600","4084413","0.0-15.0-3.36","l","21","Sounds/correct.wav","null","2","","","","","","",""
"null","","audio-keyboard-response","601","4084994","0.0-15.0-0.37","l","21","Sounds/gun_sound.wav","null","2","","","","","","",""
"null","","html-keyboard-response","602","4085991","0.0-15.0-1.37","l","21","<p style=""font-size: 48px;"">+</p>","null","2","","","","","","",""
"582.1749999886379","","image-keyboard-response","603","4086576","0.0-15.0-2.37","l","21","Images/train_1.png","65","2","1582161505073","non-match","train","gun","sound","test","true"
"null","","audio-keyboard-response","604","4088580","0.0-15.0-3.37","l","21","Sounds/correct.wav","null","2","","","","","","",""
"null","","audio-keyboard-response","605","4089414","0.0-15.0-0.38","l","21","Sounds/cat_label.wav","null","2","","","","","","",""
"null","","html-keyboard-response","606","4090408","0.0-15.0-1.38","l","21","<p style=""font-size: 48px;"">+</p>","null","2","","","","","","",""
"759.0299999867566","","image-keyboard-response","607","4091168","0.0-15.0-2.38","l","21","Images/rooster_orig.png","65","2","1582161509490","non-match","rooster","cat","label","test","true"
"null","","audio-keyboard-response","608","4093178","0.0-15.0-3.38","l","21","Sounds/correct.wav","null","2","","","","","","",""
"null","","audio-keyboard-response","609","4093734","0.0-15.0-0.39","l","21","Sounds/gun_sound.wav","null","2","","","","","","",""
"null","","html-keyboard-response","610","4094725","0.0-15.0-1.39","l","21","<p style=""font-size: 48px;"">+</p>","null","2","","","","","","",""
"474.2649999973364","","image-keyboard-response","611","4095200","0.0-15.0-2.39","l","21","Images/gun_orig.png","76","2","1582161513807","match","gun","gun","sound","test","true"
"null","","audio-keyboard-response","612","4097212","0.0-15.0-3.39","l","21","Sounds/correct.wav","null","2","","","","","","",""
"null","","audio-keyboard-response","613","4098114","0.0-15.0-0.40","l","21","Sounds/frog_sound.wav","null","2","","","","","","",""
"null","","html-keyboard-response","614","4099108","0.0-15.0-1.40","l","21","<p style=""font-size: 48px;"">+</p>","null","2","","","","","","",""
"554.8300000084564","","image-keyboard-response","615","4099664","0.0-15.0-2.40","l","21","Images/train_3.png","65","2","1582161518190","non-match","train","frog","sound","test","true"
"null","","audio-keyboard-response","616","4101678","0.0-15.0-3.40","l","21","Sounds/correct.wav","null","2","","","","","","",""
"null","","audio-keyboard-response","617","4102373","0.0-15.0-0.41","l","21","Sounds/rooster_sound.wav","null","2","","","","","","",""
"null","","html-keyboard-response","618","4103391","0.0-15.0-1.41","l","21","<p style=""font-size: 48px;"">+</p>","null","2","","","","","","",""
"814.795000012964","","image-keyboard-response","619","4104208","0.0-15.0-2.41","l","21","Images/rooster_cartoon.png","76","2","1582161522473","match","rooster","rooster","sound","test","true"
"null","","audio-keyboard-response","620","4106215","0.0-15.0-3.41","l","21","Sounds/correct.wav","null","2","","","","","","",""
"null","","audio-keyboard-response","621","4107233","0.0-15.0-0.42","l","21","Sounds/cow_label.wav","null","2","","","","","","",""
"null","","html-keyboard-response","622","4108224","0.0-15.0-1.42","l","21","<p style=""font-size: 48px;"">+</p>","null","2","","","","","","",""
"446.1399999852292","","image-keyboard-response","623","4108672","0.0-15.0-2.42","l","21","Images/whistle_1.png","65","2","1582161527307","non-match","whistle","cow","label","test","true"
"null","","audio-keyboard-response","624","4110681","0.0-15.0-3.42","l","21","Sounds/correct.wav","null","2","","","","","","",""
"null","","audio-keyboard-response","625","4111573","0.0-15.0-0.43","l","21","Sounds/frog_label.wav","null","2","","","","","","",""
"null","","html-keyboard-response","626","4112591","0.0-15.0-1.43","l","21","<p style=""font-size: 48px;"">+</p>","null","2","","","","","","",""
"479.3350000111386","","image-keyboard-response","627","4113071","0.0-15.0-2.43","l","21","Images/frog_cartoon.png","76","2","1582161531673","match","frog","frog","label","test","true"
"null","","audio-keyboard-response","628","4115080","0.0-15.0-3.43","l","21","Sounds/correct.wav","null","2","","","","","","",""
"null","","audio-keyboard-response","629","4116213","0.0-15.0-0.44","l","21","Sounds/motorcycle_label.wav","null","2","","","","","","",""
"null","","html-keyboard-response","630","4117208","0.0-15.0-1.44","l","21","<p style=""font-size: 48px;"">+</p>","null","2","","","","","","",""
"486.8200000198558","","image-keyboard-response","631","4117696","0.0-15.0-2.44","l","21","Images/rooster_cartoon.png","65","2","1582161536290","non-match","rooster","motorcycle","label","test","true"
"null","","audio-keyboard-response","632","4119712","0.0-15.0-3.44","l","21","Sounds/correct.wav","null","2","","","","","","",""
"null","","audio-keyboard-response","633","4121013","0.0-15.0-0.45","l","21","Sounds/train_sound.wav","null","2","","","","","","",""
"null","","html-keyboard-response","634","4122008","0.0-15.0-1.45","l","21","<p style=""font-size: 48px;"">+</p>","null","2","","","","","","",""
"662.6200000173412","","image-keyboard-response","635","4122672","0.0-15.0-2.45","l","21","Images/train_2.png","65","2","1582161541090","match","train","train","sound","test","false"
"null","","audio-keyboard-response","636","4124681","0.0-15.0-3.45","l","21","Sounds/incorrect.wav","null","2","","","","","","",""
"null","","audio-keyboard-response","637","4125693","0.0-15.0-0.46","l","21","Sounds/cow_label.wav","null","2","","","","","","",""
"null","","html-keyboard-response","638","4126691","0.0-15.0-1.46","l","21","<p style=""font-size: 48px;"">+</p>","null","2","","","","","","",""
"715.1749999905005","","image-keyboard-response","639","4127407","0.0-15.0-2.46","l","21","Images/cow_3.png","76","2","1582161545773","match","cow","cow","label","test","true"
"null","","audio-keyboard-response","640","4129413","0.0-15.0-3.46","l","21","Sounds/correct.wav","null","2","","","","","","",""
"null","","audio-keyboard-response","641","4130113","0.0-15.0-0.47","l","21","Sounds/dog_sound.wav","null","2","","","","","","",""
"null","","html-keyboard-response","642","4131108","0.0-15.0-1.47","l","21","<p style=""font-size: 48px;"">+</p>","null","2","","","","","","",""
"682.6799999978393","","image-keyboard-response","643","4131792","0.0-15.0-2.47","l","21","Images/dog_3.png","76","2","1582161550190","match","dog","dog","sound","test","true"
"null","","audio-keyboard-response","644","4133796","0.0-15.0-3.47","l","21","Sounds/correct.wav","null","2","","","","","","",""
"null","","audio-keyboard-response","645","4134793","0.0-15.0-0.48","l","21","Sounds/cow_label.wav","null","2","","","","","","",""
"null","","html-keyboard-response","646","4135791","0.0-15.0-1.48","l","21","<p style=""font-size: 48px;"">+</p>","null","2","","","","","","",""
"831.0449999989942","","image-keyboard-response","647","4136623","0.0-15.0-2.48","l","21","Images/cow_1.png","76","2","1582161554873","match","cow","cow","label","test","true"
"null","","audio-keyboard-response","648","4138630","0.0-15.0-3.48","l","21","Sounds/correct.wav","null","2","","","","","","",""
"null","","audio-keyboard-response","649","4139313","0.0-15.0-0.49","l","21","Sounds/whistle_label.wav","null","2","","","","","","",""
"null","","html-keyboard-response","650","4140308","0.0-15.0-1.49","l","21","<p style=""font-size: 48px;"">+</p>","null","2","","","","","","",""
"521.7000000118278","","image-keyboard-response","651","4140831","0.0-15.0-2.49","l","21","Images/cat_2.png","65","2","1582161559390","non-match","cat","whistle","label","test","true"
"null","","audio-keyboard-response","652","4142845","0.0-15.0-3.49","l","21","Sounds/correct.wav","null","2","","","","","","",""
"null","","audio-keyboard-response","653","4143753","0.0-15.0-0.50","l","21","Sounds/frog_sound.wav","null","2","","","","","","",""
"null","","html-keyboard-response","654","4144741","0.0-15.0-1.50","l","21","<p style=""font-size: 48px;"">+</p>","null","2","","","","","","",""
"569.0749999778345","","image-keyboard-response","655","4145312","0.0-15.0-2.50","l","21","Images/cow_3.png","65","2","1582161563824","non-match","cow","frog","sound","test","true"
"null","","audio-keyboard-response","656","4147329","0.0-15.0-3.50","l","21","Sounds/correct.wav","null","2","","","","","","",""
"null","","audio-keyboard-response","657","4148613","0.0-15.0-0.51","l","21","Sounds/train_label.wav","null","2","","","","","","",""
