"rt","responses","trial_type","trial_index","time_elapsed","internal_node_id","match_key","participant_id","stimulus","key_press","block","stim_onset","match_type","image_category","sound_category","audio_type","phase","correct"
"32888.5200000077","{""Q0"":""cogs219_2020_39""}","survey-text","0","32953","0.0-0.0","l","cogs219_2020_39","","","","","","","","","",""
"28153.67500000866","","html-keyboard-response","1","61122","0.0-1.0","l","cogs219_2020_39","<p>Use KEYBOARD 1 (match RIGHT)</p><p>Press MATCH to continue.</p>","76","","","","","","","",""
"2348531.3349999776","","html-keyboard-response","2","2408568","0.0-2.0","l","cogs219_2020_39","<p>Welcome to the experiment.</p>","39","","","","","","","",""
"7481.2099999981","","html-keyboard-response","3","2416055","0.0-3.0","l","cogs219_2020_39","<p>Thank you for agreeing to participate in this study.</p><p>If during any part of the procedure you must stop for any reason, please inform the researcher that you do not wish to continue.</p>","39","","","","","","","",""
"15951.549999997951","","html-keyboard-response","4","2432007","0.0-4.0","l","cogs219_2020_39","<p>In this experiment, you will hear various words or sounds and see pictures of various animals and objects.</p><p>Most of the images will be of common everyday objects, such as cars, cats, cows, firearms, frogs, chickens, whistles, trains, motorcycles, and dogs.</p><p>Some of the images will be real-life stills, while others will be cartoons.</p>","39","","","","","","","",""
"12030.440000002272","","html-keyboard-response","5","2444027","0.0-5.0","l","cogs219_2020_39","<p>Sometimes, the word/sound will match the picture, for example you'll hear a meowing sound and see a cat.</p><p>Other times, the picture will not match the sound or word.</p><p>Your task is to decide as quickly as possible if the word/sound matches the picture or not. </p>","39","","","","","","","",""
"12975.050000008196","","html-keyboard-response","6","2457003","0.0-6.0","l","cogs219_2020_39","<p>For example, if you hear the word ""cat"" or hear a meowing sound, and then see a picture of a cat, you should press the MATCH key.</p><p> If the sound and image do not match, press the NOT-MATCH key to indicate that there is not a match.</p>","39","","","","","","","",""
"11118.32000000868","","html-keyboard-response","7","2468126","0.0-7.0","l","cogs219_2020_39","<p>If you make a mistake, you will hear a buzzing sound instead of a more pleasant sound.</p><p> Try to respond as quickly as possible, while making as few errors as possible. If you are making mistakes, you are probably rushing.</p>","39","","","","","","","",""
"16299.199999979232","","html-keyboard-response","8","2484426","0.0-8.0","l","cogs219_2020_39","<p>Please try to not move or blink your eyes during the presentation of the images. You can move and blink between images.</p><p>During the experiment there will be some breaks during which you can rest your eyes.</p>","39","","","","","","","",""
"17167.435000009835","","html-keyboard-response","9","2501595","0.0-9.0","l","cogs219_2020_39","<p>We will begin with 10 practice trials. Please let the experimenter know if you have any questions.</p>","39","","","","","","","",""
"null","","audio-keyboard-response","10","2502583","0.0-10.0-0.0","l","cogs219_2020_39","Sounds/frog_label.wav","null","0","","","","","","",""
"null","","html-keyboard-response","11","2503575","0.0-10.0-1.0","l","cogs219_2020_39","<p style=""font-size: 48px;"">+</p>","null","0","","","","","","",""
"5985.420000011567","","image-keyboard-response","12","2509575","0.0-10.0-2.0","l","cogs219_2020_39","Images/frog_1.png","76","0","1583250380714","match","frog","frog","label","practice","true"
"null","","audio-keyboard-response","13","2511580","0.0-10.0-3.0","l","cogs219_2020_39","Sounds/correct.wav","null","0","","","","","","",""
"null","","audio-keyboard-response","14","2512275","0.0-10.0-0.1","l","cogs219_2020_39","Sounds/rooster_sound.wav","null","0","","","","","","",""
"null","","html-keyboard-response","15","2513271","0.0-10.0-1.1","l","cogs219_2020_39","<p style=""font-size: 48px;"">+</p>","null","0","","","","","","",""
"478.34999999031425","","image-keyboard-response","16","2513751","0.0-10.0-2.1","l","cogs219_2020_39","Images/rooster_cartoon.png","76","0","1583250390409","match","rooster","rooster","sound","practice","true"
"null","","audio-keyboard-response","17","2515760","0.0-10.0-3.1","l","cogs219_2020_39","Sounds/correct.wav","null","0","","","","","","",""
"null","","audio-keyboard-response","18","2516675","0.0-10.0-0.2","l","cogs219_2020_39","Sounds/frog_sound.wav","null","0","","","","","","",""
"null","","html-keyboard-response","19","2517671","0.0-10.0-1.2","l","cogs219_2020_39","<p style=""font-size: 48px;"">+</p>","null","0","","","","","","",""
"3774.1649999804795","","image-keyboard-response","20","2521446","0.0-10.0-2.2","l","cogs219_2020_39","Images/motorcycle_1.png","65","0","1583250394809","non-match","motorcycle","frog","sound","practice","true"
"null","","audio-keyboard-response","21","2523461","0.0-10.0-3.2","l","cogs219_2020_39","Sounds/correct.wav","null","0","","","","","","",""
"null","","audio-keyboard-response","22","2524115","0.0-10.0-0.3","l","cogs219_2020_39","Sounds/dog_label.wav","null","0","","","","","","",""
"null","","html-keyboard-response","23","2525104","0.0-10.0-1.3","l","cogs219_2020_39","<p style=""font-size: 48px;"">+</p>","null","0","","","","","","",""
"549.0749999880791","","image-keyboard-response","24","2525655","0.0-10.0-2.3","l","cogs219_2020_39","Images/motorcycle_3.png","65","0","1583250402243","non-match","motorcycle","dog","label","practice","true"
"null","","audio-keyboard-response","25","2527660","0.0-10.0-3.3","l","cogs219_2020_39","Sounds/correct.wav","null","0","","","","","","",""
"null","","audio-keyboard-response","26","2528735","0.0-10.0-0.4","l","cogs219_2020_39","Sounds/car_sound.wav","null","0","","","","","","",""
"null","","html-keyboard-response","27","2529738","0.0-10.0-1.4","l","cogs219_2020_39","<p style=""font-size: 48px;"">+</p>","null","0","","","","","","",""
"1099.3350000060163","","image-keyboard-response","28","2530838","0.0-10.0-2.4","l","cogs219_2020_39","Images/car_1.png","76","0","1583250406876","match","car","car","sound","practice","true"
"null","","audio-keyboard-response","29","2532846","0.0-10.0-3.4","l","cogs219_2020_39","Sounds/correct.wav","null","0","","","","","","",""
"null","","audio-keyboard-response","30","2533435","0.0-10.0-0.5","l","cogs219_2020_39","Sounds/gun_label.wav","null","0","","","","","","",""
"null","","html-keyboard-response","31","2534438","0.0-10.0-1.5","l","cogs219_2020_39","<p style=""font-size: 48px;"">+</p>","null","0","","","","","","",""
"767.4550000233576","","image-keyboard-response","32","2535207","0.0-10.0-2.5","l","cogs219_2020_39","Images/gun_3.png","76","0","1583250411576","match","gun","gun","label","practice","true"
"null","","audio-keyboard-response","33","2537210","0.0-10.0-3.5","l","cogs219_2020_39","Sounds/correct.wav","null","0","","","","","","",""
"null","","audio-keyboard-response","34","2538055","0.0-10.0-0.6","l","cogs219_2020_39","Sounds/cat_label.wav","null","0","","","","","","",""
"null","","html-keyboard-response","35","2539055","0.0-10.0-1.6","l","cogs219_2020_39","<p style=""font-size: 48px;"">+</p>","null","0","","","","","","",""
"694.7649999926798","","image-keyboard-response","36","2539751","0.0-10.0-2.6","l","cogs219_2020_39","Images/car_cartoon.png","65","0","1583250416193","non-match","car","cat","label","practice","true"
"null","","audio-keyboard-response","37","2541759","0.0-10.0-3.6","l","cogs219_2020_39","Sounds/correct.wav","null","0","","","","","","",""
"null","","audio-keyboard-response","38","2543055","0.0-10.0-0.7","l","cogs219_2020_39","Sounds/train_sound.wav","null","0","","","","","","",""
"null","","html-keyboard-response","39","2544055","0.0-10.0-1.7","l","cogs219_2020_39","<p style=""font-size: 48px;"">+</p>","null","0","","","","","","",""
"510.94000000786036","","image-keyboard-response","40","2544567","0.0-10.0-2.7","l","cogs219_2020_39","Images/car_2.png","65","0","1583250421193","non-match","car","train","sound","practice","true"
"null","","audio-keyboard-response","41","2546575","0.0-10.0-3.7","l","cogs219_2020_39","Sounds/correct.wav","null","0","","","","","","",""
"null","","audio-keyboard-response","42","2547275","0.0-10.0-0.8","l","cogs219_2020_39","Sounds/rooster_sound.wav","null","0","","","","","","",""
"null","","html-keyboard-response","43","2548271","0.0-10.0-1.8","l","cogs219_2020_39","<p style=""font-size: 48px;"">+</p>","null","0","","","","","","",""
"501.9449999961071","","image-keyboard-response","44","2548775","0.0-10.0-2.8","l","cogs219_2020_39","Images/whistle_3.png","65","0","1583250425410","non-match","whistle","rooster","sound","practice","true"
"null","","audio-keyboard-response","45","2550792","0.0-10.0-3.8","l","cogs219_2020_39","Sounds/correct.wav","null","0","","","","","","",""
"null","","audio-keyboard-response","46","2551495","0.0-10.0-0.9","l","cogs219_2020_39","Sounds/whistle_label.wav","null","0","","","","","","",""
"null","","html-keyboard-response","47","2552488","0.0-10.0-1.9","l","cogs219_2020_39","<p style=""font-size: 48px;"">+</p>","null","0","","","","","","",""
"621.3599999900907","","image-keyboard-response","48","2553111","0.0-10.0-2.9","l","cogs219_2020_39","Images/cow_cartoon.png","65","0","1583250429627","non-match","cow","whistle","label","practice","true"
"null","","audio-keyboard-response","49","2555126","0.0-10.0-3.9","l","cogs219_2020_39","Sounds/correct.wav","null","0","","","","","","",""
"24304.474999982864","","html-keyboard-response","50","2579429","0.0-11.0","l","cogs219_2020_39","<p>The rest of the experiment is divided into five blocks with 100 trials in each block. It will take about 45 minutes to complete.</p><p>The experimenter will be in the outer room and you can communicate with them through the monitor if you have any questions or wish to stop the experiment.</p>","39","","","","","","","",""
"23167.204999976326","","html-keyboard-response","51","2602598","0.0-12.0","l","cogs219_2020_39","<p>Remember, please try not to move or blink your eyes during the presentation of the images. </p><p>At the end of the experiment, we will show you your scores on the task so you can see how you did.</p><p>The experiment will start on the next screen.</p>","39","","","","","","","",""
"null","","audio-keyboard-response","52","2605540","0.0-13.0-0.0","l","cogs219_2020_39","Sounds/frog_sound.wav","null","1","","","","","","",""
"null","","html-keyboard-response","53","2606537","0.0-13.0-1.0","l","cogs219_2020_39","<p style=""font-size: 48px;"">+</p>","null","1","","","","","","",""
"506.9499999806285","","image-keyboard-response","54","2607045","0.0-13.0-2.0","l","cogs219_2020_39","Images/frog_3.png","76","1","1583250483675","match","frog","frog","sound","test","true"
"null","","audio-keyboard-response","55","2609060","0.0-13.0-3.0","l","cogs219_2020_39","Sounds/correct.wav","null","1","","","","","","",""
"null","","audio-keyboard-response","56","2609641","0.0-13.0-0.1","l","cogs219_2020_39","Sounds/gun_sound.wav","null","1","","","","","","",""
"null","","html-keyboard-response","57","2610637","0.0-13.0-1.1","l","cogs219_2020_39","<p style=""font-size: 48px;"">+</p>","null","1","","","","","","",""
"662.6450000042096","","image-keyboard-response","58","2611301","0.0-13.0-2.1","l","cogs219_2020_39","Images/whistle_2.png","65","1","1583250487775","non-match","whistle","gun","sound","test","true"
"null","","audio-keyboard-response","59","2613309","0.0-13.0-3.1","l","cogs219_2020_39","Sounds/correct.wav","null","1","","","","","","",""
"null","","audio-keyboard-response","60","2614580","0.0-13.0-0.2","l","cogs219_2020_39","Sounds/train_label.wav","null","1","","","","","","",""
"null","","html-keyboard-response","61","2615570","0.0-13.0-1.2","l","cogs219_2020_39","<p style=""font-size: 48px;"">+</p>","null","1","","","","","","",""
"449.13500000257045","","image-keyboard-response","62","2616021","0.0-13.0-2.2","l","cogs219_2020_39","Images/train_cartoon.png","76","1","1583250492709","match","train","train","label","test","true"
"null","","audio-keyboard-response","63","2618026","0.0-13.0-3.2","l","cogs219_2020_39","Sounds/correct.wav","null","1","","","","","","",""
"null","","audio-keyboard-response","64","2619160","0.0-13.0-0.3","l","cogs219_2020_39","Sounds/motorcycle_label.wav","null","1","","","","","","",""
"null","","html-keyboard-response","65","2620154","0.0-13.0-1.3","l","cogs219_2020_39","<p style=""font-size: 48px;"">+</p>","null","1","","","","","","",""
"1033.815000002738","","image-keyboard-response","66","2621189","0.0-13.0-2.3","l","cogs219_2020_39","Images/motorcycle_orig.png","76","1","1583250497292","match","motorcycle","motorcycle","label","test","true"
"null","","audio-keyboard-response","67","2623192","0.0-13.0-3.3","l","cogs219_2020_39","Sounds/correct.wav","null","1","","","","","","",""
"null","","audio-keyboard-response","68","2623860","0.0-13.0-0.4","l","cogs219_2020_39","Sounds/dog_label.wav","null","1","","","","","","",""
"null","","html-keyboard-response","69","2624854","0.0-13.0-1.4","l","cogs219_2020_39","<p style=""font-size: 48px;"">+</p>","null","1","","","","","","",""
"509.9150000018999","","image-keyboard-response","70","2625365","0.0-13.0-2.4","l","cogs219_2020_39","Images/cow_cartoon.png","65","1","1583250501992","non-match","cow","dog","label","test","true"
"null","","audio-keyboard-response","71","2627373","0.0-13.0-3.4","l","cogs219_2020_39","Sounds/correct.wav","null","1","","","","","","",""
"null","","audio-keyboard-response","72","2628280","0.0-13.0-0.5","l","cogs219_2020_39","Sounds/frog_sound.wav","null","1","","","","","","",""
"null","","html-keyboard-response","73","2629270","0.0-13.0-1.5","l","cogs219_2020_39","<p style=""font-size: 48px;"">+</p>","null","1","","","","","","",""
"445.69500000216067","","image-keyboard-response","74","2629717","0.0-13.0-2.5","l","cogs219_2020_39","Images/rooster_2.png","65","1","1583250506408","non-match","rooster","frog","sound","test","true"
"null","","audio-keyboard-response","75","2631727","0.0-13.0-3.5","l","cogs219_2020_39","Sounds/correct.wav","null","1","","","","","","",""
"null","","audio-keyboard-response","76","2632300","0.0-13.0-0.6","l","cogs219_2020_39","Sounds/gun_label.wav","null","1","","","","","","",""
"null","","html-keyboard-response","77","2633304","0.0-13.0-1.6","l","cogs219_2020_39","<p style=""font-size: 48px;"">+</p>","null","1","","","","","","",""
"651.3900000136346","","image-keyboard-response","78","2633957","0.0-13.0-2.6","l","cogs219_2020_39","Images/gun_cartoon.png","76","1","1583250510442","match","gun","gun","label","test","true"
"null","","audio-keyboard-response","79","2635960","0.0-13.0-3.6","l","cogs219_2020_39","Sounds/correct.wav","null","1","","","","","","",""
"null","","audio-keyboard-response","80","2637080","0.0-13.0-0.7","l","cogs219_2020_39","Sounds/motorcycle_label.wav","null","1","","","","","","",""
"null","","html-keyboard-response","81","2638071","0.0-13.0-1.7","l","cogs219_2020_39","<p style=""font-size: 48px;"">+</p>","null","1","","","","","","",""
"493.0900000035763","","image-keyboard-response","82","2638565","0.0-13.0-2.7","l","cogs219_2020_39","Images/car_orig.png","65","1","1583250515209","non-match","car","motorcycle","label","test","true"
"null","","audio-keyboard-response","83","2640567","0.0-13.0-3.7","l","cogs219_2020_39","Sounds/correct.wav","null","1","","","","","","",""
"null","","audio-keyboard-response","84","2641260","0.0-13.0-0.8","l","cogs219_2020_39","Sounds/whistle_label.wav","null","1","","","","","","",""
"null","","html-keyboard-response","85","2642254","0.0-13.0-1.8","l","cogs219_2020_39","<p style=""font-size: 48px;"">+</p>","null","1","","","","","","",""
"517.9099999950267","","image-keyboard-response","86","2642772","0.0-13.0-2.8","l","cogs219_2020_39","Images/whistle_orig.png","76","1","1583250519392","match","whistle","whistle","label","test","true"
"null","","audio-keyboard-response","87","2644775","0.0-13.0-3.8","l","cogs219_2020_39","Sounds/correct.wav","null","1","","","","","","",""
"null","","audio-keyboard-response","88","2645480","0.0-13.0-0.9","l","cogs219_2020_39","Sounds/dog_sound.wav","null","1","","","","","","",""
"null","","html-keyboard-response","89","2646470","0.0-13.0-1.9","l","cogs219_2020_39","<p style=""font-size: 48px;"">+</p>","null","1","","","","","","",""
"493.11000001011416","","image-keyboard-response","90","2646964","0.0-13.0-2.9","l","cogs219_2020_39","Images/dog_3.png","76","1","1583250523609","match","dog","dog","sound","test","true"
"null","","audio-keyboard-response","91","2648975","0.0-13.0-3.9","l","cogs219_2020_39","Sounds/correct.wav","null","1","","","","","","",""
"null","","audio-keyboard-response","92","2649680","0.0-13.0-0.10","l","cogs219_2020_39","Sounds/rooster_label.wav","null","1","","","","","","",""
"null","","html-keyboard-response","93","2650670","0.0-13.0-1.10","l","cogs219_2020_39","<p style=""font-size: 48px;"">+</p>","null","1","","","","","","",""
"517.0649999929592","","image-keyboard-response","94","2651188","0.0-13.0-2.10","l","cogs219_2020_39","Images/cat_cartoon.png","65","1","1583250527809","non-match","cat","rooster","label","test","true"
"null","","audio-keyboard-response","95","2653192","0.0-13.0-3.10","l","cogs219_2020_39","Sounds/correct.wav","null","1","","","","","","",""
"null","","audio-keyboard-response","96","2653760","0.0-13.0-0.11","l","cogs219_2020_39","Sounds/gun_label.wav","null","1","","","","","","",""
"null","","html-keyboard-response","97","2654754","0.0-13.0-1.11","l","cogs219_2020_39","<p style=""font-size: 48px;"">+</p>","null","1","","","","","","",""
"449.9849999845028","","image-keyboard-response","98","2655205","0.0-13.0-2.11","l","cogs219_2020_39","Images/cow_1.png","65","1","1583250531892","non-match","cow","gun","label","test","true"
"null","","audio-keyboard-response","99","2657209","0.0-13.0-3.11","l","cogs219_2020_39","Sounds/correct.wav","null","1","","","","","","",""
"null","","audio-keyboard-response","100","2658280","0.0-13.0-0.12","l","cogs219_2020_39","Sounds/car_sound.wav","null","1","","","","","","",""
"null","","html-keyboard-response","101","2659270","0.0-13.0-1.12","l","cogs219_2020_39","<p style=""font-size: 48px;"">+</p>","null","1","","","","","","",""
"412.8250000067055","","image-keyboard-response","102","2659684","0.0-13.0-2.12","l","cogs219_2020_39","Images/frog_1.png","65","1","1583250536409","non-match","frog","car","sound","test","true"
"null","","audio-keyboard-response","103","2661692","0.0-13.0-3.12","l","cogs219_2020_39","Sounds/correct.wav","null","1","","","","","","",""
"null","","audio-keyboard-response","104","2662600","0.0-13.0-0.13","l","cogs219_2020_39","Sounds/frog_sound.wav","null","1","","","","","","",""
"null","","html-keyboard-response","105","2663604","0.0-13.0-1.13","l","cogs219_2020_39","<p style=""font-size: 48px;"">+</p>","null","1","","","","","","",""
"527.560000016354","","image-keyboard-response","106","2664133","0.0-13.0-2.13","l","cogs219_2020_39","Images/frog_1.png","76","1","1583250540742","match","frog","frog","sound","test","true"
"null","","audio-keyboard-response","107","2666142","0.0-13.0-3.13","l","cogs219_2020_39","Sounds/correct.wav","null","1","","","","","","",""
"null","","audio-keyboard-response","108","2667260","0.0-13.0-0.14","l","cogs219_2020_39","Sounds/motorcycle_sound.wav","null","1","","","","","","",""
"null","","html-keyboard-response","109","2668254","0.0-13.0-1.14","l","cogs219_2020_39","<p style=""font-size: 48px;"">+</p>","null","1","","","","","","",""
"789.699999993667","","image-keyboard-response","110","2669045","0.0-13.0-2.14","l","cogs219_2020_39","Images/motorcycle_2.png","76","1","1583250545392","match","motorcycle","motorcycle","sound","test","true"
"null","","audio-keyboard-response","111","2671058","0.0-13.0-3.14","l","cogs219_2020_39","Sounds/correct.wav","null","1","","","","","","",""
"null","","audio-keyboard-response","112","2672080","0.0-13.0-0.15","l","cogs219_2020_39","Sounds/cow_sound.wav","null","1","","","","","","",""
"null","","html-keyboard-response","113","2673071","0.0-13.0-1.15","l","cogs219_2020_39","<p style=""font-size: 48px;"">+</p>","null","1","","","","","","",""
"372.8200000184588","","image-keyboard-response","114","2673444","0.0-13.0-2.15","l","cogs219_2020_39","Images/motorcycle_3.png","65","1","1583250550209","non-match","motorcycle","cow","sound","test","true"
"null","","audio-keyboard-response","115","2675458","0.0-13.0-3.15","l","cogs219_2020_39","Sounds/correct.wav","null","1","","","","","","",""
"null","","audio-keyboard-response","116","2676540","0.0-13.0-0.16","l","cogs219_2020_39","Sounds/car_label.wav","null","1","","","","","","",""
"null","","html-keyboard-response","117","2677537","0.0-13.0-1.16","l","cogs219_2020_39","<p style=""font-size: 48px;"">+</p>","null","1","","","","","","",""
"450.1549999988638","","image-keyboard-response","118","2677989","0.0-13.0-2.16","l","cogs219_2020_39","Images/car_3.png","76","1","1583250554675","match","car","car","label","test","true"
"null","","audio-keyboard-response","119","2679993","0.0-13.0-3.16","l","cogs219_2020_39","Sounds/correct.wav","null","1","","","","","","",""
"null","","audio-keyboard-response","120","2680840","0.0-13.0-0.17","l","cogs219_2020_39","Sounds/cat_label.wav","null","1","","","","","","",""
"null","","html-keyboard-response","121","2681837","0.0-13.0-1.17","l","cogs219_2020_39","<p style=""font-size: 48px;"">+</p>","null","1","","","","","","",""
"390.1499999919906","","image-keyboard-response","122","2682229","0.0-13.0-2.17","l","cogs219_2020_39","Images/motorcycle_2.png","65","1","1583250558976","non-match","motorcycle","cat","label","test","true"
"null","","audio-keyboard-response","123","2684243","0.0-13.0-3.17","l","cogs219_2020_39","Sounds/correct.wav","null","1","","","","","","",""
"null","","audio-keyboard-response","124","2685520","0.0-13.0-0.18","l","cogs219_2020_39","Sounds/train_label.wav","null","1","","","","","","",""
"null","","html-keyboard-response","125","2686537","0.0-13.0-1.18","l","cogs219_2020_39","<p style=""font-size: 48px;"">+</p>","null","1","","","","","","",""
"473.99500000756234","","image-keyboard-response","126","2687012","0.0-13.0-2.18","l","cogs219_2020_39","Images/whistle_cartoon.png","65","1","1583250563676","non-match","whistle","train","label","test","true"
"null","","audio-keyboard-response","127","2689024","0.0-13.0-3.18","l","cogs219_2020_39","Sounds/correct.wav","null","1","","","","","","",""
"null","","audio-keyboard-response","128","2689940","0.0-13.0-0.19","l","cogs219_2020_39","Sounds/frog_sound.wav","null","1","","","","","","",""
"null","","html-keyboard-response","129","2690938","0.0-13.0-1.19","l","cogs219_2020_39","<p style=""font-size: 48px;"">+</p>","null","1","","","","","","",""
"425.7449999861419","","image-keyboard-response","130","2691364","0.0-13.0-2.19","l","cogs219_2020_39","Images/frog_2.png","76","1","1583250568076","match","frog","frog","sound","test","true"
"null","","audio-keyboard-response","131","2693375","0.0-13.0-3.19","l","cogs219_2020_39","Sounds/correct.wav","null","1","","","","","","",""
"null","","audio-keyboard-response","132","2694400","0.0-13.0-0.20","l","cogs219_2020_39","Sounds/cow_label.wav","null","1","","","","","","",""
"null","","html-keyboard-response","133","2695404","0.0-13.0-1.20","l","cogs219_2020_39","<p style=""font-size: 48px;"">+</p>","null","1","","","","","","",""
"535.52499998454","","image-keyboard-response","134","2695941","0.0-13.0-2.20","l","cogs219_2020_39","Images/rooster_1.png","65","1","1583250572543","non-match","rooster","cow","label","test","true"
"null","","audio-keyboard-response","135","2697944","0.0-13.0-3.20","l","cogs219_2020_39","Sounds/correct.wav","null","1","","","","","","",""
"null","","audio-keyboard-response","136","2698660","0.0-13.0-0.21","l","cogs219_2020_39","Sounds/dog_sound.wav","null","1","","","","","","",""
"null","","html-keyboard-response","137","2699654","0.0-13.0-1.21","l","cogs219_2020_39","<p style=""font-size: 48px;"">+</p>","null","1","","","","","","",""
"477.15499997138977","","image-keyboard-response","138","2700132","0.0-13.0-2.21","l","cogs219_2020_39","Images/dog_1.png","65","1","1583250576793","match","dog","dog","sound","test","false"
"null","","audio-keyboard-response","139","2702140","0.0-13.0-3.21","l","cogs219_2020_39","Sounds/incorrect.wav","null","1","","","","","","",""
"null","","audio-keyboard-response","140","2703259","0.0-13.0-0.22","l","cogs219_2020_39","Sounds/motorcycle_sound.wav","null","1","","","","","","",""
"null","","html-keyboard-response","141","2704253","0.0-13.0-1.22","l","cogs219_2020_39","<p style=""font-size: 48px;"">+</p>","null","1","","","","","","",""
"549.0749999880791","","image-keyboard-response","142","2704803","0.0-13.0-2.22","l","cogs219_2020_39","Images/gun_cartoon.png","65","1","1583250581391","non-match","gun","motorcycle","sound","test","true"
"null","","audio-keyboard-response","143","2706813","0.0-13.0-3.22","l","cogs219_2020_39","Sounds/correct.wav","null","1","","","","","","",""
"null","","audio-keyboard-response","144","2707959","0.0-13.0-0.23","l","cogs219_2020_39","Sounds/motorcycle_label.wav","null","1","","","","","","",""
"null","","html-keyboard-response","145","2708953","0.0-13.0-1.23","l","cogs219_2020_39","<p style=""font-size: 48px;"">+</p>","null","1","","","","","","",""
"600.4749999847263","","image-keyboard-response","146","2709555","0.0-13.0-2.23","l","cogs219_2020_39","Images/whistle_1.png","65","1","1583250586091","non-match","whistle","motorcycle","label","test","true"
"null","","audio-keyboard-response","147","2711558","0.0-13.0-3.23","l","cogs219_2020_39","Sounds/correct.wav","null","1","","","","","","",""
"null","","audio-keyboard-response","148","2712658","0.0-13.0-0.24","l","cogs219_2020_39","Sounds/motorcycle_sound.wav","null","1","","","","","","",""
"null","","html-keyboard-response","149","2713653","0.0-13.0-1.24","l","cogs219_2020_39","<p style=""font-size: 48px;"">+</p>","null","1","","","","","","",""
"749.3400000091642","","image-keyboard-response","150","2714404","0.0-13.0-2.24","l","cogs219_2020_39","Images/cow_orig.png","65","1","1583250590791","non-match","cow","motorcycle","sound","test","true"
"null","","audio-keyboard-response","151","2716408","0.0-13.0-3.24","l","cogs219_2020_39","Sounds/correct.wav","null","1","","","","","","",""
"null","","audio-keyboard-response","152","2717099","0.0-13.0-0.25","l","cogs219_2020_39","Sounds/whistle_sound.wav","null","1","","","","","","",""
"null","","html-keyboard-response","153","2718103","0.0-13.0-1.25","l","cogs219_2020_39","<p style=""font-size: 48px;"">+</p>","null","1","","","","","","",""
"362.74499999079853","","image-keyboard-response","154","2718467","0.0-13.0-2.25","l","cogs219_2020_39","Images/whistle_cartoon.png","76","1","1583250595242","match","whistle","whistle","sound","test","true"
"null","","audio-keyboard-response","155","2720477","0.0-13.0-3.25","l","cogs219_2020_39","Sounds/correct.wav","null","1","","","","","","",""
"null","","audio-keyboard-response","156","2721559","0.0-13.0-0.26","l","cogs219_2020_39","Sounds/car_sound.wav","null","1","","","","","","",""
"null","","html-keyboard-response","157","2722553","0.0-13.0-1.26","l","cogs219_2020_39","<p style=""font-size: 48px;"">+</p>","null","1","","","","","","",""
"521.2099999771453","","image-keyboard-response","158","2723075","0.0-13.0-2.26","l","cogs219_2020_39","Images/gun_orig.png","65","1","1583250599692","non-match","gun","car","sound","test","true"
"null","","audio-keyboard-response","159","2725091","0.0-13.0-3.26","l","cogs219_2020_39","Sounds/correct.wav","null","1","","","","","","",""
"null","","audio-keyboard-response","160","2725659","0.0-13.0-0.27","l","cogs219_2020_39","Sounds/gun_sound.wav","null","1","","","","","","",""
"null","","html-keyboard-response","161","2726653","0.0-13.0-1.27","l","cogs219_2020_39","<p style=""font-size: 48px;"">+</p>","null","1","","","","","","",""
"532.8049999950454","","image-keyboard-response","162","2727187","0.0-13.0-2.27","l","cogs219_2020_39","Images/gun_3.png","76","1","1583250603792","match","gun","gun","sound","test","true"
"null","","audio-keyboard-response","163","2729192","0.0-13.0-3.27","l","cogs219_2020_39","Sounds/correct.wav","null","1","","","","","","",""
"null","","audio-keyboard-response","164","2729859","0.0-13.0-0.28","l","cogs219_2020_39","Sounds/dog_label.wav","null","1","","","","","","",""
"null","","html-keyboard-response","165","2730853","0.0-13.0-1.28","l","cogs219_2020_39","<p style=""font-size: 48px;"">+</p>","null","1","","","","","","",""
"460.76499999593943","","image-keyboard-response","166","2731315","0.0-13.0-2.28","l","cogs219_2020_39","Images/dog_cartoon.png","76","1","1583250607992","match","dog","dog","label","test","true"
"null","","audio-keyboard-response","167","2733318","0.0-13.0-3.28","l","cogs219_2020_39","Sounds/correct.wav","null","1","","","","","","",""
"null","","audio-keyboard-response","168","2734599","0.0-13.0-0.29","l","cogs219_2020_39","Sounds/train_label.wav","null","1","","","","","","",""
"null","","html-keyboard-response","169","2735604","0.0-13.0-1.29","l","cogs219_2020_39","<p style=""font-size: 48px;"">+</p>","null","1","","","","","","",""
"638.7249999972992","","image-keyboard-response","170","2736244","0.0-13.0-2.29","l","cogs219_2020_39","Images/car_2.png","65","1","1583250612742","non-match","car","train","label","test","true"
"null","","audio-keyboard-response","171","2738258","0.0-13.0-3.29","l","cogs219_2020_39","Sounds/correct.wav","null","1","","","","","","",""
"null","","audio-keyboard-response","172","2738819","0.0-13.0-0.30","l","cogs219_2020_39","Sounds/gun_sound.wav","null","1","","","","","","",""
"null","","html-keyboard-response","173","2739837","0.0-13.0-1.30","l","cogs219_2020_39","<p style=""font-size: 48px;"">+</p>","null","1","","","","","","",""
"645.2100000167266","","image-keyboard-response","174","2740483","0.0-13.0-2.30","l","cogs219_2020_39","Images/car_1.png","65","1","1583250616975","non-match","car","gun","sound","test","true"
"null","","audio-keyboard-response","175","2742493","0.0-13.0-3.30","l","cogs219_2020_39","Sounds/correct.wav","null","1","","","","","","",""
"null","","audio-keyboard-response","176","2743079","0.0-13.0-0.31","l","cogs219_2020_39","Sounds/gun_label.wav","null","1","","","","","","",""
"null","","html-keyboard-response","177","2744070","0.0-13.0-1.31","l","cogs219_2020_39","<p style=""font-size: 48px;"">+</p>","null","1","","","","","","",""
"427.89000002108514","","image-keyboard-response","178","2744499","0.0-13.0-2.31","l","cogs219_2020_39","Images/gun_orig.png","76","1","1583250621209","match","gun","gun","label","test","true"
"null","","audio-keyboard-response","179","2746509","0.0-13.0-3.31","l","cogs219_2020_39","Sounds/correct.wav","null","1","","","","","","",""
"null","","audio-keyboard-response","180","2747199","0.0-13.0-0.32","l","cogs219_2020_39","Sounds/whistle_label.wav","null","1","","","","","","",""
"null","","html-keyboard-response","181","2748187","0.0-13.0-1.32","l","cogs219_2020_39","<p style=""font-size: 48px;"">+</p>","null","1","","","","","","",""
"327.55499999644235","","image-keyboard-response","182","2748515","0.0-13.0-2.32","l","cogs219_2020_39","Images/whistle_2.png","76","1","1583250625325","match","whistle","whistle","label","test","true"
"null","","audio-keyboard-response","183","2750526","0.0-13.0-3.32","l","cogs219_2020_39","Sounds/correct.wav","null","1","","","","","","",""
"null","","audio-keyboard-response","184","2751439","0.0-13.0-0.33","l","cogs219_2020_39","Sounds/frog_sound.wav","null","1","","","","","","",""
"null","","html-keyboard-response","185","2752437","0.0-13.0-1.33","l","cogs219_2020_39","<p style=""font-size: 48px;"">+</p>","null","1","","","","","","",""
"365.20999998925254","","image-keyboard-response","186","2752803","0.0-13.0-2.33","l","cogs219_2020_39","Images/frog_cartoon.png","76","1","1583250629575","match","frog","frog","sound","test","true"
"null","","audio-keyboard-response","187","2754809","0.0-13.0-3.33","l","cogs219_2020_39","Sounds/correct.wav","null","1","","","","","","",""
"null","","audio-keyboard-response","188","2755819","0.0-13.0-0.34","l","cogs219_2020_39","Sounds/cow_sound.wav","null","1","","","","","","",""
"null","","html-keyboard-response","189","2756854","0.0-13.0-1.34","l","cogs219_2020_39","<p style=""font-size: 48px;"">+</p>","null","1","","","","","","",""
"380.56499999947846","","image-keyboard-response","190","2757235","0.0-13.0-2.34","l","cogs219_2020_39","Images/cow_1.png","76","1","1583250633992","match","cow","cow","sound","test","true"
"null","","audio-keyboard-response","191","2759244","0.0-13.0-3.34","l","cogs219_2020_39","Sounds/correct.wav","null","1","","","","","","",""
"null","","audio-keyboard-response","192","2760079","0.0-13.0-0.35","l","cogs219_2020_39","Sounds/cat_sound.wav","null","1","","","","","","",""
"null","","html-keyboard-response","193","2761070","0.0-13.0-1.35","l","cogs219_2020_39","<p style=""font-size: 48px;"">+</p>","null","1","","","","","","",""
"484.08500000368804","","image-keyboard-response","194","2761556","0.0-13.0-2.35","l","cogs219_2020_39","Images/frog_2.png","65","1","1583250638209","non-match","frog","cat","sound","test","true"
"null","","audio-keyboard-response","195","2763573","0.0-13.0-3.35","l","cogs219_2020_39","Sounds/correct.wav","null","1","","","","","","",""
"null","","audio-keyboard-response","196","2764698","0.0-13.0-0.36","l","cogs219_2020_39","Sounds/motorcycle_sound.wav","null","1","","","","","","",""
"null","","html-keyboard-response","197","2765703","0.0-13.0-1.36","l","cogs219_2020_39","<p style=""font-size: 48px;"">+</p>","null","1","","","","","","",""
"376.0400000028312","","image-keyboard-response","198","2766082","0.0-13.0-2.36","l","cogs219_2020_39","Images/motorcycle_1.png","76","1","1583250642841","match","motorcycle","motorcycle","sound","test","true"
"null","","audio-keyboard-response","199","2768092","0.0-13.0-3.36","l","cogs219_2020_39","Sounds/correct.wav","null","1","","","","","","",""
"null","","audio-keyboard-response","200","2769178","0.0-13.0-0.37","l","cogs219_2020_39","Sounds/car_label.wav","null","1","","","","","","",""
"null","","html-keyboard-response","201","2770170","0.0-13.0-1.37","l","cogs219_2020_39","<p style=""font-size: 48px;"">+</p>","null","1","","","","","","",""
"535.7150000054389","","image-keyboard-response","202","2770706","0.0-13.0-2.37","l","cogs219_2020_39","Images/car_cartoon.png","65","1","1583250647308","match","car","car","label","test","false"
"null","","audio-keyboard-response","203","2772710","0.0-13.0-3.37","l","cogs219_2020_39","Sounds/incorrect.wav","null","1","","","","","","",""
"null","","audio-keyboard-response","204","2773398","0.0-13.0-0.38","l","cogs219_2020_39","Sounds/whistle_sound.wav","null","1","","","","","","",""
"null","","html-keyboard-response","205","2774386","0.0-13.0-1.38","l","cogs219_2020_39","<p style=""font-size: 48px;"">+</p>","null","1","","","","","","",""
"799.2700000181794","","image-keyboard-response","206","2775187","0.0-13.0-2.38","l","cogs219_2020_39","Images/whistle_3.png","76","1","1583250651524","match","whistle","whistle","sound","test","true"
"null","","audio-keyboard-response","207","2777193","0.0-13.0-3.38","l","cogs219_2020_39","Sounds/correct.wav","null","1","","","","","","",""
"null","","audio-keyboard-response","208","2777898","0.0-13.0-0.39","l","cogs219_2020_39","Sounds/rooster_label.wav","null","1","","","","","","",""
"null","","html-keyboard-response","209","2778886","0.0-13.0-1.39","l","cogs219_2020_39","<p style=""font-size: 48px;"">+</p>","null","1","","","","","","",""
"410.91000000573695","","image-keyboard-response","210","2779298","0.0-13.0-2.39","l","cogs219_2020_39","Images/rooster_1.png","76","1","1583250656025","match","rooster","rooster","label","test","true"
"null","","audio-keyboard-response","211","2781306","0.0-13.0-3.39","l","cogs219_2020_39","Sounds/correct.wav","null","1","","","","","","",""
"null","","audio-keyboard-response","212","2781998","0.0-13.0-0.40","l","cogs219_2020_39","Sounds/rooster_sound.wav","null","1","","","","","","",""
"null","","html-keyboard-response","213","2782986","0.0-13.0-1.40","l","cogs219_2020_39","<p style=""font-size: 48px;"">+</p>","null","1","","","","","","",""
"630.8650000141934","","image-keyboard-response","214","2783618","0.0-13.0-2.40","l","cogs219_2020_39","Images/whistle_orig.png","65","1","1583250660125","non-match","whistle","rooster","sound","test","true"
"null","","audio-keyboard-response","215","2785625","0.0-13.0-3.40","l","cogs219_2020_39","Sounds/correct.wav","null","1","","","","","","",""
"null","","audio-keyboard-response","216","2786678","0.0-13.0-0.41","l","cogs219_2020_39","Sounds/car_label.wav","null","1","","","","","","",""
"null","","html-keyboard-response","217","2787670","0.0-13.0-1.41","l","cogs219_2020_39","<p style=""font-size: 48px;"">+</p>","null","1","","","","","","",""
"523.7600000109524","","image-keyboard-response","218","2788195","0.0-13.0-2.41","l","cogs219_2020_39","Images/cat_3.png","65","1","1583250664808","non-match","cat","car","label","test","true"
"null","","audio-keyboard-response","219","2790206","0.0-13.0-3.41","l","cogs219_2020_39","Sounds/correct.wav","null","1","","","","","","",""
"null","","audio-keyboard-response","220","2791098","0.0-13.0-0.42","l","cogs219_2020_39","Sounds/frog_label.wav","null","1","","","","","","",""
"null","","html-keyboard-response","221","2792086","0.0-13.0-1.42","l","cogs219_2020_39","<p style=""font-size: 48px;"">+</p>","null","1","","","","","","",""
"490.80999998841435","","image-keyboard-response","222","2792578","0.0-13.0-2.42","l","cogs219_2020_39","Images/dog_2.png","65","1","1583250669225","non-match","dog","frog","label","test","true"
"null","","audio-keyboard-response","223","2794589","0.0-13.0-3.42","l","cogs219_2020_39","Sounds/correct.wav","null","1","","","","","","",""
"null","","audio-keyboard-response","224","2795858","0.0-13.0-0.43","l","cogs219_2020_39","Sounds/train_label.wav","null","1","","","","","","",""
"null","","html-keyboard-response","225","2796853","0.0-13.0-1.43","l","cogs219_2020_39","<p style=""font-size: 48px;"">+</p>","null","1","","","","","","",""
"828.0099999979138","","image-keyboard-response","226","2797682","0.0-13.0-2.43","l","cogs219_2020_39","Images/train_orig.png","76","1","1583250673991","match","train","train","label","test","true"
"null","","audio-keyboard-response","227","2799693","0.0-13.0-3.43","l","cogs219_2020_39","Sounds/correct.wav","null","1","","","","","","",""
"null","","audio-keyboard-response","228","2800998","0.0-13.0-0.44","l","cogs219_2020_39","Sounds/train_sound.wav","null","1","","","","","","",""
"null","","html-keyboard-response","229","2802003","0.0-13.0-1.44","l","cogs219_2020_39","<p style=""font-size: 48px;"">+</p>","null","1","","","","","","",""
"782.0500000086613","","image-keyboard-response","230","2802786","0.0-13.0-2.44","l","cogs219_2020_39","Images/train_1.png","76","1","1583250679142","match","train","train","sound","test","true"
"null","","audio-keyboard-response","231","2804792","0.0-13.0-3.44","l","cogs219_2020_39","Sounds/correct.wav","null","1","","","","","","",""
"null","","audio-keyboard-response","232","2805818","0.0-13.0-0.45","l","cogs219_2020_39","Sounds/cow_label.wav","null","1","","","","","","",""
"null","","html-keyboard-response","233","2806820","0.0-13.0-1.45","l","cogs219_2020_39","<p style=""font-size: 48px;"">+</p>","null","1","","","","","","",""
"429.3349999934435","","image-keyboard-response","234","2807250","0.0-13.0-2.45","l","cogs219_2020_39","Images/cow_cartoon.png","76","1","1583250683958","match","cow","cow","label","test","true"
"null","","audio-keyboard-response","235","2809261","0.0-13.0-3.45","l","cogs219_2020_39","Sounds/correct.wav","null","1","","","","","","",""
"null","","audio-keyboard-response","236","2809838","0.0-13.0-0.46","l","cogs219_2020_39","Sounds/gun_label.wav","null","1","","","","","","",""
"null","","html-keyboard-response","237","2810837","0.0-13.0-1.46","l","cogs219_2020_39","<p style=""font-size: 48px;"">+</p>","null","1","","","","","","",""
"572.5899999961257","","image-keyboard-response","238","2811410","0.0-13.0-2.46","l","cogs219_2020_39","Images/train_1.png","65","1","1583250687975","non-match","train","gun","label","test","true"
"null","","audio-keyboard-response","239","2813425","0.0-13.0-3.46","l","cogs219_2020_39","Sounds/correct.wav","null","1","","","","","","",""
"null","","audio-keyboard-response","240","2814138","0.0-13.0-0.47","l","cogs219_2020_39","Sounds/dog_sound.wav","null","1","","","","","","",""
"null","","html-keyboard-response","241","2815137","0.0-13.0-1.47","l","cogs219_2020_39","<p style=""font-size: 48px;"">+</p>","null","1","","","","","","",""
"416.8749999953434","","image-keyboard-response","242","2815555","0.0-13.0-2.47","l","cogs219_2020_39","Images/dog_2.png","76","1","1583250692275","match","dog","dog","sound","test","true"
"null","","audio-keyboard-response","243","2817559","0.0-13.0-3.47","l","cogs219_2020_39","Sounds/correct.wav","null","1","","","","","","",""
"null","","audio-keyboard-response","244","2818398","0.0-13.0-0.48","l","cogs219_2020_39","Sounds/cat_sound.wav","null","1","","","","","","",""
"null","","html-keyboard-response","245","2819387","0.0-13.0-1.48","l","cogs219_2020_39","<p style=""font-size: 48px;"">+</p>","null","1","","","","","","",""
"406.4950000029057","","image-keyboard-response","246","2819794","0.0-13.0-2.48","l","cogs219_2020_39","Images/cat_2.png","76","1","1583250696525","match","cat","cat","sound","test","true"
"null","","audio-keyboard-response","247","2821808","0.0-13.0-3.48","l","cogs219_2020_39","Sounds/correct.wav","null","1","","","","","","",""
"null","","audio-keyboard-response","248","2822498","0.0-13.0-0.49","l","cogs219_2020_39","Sounds/whistle_label.wav","null","1","","","","","","",""
"null","","html-keyboard-response","249","2823487","0.0-13.0-1.49","l","cogs219_2020_39","<p style=""font-size: 48px;"">+</p>","null","1","","","","","","",""
"562.5550000118092","","image-keyboard-response","250","2824049","0.0-13.0-2.49","l","cogs219_2020_39","Images/whistle_1.png","76","1","1583250700625","match","whistle","whistle","label","test","true"
"null","","audio-keyboard-response","251","2826058","0.0-13.0-3.49","l","cogs219_2020_39","Sounds/correct.wav","null","1","","","","","","",""
"null","","audio-keyboard-response","252","2827077","0.0-13.0-0.50","l","cogs219_2020_39","Sounds/cow_label.wav","null","1","","","","","","",""
"null","","html-keyboard-response","253","2828069","0.0-13.0-1.50","l","cogs219_2020_39","<p style=""font-size: 48px;"">+</p>","null","1","","","","","","",""
"459.304999996908","","image-keyboard-response","254","2828529","0.0-13.0-2.50","l","cogs219_2020_39","Images/gun_3.png","65","1","1583250705207","non-match","gun","cow","label","test","true"
"null","","audio-keyboard-response","255","2830539","0.0-13.0-3.50","l","cogs219_2020_39","Sounds/correct.wav","null","1","","","","","","",""
"null","","audio-keyboard-response","256","2831657","0.0-13.0-0.51","l","cogs219_2020_39","Sounds/motorcycle_sound.wav","null","1","","","","","","",""
"null","","html-keyboard-response","257","2832652","0.0-13.0-1.51","l","cogs219_2020_39","<p style=""font-size: 48px;"">+</p>","null","1","","","","","","",""
"371.87999999150634","","image-keyboard-response","258","2833025","0.0-13.0-2.51","l","cogs219_2020_39","Images/motorcycle_3.png","76","1","1583250709791","match","motorcycle","motorcycle","sound","test","true"
"null","","audio-keyboard-response","259","2835040","0.0-13.0-3.51","l","cogs219_2020_39","Sounds/correct.wav","null","1","","","","","","",""
"null","","audio-keyboard-response","260","2836317","0.0-13.0-0.52","l","cogs219_2020_39","Sounds/train_label.wav","null","1","","","","","","",""
"null","","html-keyboard-response","261","2837319","0.0-13.0-1.52","l","cogs219_2020_39","<p style=""font-size: 48px;"">+</p>","null","1","","","","","","",""
"504.8850000021048","","image-keyboard-response","262","2837825","0.0-13.0-2.52","l","cogs219_2020_39","Images/train_2.png","76","1","1583250714457","match","train","train","label","test","true"
"null","","audio-keyboard-response","263","2839840","0.0-13.0-3.52","l","cogs219_2020_39","Sounds/correct.wav","null","1","","","","","","",""
"null","","audio-keyboard-response","264","2840677","0.0-13.0-0.53","l","cogs219_2020_39","Sounds/cat_label.wav","null","1","","","","","","",""
"null","","html-keyboard-response","265","2841669","0.0-13.0-1.53","l","cogs219_2020_39","<p style=""font-size: 48px;"">+</p>","null","1","","","","","","",""
"475.1549999928102","","image-keyboard-response","266","2842145","0.0-13.0-2.53","l","cogs219_2020_39","Images/cat_cartoon.png","76","1","1583250718807","match","cat","cat","label","test","true"
"null","","audio-keyboard-response","267","2844163","0.0-13.0-3.53","l","cogs219_2020_39","Sounds/correct.wav","null","1","","","","","","",""
"null","","audio-keyboard-response","268","2845177","0.0-13.0-0.54","l","cogs219_2020_39","Sounds/cow_sound.wav","null","1","","","","","","",""
"null","","html-keyboard-response","269","2846169","0.0-13.0-1.54","l","cogs219_2020_39","<p style=""font-size: 48px;"">+</p>","null","1","","","","","","",""
"566.7650000248104","","image-keyboard-response","270","2846737","0.0-13.0-2.54","l","cogs219_2020_39","Images/cow_2.png","76","1","1583250723308","match","cow","cow","sound","test","true"
"null","","audio-keyboard-response","271","2848741","0.0-13.0-3.54","l","cogs219_2020_39","Sounds/correct.wav","null","1","","","","","","",""
"null","","audio-keyboard-response","272","2849557","0.0-13.0-0.55","l","cogs219_2020_39","Sounds/cat_label.wav","null","1","","","","","","",""
"null","","html-keyboard-response","273","2850553","0.0-13.0-1.55","l","cogs219_2020_39","<p style=""font-size: 48px;"">+</p>","null","1","","","","","","",""
"487.6900000087917","","image-keyboard-response","274","2851041","0.0-13.0-2.55","l","cogs219_2020_39","Images/cat_1.png","76","1","1583250727691","match","cat","cat","label","test","true"
"null","","audio-keyboard-response","275","2853058","0.0-13.0-3.55","l","cogs219_2020_39","Sounds/correct.wav","null","1","","","","","","",""
"null","","audio-keyboard-response","276","2853757","0.0-13.0-0.56","l","cogs219_2020_39","Sounds/rooster_label.wav","null","1","","","","","","",""
"null","","html-keyboard-response","277","2854753","0.0-13.0-1.56","l","cogs219_2020_39","<p style=""font-size: 48px;"">+</p>","null","1","","","","","","",""
"447.56000000052154","","image-keyboard-response","278","2855201","0.0-13.0-2.56","l","cogs219_2020_39","Images/rooster_orig.png","76","1","1583250731891","match","rooster","rooster","label","test","true"
"null","","audio-keyboard-response","279","2857208","0.0-13.0-3.56","l","cogs219_2020_39","Sounds/correct.wav","null","1","","","","","","",""
"null","","audio-keyboard-response","280","2857897","0.0-13.0-0.57","l","cogs219_2020_39","Sounds/rooster_sound.wav","null","1","","","","","","",""
"null","","html-keyboard-response","281","2858886","0.0-13.0-1.57","l","cogs219_2020_39","<p style=""font-size: 48px;"">+</p>","null","1","","","","","","",""
"474.07500000530854","","image-keyboard-response","282","2859361","0.0-13.0-2.57","l","cogs219_2020_39","Images/train_3.png","65","1","1583250736025","non-match","train","rooster","sound","test","true"
"null","","audio-keyboard-response","283","2861375","0.0-13.0-3.57","l","cogs219_2020_39","Sounds/correct.wav","null","1","","","","","","",""
"null","","audio-keyboard-response","284","2862057","0.0-13.0-0.58","l","cogs219_2020_39","Sounds/rooster_label.wav","null","1","","","","","","",""
"null","","html-keyboard-response","285","2863053","0.0-13.0-1.58","l","cogs219_2020_39","<p style=""font-size: 48px;"">+</p>","null","1","","","","","","",""
"467.41500002052635","","image-keyboard-response","286","2863521","0.0-13.0-2.58","l","cogs219_2020_39","Images/gun_2.png","65","1","1583250740191","non-match","gun","rooster","label","test","true"
"null","","audio-keyboard-response","287","2865525","0.0-13.0-3.58","l","cogs219_2020_39","Sounds/correct.wav","null","1","","","","","","",""
"null","","audio-keyboard-response","288","2866797","0.0-13.0-0.59","l","cogs219_2020_39","Sounds/train_label.wav","null","1","","","","","","",""
"null","","html-keyboard-response","289","2867786","0.0-13.0-1.59","l","cogs219_2020_39","<p style=""font-size: 48px;"">+</p>","null","1","","","","","","",""
"454.26500000758097","","image-keyboard-response","290","2868242","0.0-13.0-2.59","l","cogs219_2020_39","Images/frog_3.png","65","1","1583250744925","non-match","frog","train","label","test","true"
"null","","audio-keyboard-response","291","2870258","0.0-13.0-3.59","l","cogs219_2020_39","Sounds/correct.wav","null","1","","","","","","",""
"null","","audio-keyboard-response","292","2870937","0.0-13.0-0.60","l","cogs219_2020_39","Sounds/rooster_label.wav","null","1","","","","","","",""
"null","","html-keyboard-response","293","2871936","0.0-13.0-1.60","l","cogs219_2020_39","<p style=""font-size: 48px;"">+</p>","null","1","","","","","","",""
"639.9500000118278","","image-keyboard-response","294","2872577","0.0-13.0-2.60","l","cogs219_2020_39","Images/dog_cartoon.png","65","1","1583250749074","non-match","dog","rooster","label","test","true"
"null","","audio-keyboard-response","295","2874585","0.0-13.0-3.60","l","cogs219_2020_39","Sounds/correct.wav","null","1","","","","","","",""
"null","","audio-keyboard-response","296","2875257","0.0-13.0-0.61","l","cogs219_2020_39","Sounds/rooster_sound.wav","null","1","","","","","","",""
"null","","html-keyboard-response","297","2876253","0.0-13.0-1.61","l","cogs219_2020_39","<p style=""font-size: 48px;"">+</p>","null","1","","","","","","",""
"355.089999997057","","image-keyboard-response","298","2876609","0.0-13.0-2.61","l","cogs219_2020_39","Images/rooster_2.png","76","1","1583250753391","match","rooster","rooster","sound","test","true"
"null","","audio-keyboard-response","299","2878625","0.0-13.0-3.61","l","cogs219_2020_39","Sounds/correct.wav","null","1","","","","","","",""
"null","","audio-keyboard-response","300","2879197","0.0-13.0-0.62","l","cogs219_2020_39","Sounds/gun_label.wav","null","1","","","","","","",""
"null","","html-keyboard-response","301","2880186","0.0-13.0-1.62","l","cogs219_2020_39","<p style=""font-size: 48px;"">+</p>","null","1","","","","","","",""
"502.05999999912456","","image-keyboard-response","302","2880689","0.0-13.0-2.62","l","cogs219_2020_39","Images/motorcycle_cartoon.png","65","1","1583250757325","non-match","motorcycle","gun","label","test","true"
"null","","audio-keyboard-response","303","2882707","0.0-13.0-3.62","l","cogs219_2020_39","Sounds/correct.wav","null","1","","","","","","",""
"null","","audio-keyboard-response","304","2883617","0.0-13.0-0.63","l","cogs219_2020_39","Sounds/frog_sound.wav","null","1","","","","","","",""
"null","","html-keyboard-response","305","2884619","0.0-13.0-1.63","l","cogs219_2020_39","<p style=""font-size: 48px;"">+</p>","null","1","","","","","","",""
"500.67999999737367","","image-keyboard-response","306","2885121","0.0-13.0-2.63","l","cogs219_2020_39","Images/frog_orig.png","76","1","1583250761757","match","frog","frog","sound","test","true"
"null","","audio-keyboard-response","307","2887126","0.0-13.0-3.63","l","cogs219_2020_39","Sounds/correct.wav","null","1","","","","","","",""
"null","","audio-keyboard-response","308","2887836","0.0-13.0-0.64","l","cogs219_2020_39","Sounds/dog_sound.wav","null","1","","","","","","",""
"null","","html-keyboard-response","309","2888836","0.0-13.0-1.64","l","cogs219_2020_39","<p style=""font-size: 48px;"">+</p>","null","1","","","","","","",""
"635.8649999895133","","image-keyboard-response","310","2889473","0.0-13.0-2.64","l","cogs219_2020_39","Images/frog_orig.png","65","1","1583250765974","non-match","frog","dog","sound","test","true"
"null","","audio-keyboard-response","311","2891490","0.0-13.0-3.64","l","cogs219_2020_39","Sounds/correct.wav","null","1","","","","","","",""
"null","","audio-keyboard-response","312","2892516","0.0-13.0-0.65","l","cogs219_2020_39","Sounds/cow_sound.wav","null","1","","","","","","",""
"null","","html-keyboard-response","313","2893519","0.0-13.0-1.65","l","cogs219_2020_39","<p style=""font-size: 48px;"">+</p>","null","1","","","","","","",""
"384.5499999881722","","image-keyboard-response","314","2893905","0.0-13.0-2.65","l","cogs219_2020_39","Images/cow_orig.png","76","1","1583250770657","match","cow","cow","sound","test","true"
"null","","audio-keyboard-response","315","2895922","0.0-13.0-3.65","l","cogs219_2020_39","Sounds/correct.wav","null","1","","","","","","",""
"null","","audio-keyboard-response","316","2896916","0.0-13.0-0.66","l","cogs219_2020_39","Sounds/cow_sound.wav","null","1","","","","","","",""
"null","","html-keyboard-response","317","2897919","0.0-13.0-1.66","l","cogs219_2020_39","<p style=""font-size: 48px;"">+</p>","null","1","","","","","","",""
"464.5149999996647","","image-keyboard-response","318","2898385","0.0-13.0-2.66","l","cogs219_2020_39","Images/dog_3.png","65","1","1583250775057","non-match","dog","cow","sound","test","true"
"null","","audio-keyboard-response","319","2900387","0.0-13.0-3.66","l","cogs219_2020_39","Sounds/correct.wav","null","1","","","","","","",""
"null","","audio-keyboard-response","320","2901216","0.0-13.0-0.67","l","cogs219_2020_39","Sounds/cat_label.wav","null","1","","","","","","",""
"null","","html-keyboard-response","321","2902219","0.0-13.0-1.67","l","cogs219_2020_39","<p style=""font-size: 48px;"">+</p>","null","1","","","","","","",""
"627.940000005532","","image-keyboard-response","322","2902849","0.0-13.0-2.67","l","cogs219_2020_39","Images/rooster_orig.png","65","1","1583250779358","non-match","rooster","cat","label","test","true"
"null","","audio-keyboard-response","323","2904858","0.0-13.0-3.67","l","cogs219_2020_39","Sounds/correct.wav","null","1","","","","","","",""
"null","","audio-keyboard-response","324","2905576","0.0-13.0-0.68","l","cogs219_2020_39","Sounds/dog_sound.wav","null","1","","","","","","",""
"null","","html-keyboard-response","325","2906569","0.0-13.0-1.68","l","cogs219_2020_39","<p style=""font-size: 48px;"">+</p>","null","1","","","","","","",""
"518.4099999894388","","image-keyboard-response","326","2907089","0.0-13.0-2.68","l","cogs219_2020_39","Images/dog_orig.png","76","1","1583250783708","match","dog","dog","sound","test","true"
"null","","audio-keyboard-response","327","2909095","0.0-13.0-3.68","l","cogs219_2020_39","Sounds/correct.wav","null","1","","","","","","",""
"null","","audio-keyboard-response","328","2910176","0.0-13.0-0.69","l","cogs219_2020_39","Sounds/car_sound.wav","null","1","","","","","","",""
"null","","html-keyboard-response","329","2911169","0.0-13.0-1.69","l","cogs219_2020_39","<p style=""font-size: 48px;"">+</p>","null","1","","","","","","",""
"638.1950000068173","","image-keyboard-response","330","2911809","0.0-13.0-2.69","l","cogs219_2020_39","Images/car_orig.png","76","1","1583250788308","match","car","car","sound","test","true"
"null","","audio-keyboard-response","331","2913824","0.0-13.0-3.69","l","cogs219_2020_39","Sounds/correct.wav","null","1","","","","","","",""
"null","","audio-keyboard-response","332","2915116","0.0-13.0-0.70","l","cogs219_2020_39","Sounds/train_sound.wav","null","1","","","","","","",""
"null","","html-keyboard-response","333","2916119","0.0-13.0-1.70","l","cogs219_2020_39","<p style=""font-size: 48px;"">+</p>","null","1","","","","","","",""
"488.1199999945238","","image-keyboard-response","334","2916609","0.0-13.0-2.70","l","cogs219_2020_39","Images/train_3.png","76","1","1583250793258","match","train","train","sound","test","true"
"null","","audio-keyboard-response","335","2918623","0.0-13.0-3.70","l","cogs219_2020_39","Sounds/correct.wav","null","1","","","","","","",""
"null","","audio-keyboard-response","336","2919196","0.0-13.0-0.71","l","cogs219_2020_39","Sounds/gun_label.wav","null","1","","","","","","",""
"null","","html-keyboard-response","337","2920186","0.0-13.0-1.71","l","cogs219_2020_39","<p style=""font-size: 48px;"">+</p>","null","1","","","","","","",""
"421.72499999264255","","image-keyboard-response","338","2920609","0.0-13.0-2.71","l","cogs219_2020_39","Images/gun_2.png","76","1","1583250797324","match","gun","gun","label","test","true"
"null","","audio-keyboard-response","339","2922623","0.0-13.0-3.71","l","cogs219_2020_39","Sounds/correct.wav","null","1","","","","","","",""
"null","","audio-keyboard-response","340","2923276","0.0-13.0-0.72","l","cogs219_2020_39","Sounds/dog_label.wav","null","1","","","","","","",""
"null","","html-keyboard-response","341","2924270","0.0-13.0-1.72","l","cogs219_2020_39","<p style=""font-size: 48px;"">+</p>","null","1","","","","","","",""
"658.1249999874271","","image-keyboard-response","342","2924929","0.0-13.0-2.72","l","cogs219_2020_39","Images/car_cartoon.png","65","1","1583250801408","non-match","car","dog","label","test","true"
"null","","audio-keyboard-response","343","2926940","0.0-13.0-3.72","l","cogs219_2020_39","Sounds/correct.wav","null","1","","","","","","",""
"null","","audio-keyboard-response","344","2928016","0.0-13.0-0.73","l","cogs219_2020_39","Sounds/car_label.wav","null","1","","","","","","",""
"null","","html-keyboard-response","345","2929020","0.0-13.0-1.73","l","cogs219_2020_39","<p style=""font-size: 48px;"">+</p>","null","1","","","","","","",""
"516.0650000036694","","image-keyboard-response","346","2929537","0.0-13.0-2.73","l","cogs219_2020_39","Images/cow_2.png","65","1","1583250806158","non-match","cow","car","label","test","true"
"null","","audio-keyboard-response","347","2931542","0.0-13.0-3.73","l","cogs219_2020_39","Sounds/correct.wav","null","1","","","","","","",""
"null","","audio-keyboard-response","348","2932816","0.0-13.0-0.74","l","cogs219_2020_39","Sounds/train_sound.wav","null","1","","","","","","",""
"null","","html-keyboard-response","349","2933820","0.0-13.0-1.74","l","cogs219_2020_39","<p style=""font-size: 48px;"">+</p>","null","1","","","","","","",""
"579.5050000017509","","image-keyboard-response","350","2934401","0.0-13.0-2.74","l","cogs219_2020_39","Images/rooster_cartoon.png","65","1","1583250810958","non-match","rooster","train","sound","test","true"
"null","","audio-keyboard-response","351","2936409","0.0-13.0-3.74","l","cogs219_2020_39","Sounds/correct.wav","null","1","","","","","","",""
"null","","audio-keyboard-response","352","2937436","0.0-13.0-0.75","l","cogs219_2020_39","Sounds/cow_label.wav","null","1","","","","","","",""
"null","","html-keyboard-response","353","2938436","0.0-13.0-1.75","l","cogs219_2020_39","<p style=""font-size: 48px;"">+</p>","null","1","","","","","","",""
"635.2999999946915","","image-keyboard-response","354","2939073","0.0-13.0-2.75","l","cogs219_2020_39","Images/cat_orig.png","65","1","1583250815575","non-match","cat","cow","label","test","true"
"null","","audio-keyboard-response","355","2941091","0.0-13.0-3.75","l","cogs219_2020_39","Sounds/correct.wav","null","1","","","","","","",""
"null","","audio-keyboard-response","356","2941796","0.0-13.0-0.76","l","cogs219_2020_39","Sounds/rooster_label.wav","null","1","","","","","","",""
"null","","html-keyboard-response","357","2942786","0.0-13.0-1.76","l","cogs219_2020_39","<p style=""font-size: 48px;"">+</p>","null","1","","","","","","",""
"381.1500000008382","","image-keyboard-response","358","2943169","0.0-13.0-2.76","l","cogs219_2020_39","Images/rooster_cartoon.png","76","1","1583250819925","match","rooster","rooster","label","test","true"
"null","","audio-keyboard-response","359","2945174","0.0-13.0-3.76","l","cogs219_2020_39","Sounds/correct.wav","null","1","","","","","","",""
"null","","audio-keyboard-response","360","2946015","0.0-13.0-0.77","l","cogs219_2020_39","Sounds/cat_label.wav","null","1","","","","","","",""
"null","","html-keyboard-response","361","2947019","0.0-13.0-1.77","l","cogs219_2020_39","<p style=""font-size: 48px;"">+</p>","null","1","","","","","","",""
"371.98999998532236","","image-keyboard-response","362","2947392","0.0-13.0-2.77","l","cogs219_2020_39","Images/cat_3.png","76","1","1583250824157","match","cat","cat","label","test","true"
"null","","audio-keyboard-response","363","2949406","0.0-13.0-3.77","l","cogs219_2020_39","Sounds/correct.wav","null","1","","","","","","",""
"null","","audio-keyboard-response","364","2950055","0.0-13.0-0.78","l","cogs219_2020_39","Sounds/dog_label.wav","null","1","","","","","","",""
"null","","html-keyboard-response","365","2951052","0.0-13.0-1.78","l","cogs219_2020_39","<p style=""font-size: 48px;"">+</p>","null","1","","","","","","",""
"658.434999990277","","image-keyboard-response","366","2951712","0.0-13.0-2.78","l","cogs219_2020_39","Images/motorcycle_1.png","65","1","1583250828190","non-match","motorcycle","dog","label","test","true"
"null","","audio-keyboard-response","367","2953723","0.0-13.0-3.78","l","cogs219_2020_39","Sounds/correct.wav","null","1","","","","","","",""
"null","","audio-keyboard-response","368","2954835","0.0-13.0-0.79","l","cogs219_2020_39","Sounds/motorcycle_sound.wav","null","1","","","","","","",""
"null","","html-keyboard-response","369","2955836","0.0-13.0-1.79","l","cogs219_2020_39","<p style=""font-size: 48px;"">+</p>","null","1","","","","","","",""
"819.0349999931641","","image-keyboard-response","370","2956656","0.0-13.0-2.79","l","cogs219_2020_39","Images/train_cartoon.png","65","1","1583250832974","non-match","train","motorcycle","sound","test","true"
"null","","audio-keyboard-response","371","2958659","0.0-13.0-3.79","l","cogs219_2020_39","Sounds/correct.wav","null","1","","","","","","",""
"null","","audio-keyboard-response","372","2959735","0.0-13.0-0.80","l","cogs219_2020_39","Sounds/car_sound.wav","null","1","","","","","","",""
"null","","html-keyboard-response","373","2960736","0.0-13.0-1.80","l","cogs219_2020_39","<p style=""font-size: 48px;"">+</p>","null","1","","","","","","",""
"815.1649999776855","","image-keyboard-response","374","2961552","0.0-13.0-2.80","l","cogs219_2020_39","Images/whistle_3.png","65","1","1583250837874","non-match","whistle","car","sound","test","true"
"null","","audio-keyboard-response","375","2963556","0.0-13.0-3.80","l","cogs219_2020_39","Sounds/correct.wav","null","1","","","","","","",""
"null","","audio-keyboard-response","376","2964255","0.0-13.0-0.81","l","cogs219_2020_39","Sounds/rooster_label.wav","null","1","","","","","","",""
"null","","html-keyboard-response","377","2965252","0.0-13.0-1.81","l","cogs219_2020_39","<p style=""font-size: 48px;"">+</p>","null","1","","","","","","",""
"474.3599999928847","","image-keyboard-response","378","2965728","0.0-13.0-2.81","l","cogs219_2020_39","Images/rooster_3.png","76","1","1583250842391","match","rooster","rooster","label","test","true"
"null","","audio-keyboard-response","379","2967739","0.0-13.0-3.81","l","cogs219_2020_39","Sounds/correct.wav","null","1","","","","","","",""
"null","","audio-keyboard-response","380","2968315","0.0-13.0-0.82","l","cogs219_2020_39","Sounds/gun_label.wav","null","1","","","","","","",""
"null","","html-keyboard-response","381","2969319","0.0-13.0-1.82","l","cogs219_2020_39","<p style=""font-size: 48px;"">+</p>","null","1","","","","","","",""
"599.5899999979883","","image-keyboard-response","382","2969920","0.0-13.0-2.82","l","cogs219_2020_39","Images/gun_1.png","65","1","1583250846457","match","gun","gun","label","test","false"
"null","","audio-keyboard-response","383","2971932","0.0-13.0-3.82","l","cogs219_2020_39","Sounds/incorrect.wav","null","1","","","","","","",""
"null","","audio-keyboard-response","384","2972835","0.0-13.0-0.83","l","cogs219_2020_39","Sounds/frog_sound.wav","null","1","","","","","","",""
"null","","html-keyboard-response","385","2973836","0.0-13.0-1.83","l","cogs219_2020_39","<p style=""font-size: 48px;"">+</p>","null","1","","","","","","",""
"1618.3400000152178","","image-keyboard-response","386","2975456","0.0-13.0-2.83","l","cogs219_2020_39","Images/gun_1.png","65","1","1583250850974","non-match","gun","frog","sound","test","true"
"null","","audio-keyboard-response","387","2977475","0.0-13.0-3.83","l","cogs219_2020_39","Sounds/correct.wav","null","1","","","","","","",""
"null","","audio-keyboard-response","388","2978175","0.0-13.0-0.84","l","cogs219_2020_39","Sounds/dog_sound.wav","null","1","","","","","","",""
"null","","html-keyboard-response","389","2979169","0.0-13.0-1.84","l","cogs219_2020_39","<p style=""font-size: 48px;"">+</p>","null","1","","","","","","",""
"637.5399999958463","","image-keyboard-response","390","2979808","0.0-13.0-2.84","l","cogs219_2020_39","Images/rooster_3.png","65","1","1583250856307","non-match","rooster","dog","sound","test","true"
"null","","audio-keyboard-response","391","2981823","0.0-13.0-3.84","l","cogs219_2020_39","Sounds/correct.wav","null","1","","","","","","",""
"null","","audio-keyboard-response","392","2982715","0.0-13.0-0.85","l","cogs219_2020_39","Sounds/frog_label.wav","null","1","","","","","","",""
"null","","html-keyboard-response","393","2983719","0.0-13.0-1.85","l","cogs219_2020_39","<p style=""font-size: 48px;"">+</p>","null","1","","","","","","",""
"533.3799999789335","","image-keyboard-response","394","2984256","0.0-13.0-2.85","l","cogs219_2020_39","Images/motorcycle_orig.png","65","1","1583250860858","non-match","motorcycle","frog","label","test","true"
"null","","audio-keyboard-response","395","2986273","0.0-13.0-3.85","l","cogs219_2020_39","Sounds/correct.wav","null","1","","","","","","",""
"null","","audio-keyboard-response","396","2987355","0.0-13.0-0.86","l","cogs219_2020_39","Sounds/car_label.wav","null","1","","","","","","",""
"null","","html-keyboard-response","397","2988353","0.0-13.0-1.86","l","cogs219_2020_39","<p style=""font-size: 48px;"">+</p>","null","1","","","","","","",""
"766.3950000135228","","image-keyboard-response","398","2989120","0.0-13.0-2.86","l","cogs219_2020_39","Images/car_1.png","76","1","1583250865491","match","car","car","label","test","true"
"null","","audio-keyboard-response","399","2991125","0.0-13.0-3.86","l","cogs219_2020_39","Sounds/correct.wav","null","1","","","","","","",""
"null","","audio-keyboard-response","400","2991955","0.0-13.0-0.87","l","cogs219_2020_39","Sounds/cat_label.wav","null","1","","","","","","",""
"null","","html-keyboard-response","401","2992953","0.0-13.0-1.87","l","cogs219_2020_39","<p style=""font-size: 48px;"">+</p>","null","1","","","","","","",""
"390.0499999872409","","image-keyboard-response","402","2993344","0.0-13.0-2.87","l","cogs219_2020_39","Images/cat_orig.png","76","1","1583250870091","match","cat","cat","label","test","true"
"null","","audio-keyboard-response","403","2995358","0.0-13.0-3.87","l","cogs219_2020_39","Sounds/correct.wav","null","1","","","","","","",""
"null","","audio-keyboard-response","404","2996055","0.0-13.0-0.88","l","cogs219_2020_39","Sounds/whistle_sound.wav","null","1","","","","","","",""
"null","","html-keyboard-response","405","2997053","0.0-13.0-1.88","l","cogs219_2020_39","<p style=""font-size: 48px;"">+</p>","null","1","","","","","","",""
"450.08499998925254","","image-keyboard-response","406","2997504","0.0-13.0-2.88","l","cogs219_2020_39","Images/train_2.png","65","1","1583250874191","non-match","train","whistle","sound","test","true"
"null","","audio-keyboard-response","407","2999508","0.0-13.0-3.88","l","cogs219_2020_39","Sounds/correct.wav","null","1","","","","","","",""
"null","","audio-keyboard-response","408","3000195","0.0-13.0-0.89","l","cogs219_2020_39","Sounds/whistle_label.wav","null","1","","","","","","",""
"null","","html-keyboard-response","409","3001186","0.0-13.0-1.89","l","cogs219_2020_39","<p style=""font-size: 48px;"">+</p>","null","1","","","","","","",""
"492.72999999765307","","image-keyboard-response","410","3001680","0.0-13.0-2.89","l","cogs219_2020_39","Images/cat_1.png","65","1","1583250878324","non-match","cat","whistle","label","test","true"
"null","","audio-keyboard-response","411","3003691","0.0-13.0-3.89","l","cogs219_2020_39","Sounds/correct.wav","null","1","","","","","","",""
"null","","audio-keyboard-response","412","3004355","0.0-13.0-0.90","l","cogs219_2020_39","Sounds/whistle_sound.wav","null","1","","","","","","",""
"null","","html-keyboard-response","413","3005351","0.0-13.0-1.90","l","cogs219_2020_39","<p style=""font-size: 48px;"">+</p>","null","1","","","","","","",""
"453.8950000135228","","image-keyboard-response","414","3005806","0.0-13.0-2.90","l","cogs219_2020_39","Images/dog_orig.png","65","1","1583250882489","non-match","dog","whistle","sound","test","true"
"null","","audio-keyboard-response","415","3007822","0.0-13.0-3.90","l","cogs219_2020_39","Sounds/correct.wav","null","1","","","","","","",""
"null","","audio-keyboard-response","416","3008953","0.0-13.0-0.91","l","cogs219_2020_39","Sounds/motorcycle_sound.wav","null","1","","","","","","",""
"null","","html-keyboard-response","417","3009951","0.0-13.0-1.91","l","cogs219_2020_39","<p style=""font-size: 48px;"">+</p>","null","1","","","","","","",""
"733.8999999919906","","image-keyboard-response","418","3010686","0.0-13.0-2.91","l","cogs219_2020_39","Images/motorcycle_cartoon.png","76","1","1583250887089","match","motorcycle","motorcycle","sound","test","true"
"null","","audio-keyboard-response","419","3012690","0.0-13.0-3.91","l","cogs219_2020_39","Sounds/correct.wav","null","1","","","","","","",""
"null","","audio-keyboard-response","420","3013533","0.0-13.0-0.92","l","cogs219_2020_39","Sounds/cat_sound.wav","null","1","","","","","","",""
"null","","html-keyboard-response","421","3014568","0.0-13.0-1.92","l","cogs219_2020_39","<p style=""font-size: 48px;"">+</p>","null","1","","","","","","",""
"581.2450000084937","","image-keyboard-response","422","3015150","0.0-13.0-2.92","l","cogs219_2020_39","Images/cow_3.png","65","1","1583250891706","non-match","cow","cat","sound","test","true"
"null","","audio-keyboard-response","423","3017157","0.0-13.0-3.92","l","cogs219_2020_39","Sounds/correct.wav","null","1","","","","","","",""
"null","","audio-keyboard-response","424","3018233","0.0-13.0-0.93","l","cogs219_2020_39","Sounds/car_label.wav","null","1","","","","","","",""
"null","","html-keyboard-response","425","3019268","0.0-13.0-1.93","l","cogs219_2020_39","<p style=""font-size: 48px;"">+</p>","null","1","","","","","","",""
"649.1049999892712","","image-keyboard-response","426","3019918","0.0-13.0-2.93","l","cogs219_2020_39","Images/train_orig.png","65","1","1583250896406","non-match","train","car","label","test","true"
"null","","audio-keyboard-response","427","3021923","0.0-13.0-3.93","l","cogs219_2020_39","Sounds/correct.wav","null","1","","","","","","",""
"null","","audio-keyboard-response","428","3023213","0.0-13.0-0.94","l","cogs219_2020_39","Sounds/train_sound.wav","null","1","","","","","","",""
"null","","html-keyboard-response","429","3024218","0.0-13.0-1.94","l","cogs219_2020_39","<p style=""font-size: 48px;"">+</p>","null","1","","","","","","",""
"658.9800000069663","","image-keyboard-response","430","3024878","0.0-13.0-2.94","l","cogs219_2020_39","Images/dog_1.png","65","1","1583250901356","non-match","dog","train","sound","test","true"
"null","","audio-keyboard-response","431","3026888","0.0-13.0-3.94","l","cogs219_2020_39","Sounds/correct.wav","null","1","","","","","","",""
"null","","audio-keyboard-response","432","3027793","0.0-13.0-0.95","l","cogs219_2020_39","Sounds/frog_sound.wav","null","1","","","","","","",""
"null","","html-keyboard-response","433","3028785","0.0-13.0-1.95","l","cogs219_2020_39","<p style=""font-size: 48px;"">+</p>","null","1","","","","","","",""
"523.3899999875575","","image-keyboard-response","434","3029310","0.0-13.0-2.95","l","cogs219_2020_39","Images/cat_2.png","65","1","1583250905923","non-match","cat","frog","sound","test","true"
"null","","audio-keyboard-response","435","3031322","0.0-13.0-3.95","l","cogs219_2020_39","Sounds/correct.wav","null","1","","","","","","",""
"null","","audio-keyboard-response","436","3032334","0.0-13.0-0.96","l","cogs219_2020_39","Sounds/cow_label.wav","null","1","","","","","","",""
"null","","html-keyboard-response","437","3033351","0.0-13.0-1.96","l","cogs219_2020_39","<p style=""font-size: 48px;"">+</p>","null","1","","","","","","",""
"485.454999987036","","image-keyboard-response","438","3033838","0.0-13.0-2.96","l","cogs219_2020_39","Images/cow_3.png","76","1","1583250910489","match","cow","cow","label","test","true"
"null","","audio-keyboard-response","439","3035841","0.0-13.0-3.96","l","cogs219_2020_39","Sounds/correct.wav","null","1","","","","","","",""
"null","","audio-keyboard-response","440","3036533","0.0-13.0-0.97","l","cogs219_2020_39","Sounds/whistle_sound.wav","null","1","","","","","","",""
"null","","html-keyboard-response","441","3037551","0.0-13.0-1.97","l","cogs219_2020_39","<p style=""font-size: 48px;"">+</p>","null","1","","","","","","",""
"509.5150000122376","","image-keyboard-response","442","3038062","0.0-13.0-2.97","l","cogs219_2020_39","Images/frog_cartoon.png","65","1","1583250914690","non-match","frog","whistle","sound","test","true"
"null","","audio-keyboard-response","443","3040071","0.0-13.0-3.97","l","cogs219_2020_39","Sounds/correct.wav","null","1","","","","","","",""
"null","","audio-keyboard-response","444","3041153","0.0-13.0-0.98","l","cogs219_2020_39","Sounds/car_sound.wav","null","1","","","","","","",""
"null","","html-keyboard-response","445","3042151","0.0-13.0-1.98","l","cogs219_2020_39","<p style=""font-size: 48px;"">+</p>","null","1","","","","","","",""
"757.9200000036508","","image-keyboard-response","446","3042910","0.0-13.0-2.98","l","cogs219_2020_39","Images/car_2.png","76","1","1583250919290","match","car","car","sound","test","true"
"null","","audio-keyboard-response","447","3044922","0.0-13.0-3.98","l","cogs219_2020_39","Sounds/correct.wav","null","1","","","","","","",""
"null","","audio-keyboard-response","448","3045753","0.0-13.0-0.99","l","cogs219_2020_39","Sounds/cat_sound.wav","null","1","","","","","","",""
"null","","html-keyboard-response","449","3046752","0.0-13.0-1.99","l","cogs219_2020_39","<p style=""font-size: 48px;"">+</p>","null","1","","","","","","",""
"397.035000001546","","image-keyboard-response","450","3047150","0.0-13.0-2.99","l","cogs219_2020_39","Images/car_3.png","65","1","1583250923890","non-match","car","cat","sound","test","true"
"null","","audio-keyboard-response","451","3049157","0.0-13.0-3.99","l","cogs219_2020_39","Sounds/correct.wav","null","1","","","","","","",""
"27945.464999997057","","html-keyboard-response","452","3077099","0.0-14.0","l","cogs219_2020_39","<p>Please take this opportunity to rest your eyes before proceeding.</p><p>When ready, press the enter key to continue to the next set of trials.</p>","32","","","","","","","",""
"null","","audio-keyboard-response","453","3080400","0.0-15.0-0.0","l","cogs219_2020_39","Sounds/train_label.wav","null","2","","","","","","",""
"null","","html-keyboard-response","454","3081398","0.0-15.0-1.0","l","cogs219_2020_39","<p style=""font-size: 48px;"">+</p>","null","2","","","","","","",""
"595.1449999990873","","image-keyboard-response","455","3081994","0.0-15.0-2.0","l","cogs219_2020_39","Images/whistle_cartoon.png","65","2","1583250958536","non-match","whistle","train","label","test","true"
"null","","audio-keyboard-response","456","3084005","0.0-15.0-3.0","l","cogs219_2020_39","Sounds/correct.wav","null","2","","","","","","",""
"null","","audio-keyboard-response","457","3084660","0.0-15.0-0.1","l","cogs219_2020_39","Sounds/dog_label.wav","null","2","","","","","","",""
"null","","html-keyboard-response","458","3085665","0.0-15.0-1.1","l","cogs219_2020_39","<p style=""font-size: 48px;"">+</p>","null","2","","","","","","",""
"376.1800000211224","","image-keyboard-response","459","3086042","0.0-15.0-2.1","l","cogs219_2020_39","Images/dog_orig.png","76","2","1583250962803","match","dog","dog","label","test","true"
"null","","audio-keyboard-response","460","3088053","0.0-15.0-3.1","l","cogs219_2020_39","Sounds/correct.wav","null","2","","","","","","",""
"null","","audio-keyboard-response","461","3088620","0.0-15.0-0.2","l","cogs219_2020_39","Sounds/gun_sound.wav","null","2","","","","","","",""
"null","","html-keyboard-response","462","3089615","0.0-15.0-1.2","l","cogs219_2020_39","<p style=""font-size: 48px;"">+</p>","null","2","","","","","","",""
"314.57499999692664","","image-keyboard-response","463","3089931","0.0-15.0-2.2","l","cogs219_2020_39","Images/gun_3.png","76","2","1583250966753","match","gun","gun","sound","test","true"
"null","","audio-keyboard-response","464","3091938","0.0-15.0-3.2","l","cogs219_2020_39","Sounds/correct.wav","null","2","","","","","","",""
"null","","audio-keyboard-response","465","3092840","0.0-15.0-0.3","l","cogs219_2020_39","Sounds/frog_sound.wav","null","2","","","","","","",""
"null","","html-keyboard-response","466","3093832","0.0-15.0-1.3","l","cogs219_2020_39","<p style=""font-size: 48px;"">+</p>","null","2","","","","","","",""
"337.6899999855086","","image-keyboard-response","467","3094170","0.0-15.0-2.3","l","cogs219_2020_39","Images/frog_cartoon.png","76","2","1583250970970","match","frog","frog","sound","test","true"
"null","","audio-keyboard-response","468","3096186","0.0-15.0-3.3","l","cogs219_2020_39","Sounds/correct.wav","null","2","","","","","","",""
"null","","audio-keyboard-response","469","3097440","0.0-15.0-0.4","l","cogs219_2020_39","Sounds/train_label.wav","null","2","","","","","","",""
"null","","html-keyboard-response","470","3098432","0.0-15.0-1.4","l","cogs219_2020_39","<p style=""font-size: 48px;"">+</p>","null","2","","","","","","",""
"650.0550000057556","","image-keyboard-response","471","3099082","0.0-15.0-2.4","l","cogs219_2020_39","Images/car_1.png","65","2","1583250975570","non-match","car","train","label","test","true"
"null","","audio-keyboard-response","472","3101088","0.0-15.0-3.4","l","cogs219_2020_39","Sounds/correct.wav","null","2","","","","","","",""
"null","","audio-keyboard-response","473","3101640","0.0-15.0-0.5","l","cogs219_2020_39","Sounds/gun_sound.wav","null","2","","","","","","",""
"null","","html-keyboard-response","474","3102632","0.0-15.0-1.5","l","cogs219_2020_39","<p style=""font-size: 48px;"">+</p>","null","2","","","","","","",""
"593.6950000179932","","image-keyboard-response","475","3103227","0.0-15.0-2.5","l","cogs219_2020_39","Images/gun_2.png","76","2","1583250979770","match","gun","gun","sound","test","true"
"null","","audio-keyboard-response","476","3105237","0.0-15.0-3.5","l","cogs219_2020_39","Sounds/correct.wav","null","2","","","","","","",""
"null","","audio-keyboard-response","477","3106320","0.0-15.0-0.6","l","cogs219_2020_39","Sounds/car_label.wav","null","2","","","","","","",""
"null","","html-keyboard-response","478","3107315","0.0-15.0-1.6","l","cogs219_2020_39","<p style=""font-size: 48px;"">+</p>","null","2","","","","","","",""
"438.24999997764826","","image-keyboard-response","479","3107754","0.0-15.0-2.6","l","cogs219_2020_39","Images/frog_3.png","65","2","1583250984453","non-match","frog","car","label","test","true"
"null","","audio-keyboard-response","480","3109772","0.0-15.0-3.6","l","cogs219_2020_39","Sounds/correct.wav","null","2","","","","","","",""
"null","","audio-keyboard-response","481","3110320","0.0-15.0-0.7","l","cogs219_2020_39","Sounds/gun_sound.wav","null","2","","","","","","",""
"null","","html-keyboard-response","482","3111315","0.0-15.0-1.7","l","cogs219_2020_39","<p style=""font-size: 48px;"">+</p>","null","2","","","","","","",""
"678.2400000086054","","image-keyboard-response","483","3111994","0.0-15.0-2.7","l","cogs219_2020_39","Images/whistle_1.png","65","2","1583250988453","non-match","whistle","gun","sound","test","true"
"null","","audio-keyboard-response","484","3114004","0.0-15.0-3.7","l","cogs219_2020_39","Sounds/correct.wav","null","2","","","","","","",""
"null","","audio-keyboard-response","485","3114700","0.0-15.0-0.8","l","cogs219_2020_39","Sounds/rooster_sound.wav","null","2","","","","","","",""
"null","","html-keyboard-response","486","3115698","0.0-15.0-1.8","l","cogs219_2020_39","<p style=""font-size: 48px;"">+</p>","null","2","","","","","","",""
"342.91000000666827","","image-keyboard-response","487","3116042","0.0-15.0-2.8","l","cogs219_2020_39","Images/rooster_orig.png","76","2","1583250992837","match","rooster","rooster","sound","test","true"
"null","","audio-keyboard-response","488","3118052","0.0-15.0-3.8","l","cogs219_2020_39","Sounds/correct.wav","null","2","","","","","","",""
"null","","audio-keyboard-response","489","3118740","0.0-15.0-0.9","l","cogs219_2020_39","Sounds/whistle_label.wav","null","2","","","","","","",""
"null","","html-keyboard-response","490","3119732","0.0-15.0-1.9","l","cogs219_2020_39","<p style=""font-size: 48px;"">+</p>","null","2","","","","","","",""
"373.26999998185784","","image-keyboard-response","491","3120106","0.0-15.0-2.9","l","cogs219_2020_39","Images/whistle_2.png","76","2","1583250996870","match","whistle","whistle","label","test","true"
"null","","audio-keyboard-response","492","3122120","0.0-15.0-3.9","l","cogs219_2020_39","Sounds/correct.wav","null","2","","","","","","",""
"null","","audio-keyboard-response","493","3122680","0.0-15.0-0.10","l","cogs219_2020_39","Sounds/gun_sound.wav","null","2","","","","","","",""
"null","","html-keyboard-response","494","3123682","0.0-15.0-1.10","l","cogs219_2020_39","<p style=""font-size: 48px;"">+</p>","null","2","","","","","","",""
"391.55999998888","","image-keyboard-response","495","3124075","0.0-15.0-2.10","l","cogs219_2020_39","Images/gun_1.png","76","2","1583251000820","match","gun","gun","sound","test","true"
"null","","audio-keyboard-response","496","3126085","0.0-15.0-3.10","l","cogs219_2020_39","Sounds/correct.wav","null","2","","","","","","",""
"null","","audio-keyboard-response","497","3126980","0.0-15.0-0.11","l","cogs219_2020_39","Sounds/frog_label.wav","null","2","","","","","","",""
"null","","html-keyboard-response","498","3127982","0.0-15.0-1.11","l","cogs219_2020_39","<p style=""font-size: 48px;"">+</p>","null","2","","","","","","",""
"379.4950000010431","","image-keyboard-response","499","3128363","0.0-15.0-2.11","l","cogs219_2020_39","Images/frog_2.png","76","2","1583251005120","match","frog","frog","label","test","true"
"null","","audio-keyboard-response","500","3130371","0.0-15.0-3.11","l","cogs219_2020_39","Sounds/correct.wav","null","2","","","","","","",""
"null","","audio-keyboard-response","501","3131500","0.0-15.0-0.12","l","cogs219_2020_39","Sounds/motorcycle_label.wav","null","2","","","","","","",""
"null","","html-keyboard-response","502","3132499","0.0-15.0-1.12","l","cogs219_2020_39","<p style=""font-size: 48px;"">+</p>","null","2","","","","","","",""
"582.5250000050291","","image-keyboard-response","503","3133083","0.0-15.0-2.12","l","cogs219_2020_39","Images/gun_orig.png","65","2","1583251009637","non-match","gun","motorcycle","label","test","true"
"null","","audio-keyboard-response","504","3135089","0.0-15.0-3.12","l","cogs219_2020_39","Sounds/correct.wav","null","2","","","","","","",""
"null","","audio-keyboard-response","505","3136360","0.0-15.0-0.13","l","cogs219_2020_39","Sounds/train_label.wav","null","2","","","","","","",""
"null","","html-keyboard-response","506","3137363","0.0-15.0-1.13","l","cogs219_2020_39","<p style=""font-size: 48px;"">+</p>","null","2","","","","","","",""
"386.69500002264977","","image-keyboard-response","507","3137752","0.0-15.0-2.13","l","cogs219_2020_39","Images/train_orig.png","76","2","1583251014501","match","train","train","label","test","true"
"null","","audio-keyboard-response","508","3139769","0.0-15.0-3.13","l","cogs219_2020_39","Sounds/correct.wav","null","2","","","","","","",""
"null","","audio-keyboard-response","509","3140478","0.0-15.0-0.14","l","cogs219_2020_39","Sounds/rooster_sound.wav","null","2","","","","","","",""
"null","","html-keyboard-response","510","3141480","0.0-15.0-1.14","l","cogs219_2020_39","<p style=""font-size: 48px;"">+</p>","null","2","","","","","","",""
"351.27499999385327","","image-keyboard-response","511","3141832","0.0-15.0-2.14","l","cogs219_2020_39","Images/rooster_3.png","76","2","1583251018618","match","rooster","rooster","sound","test","true"
"null","","audio-keyboard-response","512","3143837","0.0-15.0-3.14","l","cogs219_2020_39","Sounds/correct.wav","null","2","","","","","","",""
"null","","audio-keyboard-response","513","3144538","0.0-15.0-0.15","l","cogs219_2020_39","Sounds/rooster_label.wav","null","2","","","","","","",""
"null","","html-keyboard-response","514","3145530","0.0-15.0-1.15","l","cogs219_2020_39","<p style=""font-size: 48px;"">+</p>","null","2","","","","","","",""
"412.9799999934621","","image-keyboard-response","515","3145944","0.0-15.0-2.15","l","cogs219_2020_39","Images/dog_orig.png","65","2","1583251022668","non-match","dog","rooster","label","test","true"
"null","","audio-keyboard-response","516","3147952","0.0-15.0-3.15","l","cogs219_2020_39","Sounds/correct.wav","null","2","","","","","","",""
"null","","audio-keyboard-response","517","3148538","0.0-15.0-0.16","l","cogs219_2020_39","Sounds/gun_sound.wav","null","2","","","","","","",""
"null","","html-keyboard-response","518","3149530","0.0-15.0-1.16","l","cogs219_2020_39","<p style=""font-size: 48px;"">+</p>","null","2","","","","","","",""
"493.04000000143424","","image-keyboard-response","519","3150024","0.0-15.0-2.16","l","cogs219_2020_39","Images/motorcycle_1.png","76","2","1583251026668","non-match","motorcycle","gun","sound","test","false"
"null","","audio-keyboard-response","520","3152033","0.0-15.0-3.16","l","cogs219_2020_39","Sounds/incorrect.wav","null","2","","","","","","",""
"null","","audio-keyboard-response","521","3153118","0.0-15.0-0.17","l","cogs219_2020_39","Sounds/car_label.wav","null","2","","","","","","",""
"null","","html-keyboard-response","522","3154113","0.0-15.0-1.17","l","cogs219_2020_39","<p style=""font-size: 48px;"">+</p>","null","2","","","","","","",""
"357.96500000264496","","image-keyboard-response","523","3154472","0.0-15.0-2.17","l","cogs219_2020_39","Images/train_orig.png","76","2","1583251031252","non-match","train","car","label","test","false"
"null","","audio-keyboard-response","524","3156483","0.0-15.0-3.17","l","cogs219_2020_39","Sounds/incorrect.wav","null","2","","","","","","",""
"null","","audio-keyboard-response","525","3157538","0.0-15.0-0.18","l","cogs219_2020_39","Sounds/car_label.wav","null","2","","","","","","",""
"null","","html-keyboard-response","526","3158530","0.0-15.0-1.18","l","cogs219_2020_39","<p style=""font-size: 48px;"">+</p>","null","2","","","","","","",""
"676.9949999870732","","image-keyboard-response","527","3159208","0.0-15.0-2.18","l","cogs219_2020_39","Images/gun_3.png","65","2","1583251035668","non-match","gun","car","label","test","true"
"null","","audio-keyboard-response","528","3161217","0.0-15.0-3.18","l","cogs219_2020_39","Sounds/correct.wav","null","2","","","","","","",""
"null","","audio-keyboard-response","529","3161918","0.0-15.0-0.19","l","cogs219_2020_39","Sounds/whistle_label.wav","null","2","","","","","","",""
"null","","html-keyboard-response","530","3162913","0.0-15.0-1.19","l","cogs219_2020_39","<p style=""font-size: 48px;"">+</p>","null","2","","","","","","",""
"773.589999997057","","image-keyboard-response","531","3163688","0.0-15.0-2.19","l","cogs219_2020_39","Images/whistle_3.png","76","2","1583251040052","match","whistle","whistle","label","test","true"
"null","","audio-keyboard-response","532","3165700","0.0-15.0-3.19","l","cogs219_2020_39","Sounds/correct.wav","null","2","","","","","","",""
"null","","audio-keyboard-response","533","3166818","0.0-15.0-0.20","l","cogs219_2020_39","Sounds/motorcycle_sound.wav","null","2","","","","","","",""
"null","","html-keyboard-response","534","3167813","0.0-15.0-1.20","l","cogs219_2020_39","<p style=""font-size: 48px;"">+</p>","null","2","","","","","","",""
"513.7349999863654","","image-keyboard-response","535","3168328","0.0-15.0-2.20","l","cogs219_2020_39","Images/train_3.png","65","2","1583251044952","non-match","train","motorcycle","sound","test","true"
"null","","audio-keyboard-response","536","3170336","0.0-15.0-3.20","l","cogs219_2020_39","Sounds/correct.wav","null","2","","","","","","",""
"null","","audio-keyboard-response","537","3171038","0.0-15.0-0.21","l","cogs219_2020_39","Sounds/dog_sound.wav","null","2","","","","","","",""
"null","","html-keyboard-response","538","3172030","0.0-15.0-1.21","l","cogs219_2020_39","<p style=""font-size: 48px;"">+</p>","null","2","","","","","","",""
"344.8300000168383","","image-keyboard-response","539","3172376","0.0-15.0-2.21","l","cogs219_2020_39","Images/dog_1.png","76","2","1583251049168","match","dog","dog","sound","test","true"
"null","","audio-keyboard-response","540","3174388","0.0-15.0-3.21","l","cogs219_2020_39","Sounds/correct.wav","null","2","","","","","","",""
"null","","audio-keyboard-response","541","3175418","0.0-15.0-0.22","l","cogs219_2020_39","Sounds/cow_sound.wav","null","2","","","","","","",""
"null","","html-keyboard-response","542","3176414","0.0-15.0-1.22","l","cogs219_2020_39","<p style=""font-size: 48px;"">+</p>","null","2","","","","","","",""
"505.2750000031665","","image-keyboard-response","543","3176920","0.0-15.0-2.22","l","cogs219_2020_39","Images/cow_cartoon.png","76","2","1583251053552","match","cow","cow","sound","test","true"
"null","","audio-keyboard-response","544","3178934","0.0-15.0-3.22","l","cogs219_2020_39","Sounds/correct.wav","null","2","","","","","","",""
"null","","audio-keyboard-response","545","3179618","0.0-15.0-0.23","l","cogs219_2020_39","Sounds/whistle_label.wav","null","2","","","","","","",""
"null","","html-keyboard-response","546","3180614","0.0-15.0-1.23","l","cogs219_2020_39","<p style=""font-size: 48px;"">+</p>","null","2","","","","","","",""
"417.3799999989569","","image-keyboard-response","547","3181032","0.0-15.0-2.23","l","cogs219_2020_39","Images/train_cartoon.png","65","2","1583251057752","non-match","train","whistle","label","test","true"
"null","","audio-keyboard-response","548","3183037","0.0-15.0-3.23","l","cogs219_2020_39","Sounds/correct.wav","null","2","","","","","","",""
"null","","audio-keyboard-response","549","3184118","0.0-15.0-0.24","l","cogs219_2020_39","Sounds/car_sound.wav","null","2","","","","","","",""
"null","","html-keyboard-response","550","3185114","0.0-15.0-1.24","l","cogs219_2020_39","<p style=""font-size: 48px;"">+</p>","null","2","","","","","","",""
"973.3600000040606","","image-keyboard-response","551","3186088","0.0-15.0-2.24","l","cogs219_2020_39","Images/car_cartoon.png","76","2","1583251062252","match","car","car","sound","test","true"
"null","","audio-keyboard-response","552","3188102","0.0-15.0-3.24","l","cogs219_2020_39","Sounds/correct.wav","null","2","","","","","","",""
"null","","audio-keyboard-response","553","3188798","0.0-15.0-0.25","l","cogs219_2020_39","Sounds/rooster_sound.wav","null","2","","","","","","",""
"null","","html-keyboard-response","554","3189797","0.0-15.0-1.25","l","cogs219_2020_39","<p style=""font-size: 48px;"">+</p>","null","2","","","","","","",""
"385.81499998643994","","image-keyboard-response","555","3190184","0.0-15.0-2.25","l","cogs219_2020_39","Images/rooster_2.png","76","2","1583251066935","match","rooster","rooster","sound","test","true"
"null","","audio-keyboard-response","556","3192201","0.0-15.0-3.25","l","cogs219_2020_39","Sounds/correct.wav","null","2","","","","","","",""
"null","","audio-keyboard-response","557","3193278","0.0-15.0-0.26","l","cogs219_2020_39","Sounds/car_label.wav","null","2","","","","","","",""
"null","","html-keyboard-response","558","3194280","0.0-15.0-1.26","l","cogs219_2020_39","<p style=""font-size: 48px;"">+</p>","null","2","","","","","","",""
"574.9650000073016","","image-keyboard-response","559","3194856","0.0-15.0-2.26","l","cogs219_2020_39","Images/car_1.png","76","2","1583251071419","match","car","car","label","test","true"
"null","","audio-keyboard-response","560","3196869","0.0-15.0-3.26","l","cogs219_2020_39","Sounds/correct.wav","null","2","","","","","","",""
"null","","audio-keyboard-response","561","3198135","0.0-15.0-0.27","l","cogs219_2020_39","Sounds/train_label.wav","null","2","","","","","","",""
"null","","html-keyboard-response","562","3199128","0.0-15.0-1.27","l","cogs219_2020_39","<p style=""font-size: 48px;"">+</p>","null","2","","","","","","",""
"620.5649999901652","","image-keyboard-response","563","3199749","0.0-15.0-2.27","l","cogs219_2020_39","Images/train_3.png","76","2","1583251076266","match","train","train","label","test","true"
"null","","audio-keyboard-response","564","3201765","0.0-15.0-3.27","l","cogs219_2020_39","Sounds/correct.wav","null","2","","","","","","",""
"null","","audio-keyboard-response","565","3202475","0.0-15.0-0.28","l","cogs219_2020_39","Sounds/dog_sound.wav","null","2","","","","","","",""
"null","","html-keyboard-response","566","3203478","0.0-15.0-1.28","l","cogs219_2020_39","<p style=""font-size: 48px;"">+</p>","null","2","","","","","","",""
"510.6150000062771","","image-keyboard-response","567","3203989","0.0-15.0-2.28","l","cogs219_2020_39","Images/frog_2.png","65","2","1583251080616","non-match","frog","dog","sound","test","true"
"null","","audio-keyboard-response","568","3205998","0.0-15.0-3.28","l","cogs219_2020_39","Sounds/correct.wav","null","2","","","","","","",""
"null","","audio-keyboard-response","569","3207115","0.0-15.0-0.29","l","cogs219_2020_39","Sounds/motorcycle_sound.wav","null","2","","","","","","",""
"null","","html-keyboard-response","570","3208111","0.0-15.0-1.29","l","cogs219_2020_39","<p style=""font-size: 48px;"">+</p>","null","2","","","","","","",""
"1045.2800000202842","","image-keyboard-response","571","3209158","0.0-15.0-2.29","l","cogs219_2020_39","Images/motorcycle_cartoon.png","76","2","1583251085249","match","motorcycle","motorcycle","sound","test","true"
"null","","audio-keyboard-response","572","3211166","0.0-15.0-3.29","l","cogs219_2020_39","Sounds/correct.wav","null","2","","","","","","",""
"null","","audio-keyboard-response","573","3212015","0.0-15.0-0.30","l","cogs219_2020_39","Sounds/cat_label.wav","null","2","","","","","","",""
"null","","html-keyboard-response","574","3213011","0.0-15.0-1.30","l","cogs219_2020_39","<p style=""font-size: 48px;"">+</p>","null","2","","","","","","",""
"513.0950000020675","","image-keyboard-response","575","3213525","0.0-15.0-2.30","l","cogs219_2020_39","Images/dog_3.png","65","2","1583251090150","non-match","dog","cat","label","test","true"
"null","","audio-keyboard-response","576","3215533","0.0-15.0-3.30","l","cogs219_2020_39","Sounds/correct.wav","null","2","","","","","","",""
"null","","audio-keyboard-response","577","3216375","0.0-15.0-0.31","l","cogs219_2020_39","Sounds/cat_sound.wav","null","2","","","","","","",""
"null","","html-keyboard-response","578","3217378","0.0-15.0-1.31","l","cogs219_2020_39","<p style=""font-size: 48px;"">+</p>","null","2","","","","","","",""
"482.30999999213964","","image-keyboard-response","579","3217861","0.0-15.0-2.31","l","cogs219_2020_39","Images/cow_1.png","65","2","1583251094516","non-match","cow","cat","sound","test","true"
"null","","audio-keyboard-response","580","3219867","0.0-15.0-3.31","l","cogs219_2020_39","Sounds/correct.wav","null","2","","","","","","",""
"null","","audio-keyboard-response","581","3220675","0.0-15.0-0.32","l","cogs219_2020_39","Sounds/cat_label.wav","null","2","","","","","","",""
"null","","html-keyboard-response","582","3221678","0.0-15.0-1.32","l","cogs219_2020_39","<p style=""font-size: 48px;"">+</p>","null","2","","","","","","",""
"422.44499997468665","","image-keyboard-response","583","3222102","0.0-15.0-2.32","l","cogs219_2020_39","Images/cat_3.png","76","2","1583251098817","match","cat","cat","label","test","true"
"null","","audio-keyboard-response","584","3224115","0.0-15.0-3.32","l","cogs219_2020_39","Sounds/correct.wav","null","2","","","","","","",""
"null","","audio-keyboard-response","585","3225215","0.0-15.0-0.33","l","cogs219_2020_39","Sounds/motorcycle_sound.wav","null","2","","","","","","",""
"null","","html-keyboard-response","586","3226212","0.0-15.0-1.33","l","cogs219_2020_39","<p style=""font-size: 48px;"">+</p>","null","2","","","","","","",""
"496.6950000091456","","image-keyboard-response","587","3226709","0.0-15.0-2.33","l","cogs219_2020_39","Images/cow_orig.png","65","2","1583251103350","non-match","cow","motorcycle","sound","test","true"
"null","","audio-keyboard-response","588","3228717","0.0-15.0-3.33","l","cogs219_2020_39","Sounds/correct.wav","null","2","","","","","","",""
"null","","audio-keyboard-response","589","3229995","0.0-15.0-0.34","l","cogs219_2020_39","Sounds/train_label.wav","null","2","","","","","","",""
"null","","html-keyboard-response","590","3230995","0.0-15.0-1.34","l","cogs219_2020_39","<p style=""font-size: 48px;"">+</p>","null","2","","","","","","",""
"593.4650000128895","","image-keyboard-response","591","3231590","0.0-15.0-2.34","l","cogs219_2020_39","Images/train_2.png","76","2","1583251108133","match","train","train","label","test","true"
"null","","audio-keyboard-response","592","3233599","0.0-15.0-3.34","l","cogs219_2020_39","Sounds/correct.wav","null","2","","","","","","",""
"null","","audio-keyboard-response","593","3234495","0.0-15.0-0.35","l","cogs219_2020_39","Sounds/frog_label.wav","null","2","","","","","","",""
"null","","html-keyboard-response","594","3235495","0.0-15.0-1.35","l","cogs219_2020_39","<p style=""font-size: 48px;"">+</p>","null","2","","","","","","",""
"701.6500000027008","","image-keyboard-response","595","3236198","0.0-15.0-2.35","l","cogs219_2020_39","Images/car_orig.png","65","2","1583251112633","non-match","car","frog","label","test","true"
"null","","audio-keyboard-response","596","3238200","0.0-15.0-3.35","l","cogs219_2020_39","Sounds/correct.wav","null","2","","","","","","",""
"null","","audio-keyboard-response","597","3239115","0.0-15.0-0.36","l","cogs219_2020_39","Sounds/frog_sound.wav","null","2","","","","","","",""
"null","","html-keyboard-response","598","3240112","0.0-15.0-1.36","l","cogs219_2020_39","<p style=""font-size: 48px;"">+</p>","null","2","","","","","","",""
"484.65500000771135","","image-keyboard-response","599","3240598","0.0-15.0-2.36","l","cogs219_2020_39","Images/gun_2.png","65","2","1583251117250","non-match","gun","frog","sound","test","true"
"null","","audio-keyboard-response","600","3242600","0.0-15.0-3.36","l","cogs219_2020_39","Sounds/correct.wav","null","2","","","","","","",""
"null","","audio-keyboard-response","601","3243295","0.0-15.0-0.37","l","cogs219_2020_39","Sounds/whistle_sound.wav","null","2","","","","","","",""
"null","","html-keyboard-response","602","3244295","0.0-15.0-1.37","l","cogs219_2020_39","<p style=""font-size: 48px;"">+</p>","null","2","","","","","","",""
"589.524999988731","","image-keyboard-response","603","3244886","0.0-15.0-2.37","l","cogs219_2020_39","Images/whistle_orig.png","76","2","1583251121433","match","whistle","whistle","sound","test","true"
"null","","audio-keyboard-response","604","3246900","0.0-15.0-3.37","l","cogs219_2020_39","Sounds/correct.wav","null","2","","","","","","",""
