[{"rt":7907.985000056215,"responses":"{\"Q0\":\"COGS219_2020_34\"}","trial_type":"survey-text","trial_index":0,"time_elapsed":7935,"internal_node_id":"0.0-0.0","match_key":"a","participant_id":"COGS219_2020_34"},{"rt":69613.47999994177,"stimulus":"<p>Use KEYBOARD 2 (match LEFT)</p><p>Press MATCH to continue.</p>","key_press":65,"trial_type":"html-keyboard-response","trial_index":1,"time_elapsed":77547,"internal_node_id":"0.0-1.0","match_key":"a","participant_id":"COGS219_2020_34"},{"rt":1391908.6349999998,"stimulus":"<p>Welcome to the experiment.</p>","key_press":32,"trial_type":"html-keyboard-response","trial_index":2,"time_elapsed":1469476,"internal_node_id":"0.0-2.0","match_key":"a","participant_id":"COGS219_2020_34"},{"rt":52513.14499997534,"stimulus":"<p>Thank you for agreeing to participate in this study.</p><p>If during any part of the procedure you must stop for any reason, please inform the researcher that you do not wish to continue.</p>","key_press":32,"trial_type":"html-keyboard-response","trial_index":3,"time_elapsed":1521996,"internal_node_id":"0.0-3.0","match_key":"a","participant_id":"COGS219_2020_34"},{"rt":18638.2750000339,"stimulus":"<p>In this experiment, you will hear various words or sounds and see pictures of various animals and objects.</p><p>Most of the images will be of common everyday objects, such as cars, cats, cows, firearms, frogs, chickens, whistles, trains, motorcycles, and dogs.</p><p>Some of the images will be real-life stills, while others will be cartoons.</p>","key_press":32,"trial_type":"html-keyboard-response","trial_index":4,"time_elapsed":1540636,"internal_node_id":"0.0-4.0","match_key":"a","participant_id":"COGS219_2020_34"},{"rt":14183.059999952093,"stimulus":"<p>Sometimes, the word/sound will match the picture, for example you'll hear a meowing sound and see a cat.</p><p>Other times, the picture will not match the sound or word.</p><p>Your task is to decide as quickly as possible if the word/sound matches the picture or not. </p>","key_press":32,"trial_type":"html-keyboard-response","trial_index":5,"time_elapsed":1554820,"internal_node_id":"0.0-5.0","match_key":"a","participant_id":"COGS219_2020_34"},{"rt":12366.674999939278,"stimulus":"<p>For example, if you hear the word \"cat\" or hear a meowing sound, and then see a picture of a cat, you should press the MATCH key.</p><p> If the sound and image do not match, press the NOT-MATCH key to indicate that there is not a match.</p>","key_press":32,"trial_type":"html-keyboard-response","trial_index":6,"time_elapsed":1567188,"internal_node_id":"0.0-6.0","match_key":"a","participant_id":"COGS219_2020_34"},{"rt":11230.835000053048,"stimulus":"<p>If you make a mistake, you will hear a buzzing sound instead of a more pleasant sound.</p><p> Try to respond as quickly as possible, while making as few errors as possible. If you are making mistakes, you are probably rushing.</p>","key_press":32,"trial_type":"html-keyboard-response","trial_index":7,"time_elapsed":1578419,"internal_node_id":"0.0-7.0","match_key":"a","participant_id":"COGS219_2020_34"},{"rt":10734.515000018291,"stimulus":"<p>Please try to not move or blink your eyes during the presentation of the images. You can move and blink between images.</p><p>During the experiment there will be some breaks during which you can rest your eyes.</p>","key_press":32,"trial_type":"html-keyboard-response","trial_index":8,"time_elapsed":1589155,"internal_node_id":"0.0-8.0","match_key":"a","participant_id":"COGS219_2020_34"},{"rt":6734.6599999582395,"stimulus":"<p>We will begin with 10 practice trials. Please let the experimenter know if you have any questions.</p>","key_press":32,"trial_type":"html-keyboard-response","trial_index":9,"time_elapsed":1595891,"internal_node_id":"0.0-9.0","match_key":"a","participant_id":"COGS219_2020_34"},{"rt":null,"stimulus":"Sounds/gun_sound.wav","key_press":null,"block":0,"trial_type":"audio-keyboard-response","trial_index":10,"time_elapsed":1596551,"internal_node_id":"0.0-10.0-0.0","match_key":"a","participant_id":"COGS219_2020_34"},{"rt":null,"stimulus":"<p style=\"font-size: 48px;\">+</p>","key_press":null,"block":0,"trial_type":"html-keyboard-response","trial_index":11,"time_elapsed":1597544,"internal_node_id":"0.0-10.0-1.0","match_key":"a","participant_id":"COGS219_2020_34"},{"rt":1360.0300000980496,"stimulus":"Images/gun_3.png","key_press":65,"stim_onset":1583009317138,"block":0,"match_type":"match","image_category":"gun","sound_category":"gun","audio_type":"sound","phase":"practice","trial_type":"image-keyboard-response","trial_index":12,"time_elapsed":1598907,"internal_node_id":"0.0-10.0-2.0","match_key":"a","participant_id":"COGS219_2020_34","correct":true},{"rt":null,"stimulus":"Sounds/correct.wav","key_press":null,"block":0,"trial_type":"audio-keyboard-response","trial_index":13,"time_elapsed":1600921,"internal_node_id":"0.0-10.0-3.0","match_key":"a","participant_id":"COGS219_2020_34"},{"rt":null,"stimulus":"Sounds/car_label.wav","key_press":null,"block":0,"trial_type":"audio-keyboard-response","trial_index":14,"time_elapsed":1602010,"internal_node_id":"0.0-10.0-0.1","match_key":"a","participant_id":"COGS219_2020_34"},{"rt":null,"stimulus":"<p style=\"font-size: 48px;\">+</p>","key_press":null,"block":0,"trial_type":"html-keyboard-response","trial_index":15,"time_elapsed":1603027,"internal_node_id":"0.0-10.0-1.1","match_key":"a","participant_id":"COGS219_2020_34"},{"rt":1637.8299999050796,"stimulus":"Images/motorcycle_2.png","key_press":76,"stim_onset":1583009322621,"block":0,"match_type":"non-match","image_category":"motorcycle","sound_category":"car","audio_type":"label","phase":"practice","trial_type":"image-keyboard-response","trial_index":16,"time_elapsed":1604667,"internal_node_id":"0.0-10.0-2.1","match_key":"a","participant_id":"COGS219_2020_34","correct":true},{"rt":null,"stimulus":"Sounds/correct.wav","key_press":null,"block":0,"trial_type":"audio-keyboard-response","trial_index":17,"time_elapsed":1606684,"internal_node_id":"0.0-10.0-3.1","match_key":"a","participant_id":"COGS219_2020_34"},{"rt":null,"stimulus":"Sounds/gun_label.wav","key_press":null,"block":0,"trial_type":"audio-keyboard-response","trial_index":18,"time_elapsed":1607270,"internal_node_id":"0.0-10.0-0.2","match_key":"a","participant_id":"COGS219_2020_34"},{"rt":null,"stimulus":"<p style=\"font-size: 48px;\">+</p>","key_press":null,"block":0,"trial_type":"html-keyboard-response","trial_index":19,"time_elapsed":1608261,"internal_node_id":"0.0-10.0-1.2","match_key":"a","participant_id":"COGS219_2020_34"},{"rt":883.9000000152737,"stimulus":"Images/motorcycle_1.png","key_press":76,"stim_onset":1583009327854,"block":0,"match_type":"non-match","image_category":"motorcycle","sound_category":"gun","audio_type":"label","phase":"practice","trial_type":"image-keyboard-response","trial_index":20,"time_elapsed":1609146,"internal_node_id":"0.0-10.0-2.2","match_key":"a","participant_id":"COGS219_2020_34","correct":true},{"rt":null,"stimulus":"Sounds/correct.wav","key_press":null,"block":0,"trial_type":"audio-keyboard-response","trial_index":21,"time_elapsed":1611149,"internal_node_id":"0.0-10.0-3.2","match_key":"a","participant_id":"COGS219_2020_34"},{"rt":null,"stimulus":"Sounds/car_label.wav","key_press":null,"block":0,"trial_type":"audio-keyboard-response","trial_index":22,"time_elapsed":1612210,"internal_node_id":"0.0-10.0-0.3","match_key":"a","participant_id":"COGS219_2020_34"},{"rt":null,"stimulus":"<p style=\"font-size: 48px;\">+</p>","key_press":null,"block":0,"trial_type":"html-keyboard-response","trial_index":23,"time_elapsed":1613228,"internal_node_id":"0.0-10.0-1.3","match_key":"a","participant_id":"COGS219_2020_34"},{"rt":2597.509999992326,"stimulus":"Images/car_cartoon.png","key_press":76,"stim_onset":1583009332821,"block":0,"match_type":"match","image_category":"car","sound_category":"car","audio_type":"label","phase":"practice","trial_type":"image-keyboard-response","trial_index":24,"time_elapsed":1615827,"internal_node_id":"0.0-10.0-2.3","match_key":"a","participant_id":"COGS219_2020_34","correct":false},{"rt":null,"stimulus":"Sounds/incorrect.wav","key_press":null,"block":0,"trial_type":"audio-keyboard-response","trial_index":25,"time_elapsed":1617838,"internal_node_id":"0.0-10.0-3.3","match_key":"a","participant_id":"COGS219_2020_34"},{"rt":null,"stimulus":"Sounds/dog_label.wav","key_press":null,"block":0,"trial_type":"audio-keyboard-response","trial_index":26,"time_elapsed":1618510,"internal_node_id":"0.0-10.0-0.4","match_key":"a","participant_id":"COGS219_2020_34"},{"rt":null,"stimulus":"<p style=\"font-size: 48px;\">+</p>","key_press":null,"block":0,"trial_type":"html-keyboard-response","trial_index":27,"time_elapsed":1619528,"internal_node_id":"0.0-10.0-1.4","match_key":"a","participant_id":"COGS219_2020_34"},{"rt":1185.3750000009313,"stimulus":"Images/motorcycle_3.png","key_press":76,"stim_onset":1583009339124,"block":0,"match_type":"non-match","image_category":"motorcycle","sound_category":"dog","audio_type":"label","phase":"practice","trial_type":"image-keyboard-response","trial_index":28,"time_elapsed":1620714,"internal_node_id":"0.0-10.0-2.4","match_key":"a","participant_id":"COGS219_2020_34","correct":true},{"rt":null,"stimulus":"Sounds/correct.wav","key_press":null,"block":0,"trial_type":"audio-keyboard-response","trial_index":29,"time_elapsed":1622718,"internal_node_id":"0.0-10.0-3.4","match_key":"a","participant_id":"COGS219_2020_34"},{"rt":null,"stimulus":"Sounds/cow_label.wav","key_press":null,"block":0,"trial_type":"audio-keyboard-response","trial_index":30,"time_elapsed":1623731,"internal_node_id":"0.0-10.0-0.5","match_key":"a","participant_id":"COGS219_2020_34"},{"rt":null,"stimulus":"<p style=\"font-size: 48px;\">+</p>","key_press":null,"block":0,"trial_type":"html-keyboard-response","trial_index":31,"time_elapsed":1624728,"internal_node_id":"0.0-10.0-1.5","match_key":"a","participant_id":"COGS219_2020_34"},{"rt":1313.3149999193847,"stimulus":"Images/cow_1.png","key_press":65,"stim_onset":1583009344321,"block":0,"match_type":"match","image_category":"cow","sound_category":"cow","audio_type":"label","phase":"practice","trial_type":"image-keyboard-response","trial_index":32,"time_elapsed":1626042,"internal_node_id":"0.0-10.0-2.5","match_key":"a","participant_id":"COGS219_2020_34","correct":true},{"rt":null,"stimulus":"Sounds/correct.wav","key_press":null,"block":0,"trial_type":"audio-keyboard-response","trial_index":33,"time_elapsed":1628052,"internal_node_id":"0.0-10.0-3.5","match_key":"a","participant_id":"COGS219_2020_34"},{"rt":null,"stimulus":"Sounds/whistle_sound.wav","key_press":null,"block":0,"trial_type":"audio-keyboard-response","trial_index":34,"time_elapsed":1628750,"internal_node_id":"0.0-10.0-0.6","match_key":"a","participant_id":"COGS219_2020_34"},{"rt":null,"stimulus":"<p style=\"font-size: 48px;\">+</p>","key_press":null,"block":0,"trial_type":"html-keyboard-response","trial_index":35,"time_elapsed":1629745,"internal_node_id":"0.0-10.0-1.6","match_key":"a","participant_id":"COGS219_2020_34"},{"rt":1160.440000006929,"stimulus":"Images/gun_3.png","key_press":76,"stim_onset":1583009349338,"block":0,"match_type":"non-match","image_category":"gun","sound_category":"whistle","audio_type":"sound","phase":"practice","trial_type":"image-keyboard-response","trial_index":36,"time_elapsed":1630906,"internal_node_id":"0.0-10.0-2.6","match_key":"a","participant_id":"COGS219_2020_34","correct":true},{"rt":null,"stimulus":"Sounds/correct.wav","key_press":null,"block":0,"trial_type":"audio-keyboard-response","trial_index":37,"time_elapsed":1632916,"internal_node_id":"0.0-10.0-3.6","match_key":"a","participant_id":"COGS219_2020_34"},{"rt":null,"stimulus":"Sounds/train_label.wav","key_press":null,"block":0,"trial_type":"audio-keyboard-response","trial_index":38,"time_elapsed":1634191,"internal_node_id":"0.0-10.0-0.7","match_key":"a","participant_id":"COGS219_2020_34"},{"rt":null,"stimulus":"<p style=\"font-size: 48px;\">+</p>","key_press":null,"block":0,"trial_type":"html-keyboard-response","trial_index":39,"time_elapsed":1635195,"internal_node_id":"0.0-10.0-1.7","match_key":"a","participant_id":"COGS219_2020_34"},{"rt":1214.710000087507,"stimulus":"Images/frog_1.png","key_press":76,"stim_onset":1583009354788,"block":0,"match_type":"non-match","image_category":"frog","sound_category":"train","audio_type":"label","phase":"practice","trial_type":"image-keyboard-response","trial_index":40,"time_elapsed":1636411,"internal_node_id":"0.0-10.0-2.7","match_key":"a","participant_id":"COGS219_2020_34","correct":true},{"rt":null,"stimulus":"Sounds/correct.wav","key_press":null,"block":0,"trial_type":"audio-keyboard-response","trial_index":41,"time_elapsed":1638423,"internal_node_id":"0.0-10.0-3.7","match_key":"a","participant_id":"COGS219_2020_34"},{"rt":null,"stimulus":"Sounds/frog_sound.wav","key_press":null,"block":0,"trial_type":"audio-keyboard-response","trial_index":42,"time_elapsed":1639331,"internal_node_id":"0.0-10.0-0.8","match_key":"a","participant_id":"COGS219_2020_34"},{"rt":null,"stimulus":"<p style=\"font-size: 48px;\">+</p>","key_press":null,"block":0,"trial_type":"html-keyboard-response","trial_index":43,"time_elapsed":1640329,"internal_node_id":"0.0-10.0-1.8","match_key":"a","participant_id":"COGS219_2020_34"},{"rt":897.1000000601634,"stimulus":"Images/motorcycle_orig.png","key_press":76,"stim_onset":1583009359922,"block":0,"match_type":"non-match","image_category":"motorcycle","sound_category":"frog","audio_type":"sound","phase":"practice","trial_type":"image-keyboard-response","trial_index":44,"time_elapsed":1641227,"internal_node_id":"0.0-10.0-2.8","match_key":"a","participant_id":"COGS219_2020_34","correct":true},{"rt":null,"stimulus":"Sounds/correct.wav","key_press":null,"block":0,"trial_type":"audio-keyboard-response","trial_index":45,"time_elapsed":1643234,"internal_node_id":"0.0-10.0-3.8","match_key":"a","participant_id":"COGS219_2020_34"},{"rt":null,"stimulus":"Sounds/cow_sound.wav","key_press":null,"block":0,"trial_type":"audio-keyboard-response","trial_index":46,"time_elapsed":1644252,"internal_node_id":"0.0-10.0-0.9","match_key":"a","participant_id":"COGS219_2020_34"},{"rt":null,"stimulus":"<p style=\"font-size: 48px;\">+</p>","key_press":null,"block":0,"trial_type":"html-keyboard-response","trial_index":47,"time_elapsed":1645246,"internal_node_id":"0.0-10.0-1.9","match_key":"a","participant_id":"COGS219_2020_34"},{"rt":1284.5050001051277,"stimulus":"Images/cow_2.png","key_press":65,"stim_onset":1583009364839,"block":0,"match_type":"match","image_category":"cow","sound_category":"cow","audio_type":"sound","phase":"practice","trial_type":"image-keyboard-response","trial_index":48,"time_elapsed":1646531,"internal_node_id":"0.0-10.0-2.9","match_key":"a","participant_id":"COGS219_2020_34","correct":true},{"rt":null,"stimulus":"Sounds/correct.wav","key_press":null,"block":0,"trial_type":"audio-keyboard-response","trial_index":49,"time_elapsed":1648535,"internal_node_id":"0.0-10.0-3.9","match_key":"a","participant_id":"COGS219_2020_34"},{"rt":20187.604999984615,"stimulus":"<p>The rest of the experiment is divided into five blocks with 100 trials in each block. It will take about 45 minutes to complete.</p><p>The experimenter will be in the outer room and you can communicate with them through the monitor if you have any questions or wish to stop the experiment.</p>","key_press":32,"trial_type":"html-keyboard-response","trial_index":50,"time_elapsed":1668724,"internal_node_id":"0.0-11.0","match_key":"a","participant_id":"COGS219_2020_34"},{"rt":18038.599999970756,"stimulus":"<p>Remember, please try not to move or blink your eyes during the presentation of the images. </p><p>At the end of the experiment, we will show you your scores on the task so you can see how you did.</p><p>The experiment will start on the next screen.</p>","key_press":32,"trial_type":"html-keyboard-response","trial_index":51,"time_elapsed":1686764,"internal_node_id":"0.0-12.0","match_key":"a","participant_id":"COGS219_2020_34"},{"rt":null,"stimulus":"Sounds/cow_sound.wav","key_press":null,"block":1,"trial_type":"audio-keyboard-response","trial_index":52,"time_elapsed":1689806,"internal_node_id":"0.0-13.0-0.0","match_key":"a","participant_id":"COGS219_2020_34"},{"rt":null,"stimulus":"<p style=\"font-size: 48px;\">+</p>","key_press":null,"block":1,"trial_type":"html-keyboard-response","trial_index":53,"time_elapsed":1690796,"internal_node_id":"0.0-13.0-1.0","match_key":"a","participant_id":"COGS219_2020_34"},{"rt":1021.9349999679253,"stimulus":"Images/dog_3.png","key_press":76,"stim_onset":1583009410389,"block":1,"match_type":"non-match","image_category":"dog","sound_category":"cow","audio_type":"sound","phase":"test","trial_type":"image-keyboard-response","trial_index":54,"time_elapsed":1691819,"internal_node_id":"0.0-13.0-2.0","match_key":"a","participant_id":"COGS219_2020_34","correct":true},{"rt":null,"stimulus":"Sounds/correct.wav","key_press":null,"block":1,"trial_type":"audio-keyboard-response","trial_index":55,"time_elapsed":1693834,"internal_node_id":"0.0-13.0-3.0","match_key":"a","participant_id":"COGS219_2020_34"},{"rt":null,"stimulus":"Sounds/frog_sound.wav","key_press":null,"block":1,"trial_type":"audio-keyboard-response","trial_index":56,"time_elapsed":1694747,"internal_node_id":"0.0-13.0-0.1","match_key":"a","participant_id":"COGS219_2020_34"},{"rt":null,"stimulus":"<p style=\"font-size: 48px;\">+</p>","key_press":null,"block":1,"trial_type":"html-keyboard-response","trial_index":57,"time_elapsed":1695746,"internal_node_id":"0.0-13.0-1.1","match_key":"a","participant_id":"COGS219_2020_34"},{"rt":1376.0199999669567,"stimulus":"Images/gun_2.png","key_press":76,"stim_onset":1583009415339,"block":1,"match_type":"non-match","image_category":"gun","sound_category":"frog","audio_type":"sound","phase":"test","trial_type":"image-keyboard-response","trial_index":58,"time_elapsed":1697123,"internal_node_id":"0.0-13.0-2.1","match_key":"a","participant_id":"COGS219_2020_34","correct":true},{"rt":null,"stimulus":"Sounds/correct.wav","key_press":null,"block":1,"trial_type":"audio-keyboard-response","trial_index":59,"time_elapsed":1699135,"internal_node_id":"0.0-13.0-3.1","match_key":"a","participant_id":"COGS219_2020_34"},{"rt":null,"stimulus":"Sounds/frog_sound.wav","key_press":null,"block":1,"trial_type":"audio-keyboard-response","trial_index":60,"time_elapsed":1700026,"internal_node_id":"0.0-13.0-0.2","match_key":"a","participant_id":"COGS219_2020_34"},{"rt":null,"stimulus":"<p style=\"font-size: 48px;\">+</p>","key_press":null,"block":1,"trial_type":"html-keyboard-response","trial_index":61,"time_elapsed":1701030,"internal_node_id":"0.0-13.0-1.2","match_key":"a","participant_id":"COGS219_2020_34"},{"rt":1036.1399999819696,"stimulus":"Images/rooster_3.png","key_press":76,"stim_onset":1583009420623,"block":1,"match_type":"non-match","image_category":"rooster","sound_category":"frog","audio_type":"sound","phase":"test","trial_type":"image-keyboard-response","trial_index":62,"time_elapsed":1702068,"internal_node_id":"0.0-13.0-2.2","match_key":"a","participant_id":"COGS219_2020_34","correct":true},{"rt":null,"stimulus":"Sounds/correct.wav","key_press":null,"block":1,"trial_type":"audio-keyboard-response","trial_index":63,"time_elapsed":1704078,"internal_node_id":"0.0-13.0-3.2","match_key":"a","participant_id":"COGS219_2020_34"},{"rt":null,"stimulus":"Sounds/rooster_label.wav","key_press":null,"block":1,"trial_type":"audio-keyboard-response","trial_index":64,"time_elapsed":1704786,"internal_node_id":"0.0-13.0-0.3","match_key":"a","participant_id":"COGS219_2020_34"},{"rt":null,"stimulus":"<p style=\"font-size: 48px;\">+</p>","key_press":null,"block":1,"trial_type":"html-keyboard-response","trial_index":65,"time_elapsed":1705780,"internal_node_id":"0.0-13.0-1.3","match_key":"a","participant_id":"COGS219_2020_34"},{"rt":766.4299999596551,"stimulus":"Images/gun_1.png","key_press":76,"stim_onset":1583009425373,"block":1,"match_type":"non-match","image_category":"gun","sound_category":"rooster","audio_type":"label","phase":"test","trial_type":"image-keyboard-response","trial_index":66,"time_elapsed":1706548,"internal_node_id":"0.0-13.0-2.3","match_key":"a","participant_id":"COGS219_2020_34","correct":true},{"rt":null,"stimulus":"Sounds/correct.wav","key_press":null,"block":1,"trial_type":"audio-keyboard-response","trial_index":67,"time_elapsed":1708555,"internal_node_id":"0.0-13.0-3.3","match_key":"a","participant_id":"COGS219_2020_34"},{"rt":null,"stimulus":"Sounds/gun_sound.wav","key_press":null,"block":1,"trial_type":"audio-keyboard-response","trial_index":68,"time_elapsed":1709126,"internal_node_id":"0.0-13.0-0.4","match_key":"a","participant_id":"COGS219_2020_34"},{"rt":null,"stimulus":"<p style=\"font-size: 48px;\">+</p>","key_press":null,"block":1,"trial_type":"html-keyboard-response","trial_index":69,"time_elapsed":1710130,"internal_node_id":"0.0-13.0-1.4","match_key":"a","participant_id":"COGS219_2020_34"},{"rt":656.5900000277907,"stimulus":"Images/frog_cartoon.png","key_press":76,"stim_onset":1583009429723,"block":1,"match_type":"non-match","image_category":"frog","sound_category":"gun","audio_type":"sound","phase":"test","trial_type":"image-keyboard-response","trial_index":70,"time_elapsed":1710788,"internal_node_id":"0.0-13.0-2.4","match_key":"a","participant_id":"COGS219_2020_34","correct":true},{"rt":null,"stimulus":"Sounds/correct.wav","key_press":null,"block":1,"trial_type":"audio-keyboard-response","trial_index":71,"time_elapsed":1712800,"internal_node_id":"0.0-13.0-3.4","match_key":"a","participant_id":"COGS219_2020_34"},{"rt":null,"stimulus":"Sounds/cow_sound.wav","key_press":null,"block":1,"trial_type":"audio-keyboard-response","trial_index":72,"time_elapsed":1713826,"internal_node_id":"0.0-13.0-0.5","match_key":"a","participant_id":"COGS219_2020_34"},{"rt":null,"stimulus":"<p style=\"font-size: 48px;\">+</p>","key_press":null,"block":1,"trial_type":"html-keyboard-response","trial_index":73,"time_elapsed":1714830,"internal_node_id":"0.0-13.0-1.5","match_key":"a","participant_id":"COGS219_2020_34"},{"rt":1004.4350000098348,"stimulus":"Images/cow_orig.png","key_press":65,"stim_onset":1583009434423,"block":1,"match_type":"match","image_category":"cow","sound_category":"cow","audio_type":"sound","phase":"test","trial_type":"image-keyboard-response","trial_index":74,"time_elapsed":1715835,"internal_node_id":"0.0-13.0-2.5","match_key":"a","participant_id":"COGS219_2020_34","correct":true},{"rt":null,"stimulus":"Sounds/correct.wav","key_press":null,"block":1,"trial_type":"audio-keyboard-response","trial_index":75,"time_elapsed":1717851,"internal_node_id":"0.0-13.0-3.5","match_key":"a","participant_id":"COGS219_2020_34"},{"rt":null,"stimulus":"Sounds/dog_sound.wav","key_press":null,"block":1,"trial_type":"audio-keyboard-response","trial_index":76,"time_elapsed":1718566,"internal_node_id":"0.0-13.0-0.6","match_key":"a","participant_id":"COGS219_2020_34"},{"rt":null,"stimulus":"<p style=\"font-size: 48px;\">+</p>","key_press":null,"block":1,"trial_type":"html-keyboard-response","trial_index":77,"time_elapsed":1719563,"internal_node_id":"0.0-13.0-1.6","match_key":"a","participant_id":"COGS219_2020_34"},{"rt":935.230000060983,"stimulus":"Images/whistle_1.png","key_press":76,"stim_onset":1583009439157,"block":1,"match_type":"non-match","image_category":"whistle","sound_category":"dog","audio_type":"sound","phase":"test","trial_type":"image-keyboard-response","trial_index":78,"time_elapsed":1720500,"internal_node_id":"0.0-13.0-2.6","match_key":"a","participant_id":"COGS219_2020_34","correct":true},{"rt":null,"stimulus":"Sounds/correct.wav","key_press":null,"block":1,"trial_type":"audio-keyboard-response","trial_index":79,"time_elapsed":1722517,"internal_node_id":"0.0-13.0-3.6","match_key":"a","participant_id":"COGS219_2020_34"},{"rt":null,"stimulus":"Sounds/car_label.wav","key_press":null,"block":1,"trial_type":"audio-keyboard-response","trial_index":80,"time_elapsed":1723606,"internal_node_id":"0.0-13.0-0.7","match_key":"a","participant_id":"COGS219_2020_34"},{"rt":null,"stimulus":"<p style=\"font-size: 48px;\">+</p>","key_press":null,"block":1,"trial_type":"html-keyboard-response","trial_index":81,"time_elapsed":1724597,"internal_node_id":"0.0-13.0-1.7","match_key":"a","participant_id":"COGS219_2020_34"},{"rt":1261.6949999937788,"stimulus":"Images/car_3.png","key_press":65,"stim_onset":1583009444190,"block":1,"match_type":"match","image_category":"car","sound_category":"car","audio_type":"label","phase":"test","trial_type":"image-keyboard-response","trial_index":82,"time_elapsed":1725860,"internal_node_id":"0.0-13.0-2.7","match_key":"a","participant_id":"COGS219_2020_34","correct":true},{"rt":null,"stimulus":"Sounds/correct.wav","key_press":null,"block":1,"trial_type":"audio-keyboard-response","trial_index":83,"time_elapsed":1727870,"internal_node_id":"0.0-13.0-3.7","match_key":"a","participant_id":"COGS219_2020_34"},{"rt":null,"stimulus":"Sounds/train_label.wav","key_press":null,"block":1,"trial_type":"audio-keyboard-response","trial_index":84,"time_elapsed":1729146,"internal_node_id":"0.0-13.0-0.8","match_key":"a","participant_id":"COGS219_2020_34"},{"rt":null,"stimulus":"<p style=\"font-size: 48px;\">+</p>","key_press":null,"block":1,"trial_type":"html-keyboard-response","trial_index":85,"time_elapsed":1730163,"internal_node_id":"0.0-13.0-1.8","match_key":"a","participant_id":"COGS219_2020_34"},{"rt":926.8099999753758,"stimulus":"Images/rooster_1.png","key_press":76,"stim_onset":1583009449757,"block":1,"match_type":"non-match","image_category":"rooster","sound_category":"train","audio_type":"label","phase":"test","trial_type":"image-keyboard-response","trial_index":86,"time_elapsed":1731091,"internal_node_id":"0.0-13.0-2.8","match_key":"a","participant_id":"COGS219_2020_34","correct":true},{"rt":null,"stimulus":"Sounds/correct.wav","key_press":null,"block":1,"trial_type":"audio-keyboard-response","trial_index":87,"time_elapsed":1733103,"internal_node_id":"0.0-13.0-3.8","match_key":"a","participant_id":"COGS219_2020_34"},{"rt":null,"stimulus":"Sounds/frog_label.wav","key_press":null,"block":1,"trial_type":"audio-keyboard-response","trial_index":88,"time_elapsed":1734006,"internal_node_id":"0.0-13.0-0.9","match_key":"a","participant_id":"COGS219_2020_34"},{"rt":null,"stimulus":"<p style=\"font-size: 48px;\">+</p>","key_press":null,"block":1,"trial_type":"html-keyboard-response","trial_index":89,"time_elapsed":1734997,"internal_node_id":"0.0-13.0-1.9","match_key":"a","participant_id":"COGS219_2020_34"},{"rt":1309.6549999900162,"stimulus":"Images/dog_1.png","key_press":76,"stim_onset":1583009454590,"block":1,"match_type":"non-match","image_category":"dog","sound_category":"frog","audio_type":"label","phase":"test","trial_type":"image-keyboard-response","trial_index":90,"time_elapsed":1736308,"internal_node_id":"0.0-13.0-2.9","match_key":"a","participant_id":"COGS219_2020_34","correct":true},{"rt":null,"stimulus":"Sounds/correct.wav","key_press":null,"block":1,"trial_type":"audio-keyboard-response","trial_index":91,"time_elapsed":1738322,"internal_node_id":"0.0-13.0-3.9","match_key":"a","participant_id":"COGS219_2020_34"},{"rt":null,"stimulus":"Sounds/frog_sound.wav","key_press":null,"block":1,"trial_type":"audio-keyboard-response","trial_index":92,"time_elapsed":1739226,"internal_node_id":"0.0-13.0-0.10","match_key":"a","participant_id":"COGS219_2020_34"},{"rt":null,"stimulus":"<p style=\"font-size: 48px;\">+</p>","key_press":null,"block":1,"trial_type":"html-keyboard-response","trial_index":93,"time_elapsed":1740230,"internal_node_id":"0.0-13.0-1.10","match_key":"a","participant_id":"COGS219_2020_34"},{"rt":1283.8100000517443,"stimulus":"Images/frog_orig.png","key_press":65,"stim_onset":1583009459823,"block":1,"match_type":"match","image_category":"frog","sound_category":"frog","audio_type":"sound","phase":"test","trial_type":"image-keyboard-response","trial_index":94,"time_elapsed":1741515,"internal_node_id":"0.0-13.0-2.10","match_key":"a","participant_id":"COGS219_2020_34","correct":true},{"rt":null,"stimulus":"Sounds/correct.wav","key_press":null,"block":1,"trial_type":"audio-keyboard-response","trial_index":95,"time_elapsed":1743531,"internal_node_id":"0.0-13.0-3.10","match_key":"a","participant_id":"COGS219_2020_34"},{"rt":null,"stimulus":"Sounds/dog_sound.wav","key_press":null,"block":1,"trial_type":"audio-keyboard-response","trial_index":96,"time_elapsed":1744246,"internal_node_id":"0.0-13.0-0.11","match_key":"a","participant_id":"COGS219_2020_34"},{"rt":null,"stimulus":"<p style=\"font-size: 48px;\">+</p>","key_press":null,"block":1,"trial_type":"html-keyboard-response","trial_index":97,"time_elapsed":1745263,"internal_node_id":"0.0-13.0-1.11","match_key":"a","participant_id":"COGS219_2020_34"},{"rt":1875.3550000255927,"stimulus":"Images/dog_1.png","key_press":65,"stim_onset":1583009464857,"block":1,"match_type":"match","image_category":"dog","sound_category":"dog","audio_type":"sound","phase":"test","trial_type":"image-keyboard-response","trial_index":98,"time_elapsed":1747140,"internal_node_id":"0.0-13.0-2.11","match_key":"a","participant_id":"COGS219_2020_34","correct":true},{"rt":null,"stimulus":"Sounds/correct.wav","key_press":null,"block":1,"trial_type":"audio-keyboard-response","trial_index":99,"time_elapsed":1749154,"internal_node_id":"0.0-13.0-3.11","match_key":"a","participant_id":"COGS219_2020_34"},{"rt":null,"stimulus":"Sounds/dog_sound.wav","key_press":null,"block":1,"trial_type":"audio-keyboard-response","trial_index":100,"time_elapsed":1749846,"internal_node_id":"0.0-13.0-0.12","match_key":"a","participant_id":"COGS219_2020_34"},{"rt":null,"stimulus":"<p style=\"font-size: 48px;\">+</p>","key_press":null,"block":1,"trial_type":"html-keyboard-response","trial_index":101,"time_elapsed":1750864,"internal_node_id":"0.0-13.0-1.12","match_key":"a","participant_id":"COGS219_2020_34"},{"rt":946.6249999823049,"stimulus":"Images/dog_3.png","key_press":65,"stim_onset":1583009470457,"block":1,"match_type":"match","image_category":"dog","sound_category":"dog","audio_type":"sound","phase":"test","trial_type":"image-keyboard-response","trial_index":102,"time_elapsed":1751811,"internal_node_id":"0.0-13.0-2.12","match_key":"a","participant_id":"COGS219_2020_34","correct":true},{"rt":null,"stimulus":"Sounds/correct.wav","key_press":null,"block":1,"trial_type":"audio-keyboard-response","trial_index":103,"time_elapsed":1753819,"internal_node_id":"0.0-13.0-3.12","match_key":"a","participant_id":"COGS219_2020_34"},{"rt":null,"stimulus":"Sounds/cat_label.wav","key_press":null,"block":1,"trial_type":"audio-keyboard-response","trial_index":104,"time_elapsed":1754666,"internal_node_id":"0.0-13.0-0.13","match_key":"a","participant_id":"COGS219_2020_34"},{"rt":null,"stimulus":"<p style=\"font-size: 48px;\">+</p>","key_press":null,"block":1,"trial_type":"html-keyboard-response","trial_index":105,"time_elapsed":1755664,"internal_node_id":"0.0-13.0-1.13","match_key":"a","participant_id":"COGS219_2020_34"},{"rt":1010.7549999374896,"stimulus":"Images/whistle_orig.png","key_press":76,"stim_onset":1583009475257,"block":1,"match_type":"non-match","image_category":"whistle","sound_category":"cat","audio_type":"label","phase":"test","trial_type":"image-keyboard-response","trial_index":106,"time_elapsed":1756676,"internal_node_id":"0.0-13.0-2.13","match_key":"a","participant_id":"COGS219_2020_34","correct":true},{"rt":null,"stimulus":"Sounds/correct.wav","key_press":null,"block":1,"trial_type":"audio-keyboard-response","trial_index":107,"time_elapsed":1758686,"internal_node_id":"0.0-13.0-3.13","match_key":"a","participant_id":"COGS219_2020_34"},{"rt":null,"stimulus":"Sounds/train_label.wav","key_press":null,"block":1,"trial_type":"audio-keyboard-response","trial_index":108,"time_elapsed":1759986,"internal_node_id":"0.0-13.0-0.14","match_key":"a","participant_id":"COGS219_2020_34"},{"rt":null,"stimulus":"<p style=\"font-size: 48px;\">+</p>","key_press":null,"block":1,"trial_type":"html-keyboard-response","trial_index":109,"time_elapsed":1760980,"internal_node_id":"0.0-13.0-1.14","match_key":"a","participant_id":"COGS219_2020_34"},{"rt":1126.1950000189245,"stimulus":"Images/train_orig.png","key_press":65,"stim_onset":1583009480574,"block":1,"match_type":"match","image_category":"train","sound_category":"train","audio_type":"label","phase":"test","trial_type":"image-keyboard-response","trial_index":110,"time_elapsed":1762108,"internal_node_id":"0.0-13.0-2.14","match_key":"a","participant_id":"COGS219_2020_34","correct":true},{"rt":null,"stimulus":"Sounds/correct.wav","key_press":null,"block":1,"trial_type":"audio-keyboard-response","trial_index":111,"time_elapsed":1764117,"internal_node_id":"0.0-13.0-3.14","match_key":"a","participant_id":"COGS219_2020_34"},{"rt":null,"stimulus":"Sounds/dog_sound.wav","key_press":null,"block":1,"trial_type":"audio-keyboard-response","trial_index":112,"time_elapsed":1764806,"internal_node_id":"0.0-13.0-0.15","match_key":"a","participant_id":"COGS219_2020_34"},{"rt":null,"stimulus":"<p style=\"font-size: 48px;\">+</p>","key_press":null,"block":1,"trial_type":"html-keyboard-response","trial_index":113,"time_elapsed":1765797,"internal_node_id":"0.0-13.0-1.15","match_key":"a","participant_id":"COGS219_2020_34"},{"rt":1021.4550000382587,"stimulus":"Images/train_orig.png","key_press":76,"stim_onset":1583009485390,"block":1,"match_type":"non-match","image_category":"train","sound_category":"dog","audio_type":"sound","phase":"test","trial_type":"image-keyboard-response","trial_index":114,"time_elapsed":1766820,"internal_node_id":"0.0-13.0-2.15","match_key":"a","participant_id":"COGS219_2020_34","correct":true},{"rt":null,"stimulus":"Sounds/correct.wav","key_press":null,"block":1,"trial_type":"audio-keyboard-response","trial_index":115,"time_elapsed":1768835,"internal_node_id":"0.0-13.0-3.15","match_key":"a","participant_id":"COGS219_2020_34"},{"rt":null,"stimulus":"Sounds/motorcycle_sound.wav","key_press":null,"block":1,"trial_type":"audio-keyboard-response","trial_index":116,"time_elapsed":1769966,"internal_node_id":"0.0-13.0-0.16","match_key":"a","participant_id":"COGS219_2020_34"},{"rt":null,"stimulus":"<p style=\"font-size: 48px;\">+</p>","key_press":null,"block":1,"trial_type":"html-keyboard-response","trial_index":117,"time_elapsed":1770964,"internal_node_id":"0.0-13.0-1.16","match_key":"a","participant_id":"COGS219_2020_34"},{"rt":1987.5400000019,"stimulus":"Images/dog_cartoon.png","key_press":76,"stim_onset":1583009490557,"block":1,"match_type":"non-match","image_category":"dog","sound_category":"motorcycle","audio_type":"sound","phase":"test","trial_type":"image-keyboard-response","trial_index":118,"time_elapsed":1772955,"internal_node_id":"0.0-13.0-2.16","match_key":"a","participant_id":"COGS219_2020_34","correct":true},{"rt":null,"stimulus":"Sounds/correct.wav","key_press":null,"block":1,"trial_type":"audio-keyboard-response","trial_index":119,"time_elapsed":1774971,"internal_node_id":"0.0-13.0-3.16","match_key":"a","participant_id":"COGS219_2020_34"},{"rt":null,"stimulus":"Sounds/dog_label.wav","key_press":null,"block":1,"trial_type":"audio-keyboard-response","trial_index":120,"time_elapsed":1775626,"internal_node_id":"0.0-13.0-0.17","match_key":"a","participant_id":"COGS219_2020_34"},{"rt":null,"stimulus":"<p style=\"font-size: 48px;\">+</p>","key_press":null,"block":1,"trial_type":"html-keyboard-response","trial_index":121,"time_elapsed":1776631,"internal_node_id":"0.0-13.0-1.17","match_key":"a","participant_id":"COGS219_2020_34"},{"rt":1411.750000086613,"stimulus":"Images/dog_2.png","key_press":65,"stim_onset":1583009496224,"block":1,"match_type":"match","image_category":"dog","sound_category":"dog","audio_type":"label","phase":"test","trial_type":"image-keyboard-response","trial_index":122,"time_elapsed":1778044,"internal_node_id":"0.0-13.0-2.17","match_key":"a","participant_id":"COGS219_2020_34","correct":true},{"rt":null,"stimulus":"Sounds/correct.wav","key_press":null,"block":1,"trial_type":"audio-keyboard-response","trial_index":123,"time_elapsed":1780054,"internal_node_id":"0.0-13.0-3.17","match_key":"a","participant_id":"COGS219_2020_34"},{"rt":null,"stimulus":"Sounds/frog_label.wav","key_press":null,"block":1,"trial_type":"audio-keyboard-response","trial_index":124,"time_elapsed":1780966,"internal_node_id":"0.0-13.0-0.18","match_key":"a","participant_id":"COGS219_2020_34"},{"rt":null,"stimulus":"<p style=\"font-size: 48px;\">+</p>","key_press":null,"block":1,"trial_type":"html-keyboard-response","trial_index":125,"time_elapsed":1781964,"internal_node_id":"0.0-13.0-1.18","match_key":"a","participant_id":"COGS219_2020_34"},{"rt":1830.6300000986084,"stimulus":"Images/frog_1.png","key_press":65,"stim_onset":1583009501557,"block":1,"match_type":"match","image_category":"frog","sound_category":"frog","audio_type":"label","phase":"test","trial_type":"image-keyboard-response","trial_index":126,"time_elapsed":1783796,"internal_node_id":"0.0-13.0-2.18","match_key":"a","participant_id":"COGS219_2020_34","correct":true},{"rt":null,"stimulus":"Sounds/correct.wav","key_press":null,"block":1,"trial_type":"audio-keyboard-response","trial_index":127,"time_elapsed":1785806,"internal_node_id":"0.0-13.0-3.18","match_key":"a","participant_id":"COGS219_2020_34"},{"rt":null,"stimulus":"Sounds/rooster_sound.wav","key_press":null,"block":1,"trial_type":"audio-keyboard-response","trial_index":128,"time_elapsed":1786506,"internal_node_id":"0.0-13.0-0.19","match_key":"a","participant_id":"COGS219_2020_34"},{"rt":null,"stimulus":"<p style=\"font-size: 48px;\">+</p>","key_press":null,"block":1,"trial_type":"html-keyboard-response","trial_index":129,"time_elapsed":1787497,"internal_node_id":"0.0-13.0-1.19","match_key":"a","participant_id":"COGS219_2020_34"},{"rt":1265.0600000051782,"stimulus":"Images/rooster_orig.png","key_press":65,"stim_onset":1583009507090,"block":1,"match_type":"match","image_category":"rooster","sound_category":"rooster","audio_type":"sound","phase":"test","trial_type":"image-keyboard-response","trial_index":130,"time_elapsed":1788763,"internal_node_id":"0.0-13.0-2.19","match_key":"a","participant_id":"COGS219_2020_34","correct":true},{"rt":null,"stimulus":"Sounds/correct.wav","key_press":null,"block":1,"trial_type":"audio-keyboard-response","trial_index":131,"time_elapsed":1790771,"internal_node_id":"0.0-13.0-3.19","match_key":"a","participant_id":"COGS219_2020_34"},{"rt":null,"stimulus":"Sounds/motorcycle_label.wav","key_press":null,"block":1,"trial_type":"audio-keyboard-response","trial_index":132,"time_elapsed":1791906,"internal_node_id":"0.0-13.0-0.20","match_key":"a","participant_id":"COGS219_2020_34"},{"rt":null,"stimulus":"<p style=\"font-size: 48px;\">+</p>","key_press":null,"block":1,"trial_type":"html-keyboard-response","trial_index":133,"time_elapsed":1792897,"internal_node_id":"0.0-13.0-1.20","match_key":"a","participant_id":"COGS219_2020_34"},{"rt":1057.0450000232086,"stimulus":"Images/motorcycle_3.png","key_press":65,"stim_onset":1583009512491,"block":1,"match_type":"match","image_category":"motorcycle","sound_category":"motorcycle","audio_type":"label","phase":"test","trial_type":"image-keyboard-response","trial_index":134,"time_elapsed":1793956,"internal_node_id":"0.0-13.0-2.20","match_key":"a","participant_id":"COGS219_2020_34","correct":true},{"rt":null,"stimulus":"Sounds/correct.wav","key_press":null,"block":1,"trial_type":"audio-keyboard-response","trial_index":135,"time_elapsed":1795968,"internal_node_id":"0.0-13.0-3.20","match_key":"a","participant_id":"COGS219_2020_34"},{"rt":null,"stimulus":"Sounds/car_sound.wav","key_press":null,"block":1,"trial_type":"audio-keyboard-response","trial_index":136,"time_elapsed":1797046,"internal_node_id":"0.0-13.0-0.21","match_key":"a","participant_id":"COGS219_2020_34"},{"rt":null,"stimulus":"<p style=\"font-size: 48px;\">+</p>","key_press":null,"block":1,"trial_type":"html-keyboard-response","trial_index":137,"time_elapsed":1798064,"internal_node_id":"0.0-13.0-1.21","match_key":"a","participant_id":"COGS219_2020_34"},{"rt":1034.3000000575557,"stimulus":"Images/cat_2.png","key_press":76,"stim_onset":1583009517657,"block":1,"match_type":"non-match","image_category":"cat","sound_category":"car","audio_type":"sound","phase":"test","trial_type":"image-keyboard-response","trial_index":138,"time_elapsed":1799100,"internal_node_id":"0.0-13.0-2.21","match_key":"a","participant_id":"COGS219_2020_34","correct":true},{"rt":null,"stimulus":"Sounds/correct.wav","key_press":null,"block":1,"trial_type":"audio-keyboard-response","trial_index":139,"time_elapsed":1801103,"internal_node_id":"0.0-13.0-3.21","match_key":"a","participant_id":"COGS219_2020_34"},{"rt":null,"stimulus":"Sounds/cow_sound.wav","key_press":null,"block":1,"trial_type":"audio-keyboard-response","trial_index":140,"time_elapsed":1802126,"internal_node_id":"0.0-13.0-0.22","match_key":"a","participant_id":"COGS219_2020_34"},{"rt":null,"stimulus":"<p style=\"font-size: 48px;\">+</p>","key_press":null,"block":1,"trial_type":"html-keyboard-response","trial_index":141,"time_elapsed":1803131,"internal_node_id":"0.0-13.0-1.22","match_key":"a","participant_id":"COGS219_2020_34"},{"rt":1015.6549999956042,"stimulus":"Images/cow_3.png","key_press":65,"stim_onset":1583009522724,"block":1,"match_type":"match","image_category":"cow","sound_category":"cow","audio_type":"sound","phase":"test","trial_type":"image-keyboard-response","trial_index":142,"time_elapsed":1804147,"internal_node_id":"0.0-13.0-2.22","match_key":"a","participant_id":"COGS219_2020_34","correct":true},{"rt":null,"stimulus":"Sounds/correct.wav","key_press":null,"block":1,"trial_type":"audio-keyboard-response","trial_index":143,"time_elapsed":1806153,"internal_node_id":"0.0-13.0-3.22","match_key":"a","participant_id":"COGS219_2020_34"},{"rt":null,"stimulus":"Sounds/cat_sound.wav","key_press":null,"block":1,"trial_type":"audio-keyboard-response","trial_index":144,"time_elapsed":1806986,"internal_node_id":"0.0-13.0-0.23","match_key":"a","participant_id":"COGS219_2020_34"},{"rt":null,"stimulus":"<p style=\"font-size: 48px;\">+</p>","key_press":null,"block":1,"trial_type":"html-keyboard-response","trial_index":145,"time_elapsed":1807981,"internal_node_id":"0.0-13.0-1.23","match_key":"a","participant_id":"COGS219_2020_34"},{"rt":1301.4599999878556,"stimulus":"Images/dog_orig.png","key_press":76,"stim_onset":1583009527574,"block":1,"match_type":"non-match","image_category":"dog","sound_category":"cat","audio_type":"sound","phase":"test","trial_type":"image-keyboard-response","trial_index":146,"time_elapsed":1809283,"internal_node_id":"0.0-13.0-2.23","match_key":"a","participant_id":"COGS219_2020_34","correct":true},{"rt":null,"stimulus":"Sounds/correct.wav","key_press":null,"block":1,"trial_type":"audio-keyboard-response","trial_index":147,"time_elapsed":1811288,"internal_node_id":"0.0-13.0-3.23","match_key":"a","participant_id":"COGS219_2020_34"},{"rt":null,"stimulus":"Sounds/cow_sound.wav","key_press":null,"block":1,"trial_type":"audio-keyboard-response","trial_index":148,"time_elapsed":1812286,"internal_node_id":"0.0-13.0-0.24","match_key":"a","participant_id":"COGS219_2020_34"},{"rt":null,"stimulus":"<p style=\"font-size: 48px;\">+</p>","key_press":null,"block":1,"trial_type":"html-keyboard-response","trial_index":149,"time_elapsed":1813281,"internal_node_id":"0.0-13.0-1.24","match_key":"a","participant_id":"COGS219_2020_34"},{"rt":889.7700000088662,"stimulus":"Images/rooster_cartoon.png","key_press":76,"stim_onset":1583009532874,"block":1,"match_type":"non-match","image_category":"rooster","sound_category":"cow","audio_type":"sound","phase":"test","trial_type":"image-keyboard-response","trial_index":150,"time_elapsed":1814172,"internal_node_id":"0.0-13.0-2.24","match_key":"a","participant_id":"COGS219_2020_34","correct":true},{"rt":null,"stimulus":"Sounds/correct.wav","key_press":null,"block":1,"trial_type":"audio-keyboard-response","trial_index":151,"time_elapsed":1816188,"internal_node_id":"0.0-13.0-3.24","match_key":"a","participant_id":"COGS219_2020_34"},{"rt":null,"stimulus":"Sounds/car_label.wav","key_press":null,"block":1,"trial_type":"audio-keyboard-response","trial_index":152,"time_elapsed":1817266,"internal_node_id":"0.0-13.0-0.25","match_key":"a","participant_id":"COGS219_2020_34"},{"rt":null,"stimulus":"<p style=\"font-size: 48px;\">+</p>","key_press":null,"block":1,"trial_type":"html-keyboard-response","trial_index":153,"time_elapsed":1818264,"internal_node_id":"0.0-13.0-1.25","match_key":"a","participant_id":"COGS219_2020_34"},{"rt":1081.6699999850243,"stimulus":"Images/dog_2.png","key_press":76,"stim_onset":1583009537858,"block":1,"match_type":"non-match","image_category":"dog","sound_category":"car","audio_type":"label","phase":"test","trial_type":"image-keyboard-response","trial_index":154,"time_elapsed":1819347,"internal_node_id":"0.0-13.0-2.25","match_key":"a","participant_id":"COGS219_2020_34","correct":true},{"rt":null,"stimulus":"Sounds/correct.wav","key_press":null,"block":1,"trial_type":"audio-keyboard-response","trial_index":155,"time_elapsed":1821354,"internal_node_id":"0.0-13.0-3.25","match_key":"a","participant_id":"COGS219_2020_34"},{"rt":null,"stimulus":"Sounds/gun_label.wav","key_press":null,"block":1,"trial_type":"audio-keyboard-response","trial_index":156,"time_elapsed":1821926,"internal_node_id":"0.0-13.0-0.26","match_key":"a","participant_id":"COGS219_2020_34"},{"rt":null,"stimulus":"<p style=\"font-size: 48px;\">+</p>","key_press":null,"block":1,"trial_type":"html-keyboard-response","trial_index":157,"time_elapsed":1822932,"internal_node_id":"0.0-13.0-1.26","match_key":"a","participant_id":"COGS219_2020_34"},{"rt":1063.084999914281,"stimulus":"Images/gun_3.png","key_press":65,"stim_onset":1583009542524,"block":1,"match_type":"match","image_category":"gun","sound_category":"gun","audio_type":"label","phase":"test","trial_type":"image-keyboard-response","trial_index":158,"time_elapsed":1823996,"internal_node_id":"0.0-13.0-2.26","match_key":"a","participant_id":"COGS219_2020_34","correct":true},{"rt":null,"stimulus":"Sounds/correct.wav","key_press":null,"block":1,"trial_type":"audio-keyboard-response","trial_index":159,"time_elapsed":1826003,"internal_node_id":"0.0-13.0-3.26","match_key":"a","participant_id":"COGS219_2020_34"},{"rt":null,"stimulus":"Sounds/cat_label.wav","key_press":null,"block":1,"trial_type":"audio-keyboard-response","trial_index":160,"time_elapsed":1826846,"internal_node_id":"0.0-13.0-0.27","match_key":"a","participant_id":"COGS219_2020_34"},{"rt":null,"stimulus":"<p style=\"font-size: 48px;\">+</p>","key_press":null,"block":1,"trial_type":"html-keyboard-response","trial_index":161,"time_elapsed":1827848,"internal_node_id":"0.0-13.0-1.27","match_key":"a","participant_id":"COGS219_2020_34"},{"rt":1010.7749999733642,"stimulus":"Images/cat_1.png","key_press":65,"stim_onset":1583009547441,"block":1,"match_type":"match","image_category":"cat","sound_category":"cat","audio_type":"label","phase":"test","trial_type":"image-keyboard-response","trial_index":162,"time_elapsed":1828860,"internal_node_id":"0.0-13.0-2.27","match_key":"a","participant_id":"COGS219_2020_34","correct":true},{"rt":null,"stimulus":"Sounds/correct.wav","key_press":null,"block":1,"trial_type":"audio-keyboard-response","trial_index":163,"time_elapsed":1830869,"internal_node_id":"0.0-13.0-3.27","match_key":"a","participant_id":"COGS219_2020_34"},{"rt":null,"stimulus":"Sounds/train_label.wav","key_press":null,"block":1,"trial_type":"audio-keyboard-response","trial_index":164,"time_elapsed":1832146,"internal_node_id":"0.0-13.0-0.28","match_key":"a","participant_id":"COGS219_2020_34"},{"rt":null,"stimulus":"<p style=\"font-size: 48px;\">+</p>","key_press":null,"block":1,"trial_type":"html-keyboard-response","trial_index":165,"time_elapsed":1833148,"internal_node_id":"0.0-13.0-1.28","match_key":"a","participant_id":"COGS219_2020_34"},{"rt":1278.6100000375882,"stimulus":"Images/motorcycle_cartoon.png","key_press":76,"stim_onset":1583009552741,"block":1,"match_type":"non-match","image_category":"motorcycle","sound_category":"train","audio_type":"label","phase":"test","trial_type":"image-keyboard-response","trial_index":166,"time_elapsed":1834428,"internal_node_id":"0.0-13.0-2.28","match_key":"a","participant_id":"COGS219_2020_34","correct":true},{"rt":null,"stimulus":"Sounds/correct.wav","key_press":null,"block":1,"trial_type":"audio-keyboard-response","trial_index":167,"time_elapsed":1836437,"internal_node_id":"0.0-13.0-3.28","match_key":"a","participant_id":"COGS219_2020_34"},{"rt":null,"stimulus":"Sounds/motorcycle_sound.wav","key_press":null,"block":1,"trial_type":"audio-keyboard-response","trial_index":168,"time_elapsed":1837546,"internal_node_id":"0.0-13.0-0.29","match_key":"a","participant_id":"COGS219_2020_34"},{"rt":null,"stimulus":"<p style=\"font-size: 48px;\">+</p>","key_press":null,"block":1,"trial_type":"html-keyboard-response","trial_index":169,"time_elapsed":1838548,"internal_node_id":"0.0-13.0-1.29","match_key":"a","participant_id":"COGS219_2020_34"},{"rt":1447.1149999881163,"stimulus":"Images/motorcycle_orig.png","key_press":65,"stim_onset":1583009558141,"block":1,"match_type":"match","image_category":"motorcycle","sound_category":"motorcycle","audio_type":"sound","phase":"test","trial_type":"image-keyboard-response","trial_index":170,"time_elapsed":1839996,"internal_node_id":"0.0-13.0-2.29","match_key":"a","participant_id":"COGS219_2020_34","correct":true},{"rt":null,"stimulus":"Sounds/correct.wav","key_press":null,"block":1,"trial_type":"audio-keyboard-response","trial_index":171,"time_elapsed":1842005,"internal_node_id":"0.0-13.0-3.29","match_key":"a","participant_id":"COGS219_2020_34"},{"rt":null,"stimulus":"Sounds/whistle_sound.wav","key_press":null,"block":1,"trial_type":"audio-keyboard-response","trial_index":172,"time_elapsed":1842706,"internal_node_id":"0.0-13.0-0.30","match_key":"a","participant_id":"COGS219_2020_34"},{"rt":null,"stimulus":"<p style=\"font-size: 48px;\">+</p>","key_press":null,"block":1,"trial_type":"html-keyboard-response","trial_index":173,"time_elapsed":1843698,"internal_node_id":"0.0-13.0-1.30","match_key":"a","participant_id":"COGS219_2020_34"},{"rt":1424.4100000942126,"stimulus":"Images/whistle_cartoon.png","key_press":65,"stim_onset":1583009563291,"block":1,"match_type":"match","image_category":"whistle","sound_category":"whistle","audio_type":"sound","phase":"test","trial_type":"image-keyboard-response","trial_index":174,"time_elapsed":1845124,"internal_node_id":"0.0-13.0-2.30","match_key":"a","participant_id":"COGS219_2020_34","correct":true},{"rt":null,"stimulus":"Sounds/correct.wav","key_press":null,"block":1,"trial_type":"audio-keyboard-response","trial_index":175,"time_elapsed":1847137,"internal_node_id":"0.0-13.0-3.30","match_key":"a","participant_id":"COGS219_2020_34"},{"rt":null,"stimulus":"Sounds/rooster_sound.wav","key_press":null,"block":1,"trial_type":"audio-keyboard-response","trial_index":176,"time_elapsed":1847846,"internal_node_id":"0.0-13.0-0.31","match_key":"a","participant_id":"COGS219_2020_34"},{"rt":null,"stimulus":"<p style=\"font-size: 48px;\">+</p>","key_press":null,"block":1,"trial_type":"html-keyboard-response","trial_index":177,"time_elapsed":1848848,"internal_node_id":"0.0-13.0-1.31","match_key":"a","participant_id":"COGS219_2020_34"},{"rt":1258.570000063628,"stimulus":"Images/rooster_cartoon.png","key_press":65,"stim_onset":1583009568442,"block":1,"match_type":"match","image_category":"rooster","sound_category":"rooster","audio_type":"sound","phase":"test","trial_type":"image-keyboard-response","trial_index":178,"time_elapsed":1850108,"internal_node_id":"0.0-13.0-2.31","match_key":"a","participant_id":"COGS219_2020_34","correct":true},{"rt":null,"stimulus":"Sounds/correct.wav","key_press":null,"block":1,"trial_type":"audio-keyboard-response","trial_index":179,"time_elapsed":1852124,"internal_node_id":"0.0-13.0-3.31","match_key":"a","participant_id":"COGS219_2020_34"},{"rt":null,"stimulus":"Sounds/whistle_label.wav","key_press":null,"block":1,"trial_type":"audio-keyboard-response","trial_index":180,"time_elapsed":1852826,"internal_node_id":"0.0-13.0-0.32","match_key":"a","participant_id":"COGS219_2020_34"},{"rt":null,"stimulus":"<p style=\"font-size: 48px;\">+</p>","key_press":null,"block":1,"trial_type":"html-keyboard-response","trial_index":181,"time_elapsed":1853815,"internal_node_id":"0.0-13.0-1.32","match_key":"a","participant_id":"COGS219_2020_34"},{"rt":1171.6149999992922,"stimulus":"Images/motorcycle_3.png","key_press":76,"stim_onset":1583009573408,"block":1,"match_type":"non-match","image_category":"motorcycle","sound_category":"whistle","audio_type":"label","phase":"test","trial_type":"image-keyboard-response","trial_index":182,"time_elapsed":1854988,"internal_node_id":"0.0-13.0-2.32","match_key":"a","participant_id":"COGS219_2020_34","correct":true},{"rt":null,"stimulus":"Sounds/correct.wav","key_press":null,"block":1,"trial_type":"audio-keyboard-response","trial_index":183,"time_elapsed":1857003,"internal_node_id":"0.0-13.0-3.32","match_key":"a","participant_id":"COGS219_2020_34"},{"rt":null,"stimulus":"Sounds/gun_sound.wav","key_press":null,"block":1,"trial_type":"audio-keyboard-response","trial_index":184,"time_elapsed":1857586,"internal_node_id":"0.0-13.0-0.33","match_key":"a","participant_id":"COGS219_2020_34"},{"rt":null,"stimulus":"<p style=\"font-size: 48px;\">+</p>","key_press":null,"block":1,"trial_type":"html-keyboard-response","trial_index":185,"time_elapsed":1858582,"internal_node_id":"0.0-13.0-1.33","match_key":"a","participant_id":"COGS219_2020_34"},{"rt":860.854999977164,"stimulus":"Images/gun_2.png","key_press":65,"stim_onset":1583009578175,"block":1,"match_type":"match","image_category":"gun","sound_category":"gun","audio_type":"sound","phase":"test","trial_type":"image-keyboard-response","trial_index":186,"time_elapsed":1859444,"internal_node_id":"0.0-13.0-2.33","match_key":"a","participant_id":"COGS219_2020_34","correct":true},{"rt":null,"stimulus":"Sounds/correct.wav","key_press":null,"block":1,"trial_type":"audio-keyboard-response","trial_index":187,"time_elapsed":1861452,"internal_node_id":"0.0-13.0-3.33","match_key":"a","participant_id":"COGS219_2020_34"},{"rt":null,"stimulus":"Sounds/gun_sound.wav","key_press":null,"block":1,"trial_type":"audio-keyboard-response","trial_index":188,"time_elapsed":1862006,"internal_node_id":"0.0-13.0-0.34","match_key":"a","participant_id":"COGS219_2020_34"},{"rt":null,"stimulus":"<p style=\"font-size: 48px;\">+</p>","key_press":null,"block":1,"trial_type":"html-keyboard-response","trial_index":189,"time_elapsed":1862998,"internal_node_id":"0.0-13.0-1.34","match_key":"a","participant_id":"COGS219_2020_34"},{"rt":652.3449999513105,"stimulus":"Images/cow_3.png","key_press":76,"stim_onset":1583009582592,"block":1,"match_type":"non-match","image_category":"cow","sound_category":"gun","audio_type":"sound","phase":"test","trial_type":"image-keyboard-response","trial_index":190,"time_elapsed":1863652,"internal_node_id":"0.0-13.0-2.34","match_key":"a","participant_id":"COGS219_2020_34","correct":true},{"rt":null,"stimulus":"Sounds/correct.wav","key_press":null,"block":1,"trial_type":"audio-keyboard-response","trial_index":191,"time_elapsed":1865669,"internal_node_id":"0.0-13.0-3.34","match_key":"a","participant_id":"COGS219_2020_34"},{"rt":null,"stimulus":"Sounds/motorcycle_sound.wav","key_press":null,"block":1,"trial_type":"audio-keyboard-response","trial_index":192,"time_elapsed":1866786,"internal_node_id":"0.0-13.0-0.35","match_key":"a","participant_id":"COGS219_2020_34"},{"rt":null,"stimulus":"<p style=\"font-size: 48px;\">+</p>","key_press":null,"block":1,"trial_type":"html-keyboard-response","trial_index":193,"time_elapsed":1867782,"internal_node_id":"0.0-13.0-1.35","match_key":"a","participant_id":"COGS219_2020_34"},{"rt":900.8450000546873,"stimulus":"Images/motorcycle_1.png","key_press":65,"stim_onset":1583009587375,"block":1,"match_type":"match","image_category":"motorcycle","sound_category":"motorcycle","audio_type":"sound","phase":"test","trial_type":"image-keyboard-response","trial_index":194,"time_elapsed":1868684,"internal_node_id":"0.0-13.0-2.35","match_key":"a","participant_id":"COGS219_2020_34","correct":true},{"rt":null,"stimulus":"Sounds/correct.wav","key_press":null,"block":1,"trial_type":"audio-keyboard-response","trial_index":195,"time_elapsed":1870687,"internal_node_id":"0.0-13.0-3.35","match_key":"a","participant_id":"COGS219_2020_34"},{"rt":null,"stimulus":"Sounds/motorcycle_sound.wav","key_press":null,"block":1,"trial_type":"audio-keyboard-response","trial_index":196,"time_elapsed":1871786,"internal_node_id":"0.0-13.0-0.36","match_key":"a","participant_id":"COGS219_2020_34"},{"rt":null,"stimulus":"<p style=\"font-size: 48px;\">+</p>","key_press":null,"block":1,"trial_type":"html-keyboard-response","trial_index":197,"time_elapsed":1872782,"internal_node_id":"0.0-13.0-1.36","match_key":"a","participant_id":"COGS219_2020_34"},{"rt":964.6349999820814,"stimulus":"Images/rooster_orig.png","key_press":76,"stim_onset":1583009592375,"block":1,"match_type":"non-match","image_category":"rooster","sound_category":"motorcycle","audio_type":"sound","phase":"test","trial_type":"image-keyboard-response","trial_index":198,"time_elapsed":1873748,"internal_node_id":"0.0-13.0-2.36","match_key":"a","participant_id":"COGS219_2020_34","correct":true},{"rt":null,"stimulus":"Sounds/correct.wav","key_press":null,"block":1,"trial_type":"audio-keyboard-response","trial_index":199,"time_elapsed":1875759,"internal_node_id":"0.0-13.0-3.36","match_key":"a","participant_id":"COGS219_2020_34"},{"rt":null,"stimulus":"Sounds/rooster_sound.wav","key_press":null,"block":1,"trial_type":"audio-keyboard-response","trial_index":200,"time_elapsed":1876466,"internal_node_id":"0.0-13.0-0.37","match_key":"a","participant_id":"COGS219_2020_34"},{"rt":null,"stimulus":"<p style=\"font-size: 48px;\">+</p>","key_press":null,"block":1,"trial_type":"html-keyboard-response","trial_index":201,"time_elapsed":1877465,"internal_node_id":"0.0-13.0-1.37","match_key":"a","participant_id":"COGS219_2020_34"},{"rt":1177.2999999811873,"stimulus":"Images/rooster_2.png","key_press":65,"stim_onset":1583009597059,"block":1,"match_type":"match","image_category":"rooster","sound_category":"rooster","audio_type":"sound","phase":"test","trial_type":"image-keyboard-response","trial_index":202,"time_elapsed":1878644,"internal_node_id":"0.0-13.0-2.37","match_key":"a","participant_id":"COGS219_2020_34","correct":true},{"rt":null,"stimulus":"Sounds/correct.wav","key_press":null,"block":1,"trial_type":"audio-keyboard-response","trial_index":203,"time_elapsed":1880652,"internal_node_id":"0.0-13.0-3.37","match_key":"a","participant_id":"COGS219_2020_34"},{"rt":null,"stimulus":"Sounds/train_label.wav","key_press":null,"block":1,"trial_type":"audio-keyboard-response","trial_index":204,"time_elapsed":1881927,"internal_node_id":"0.0-13.0-0.38","match_key":"a","participant_id":"COGS219_2020_34"},{"rt":null,"stimulus":"<p style=\"font-size: 48px;\">+</p>","key_press":null,"block":1,"trial_type":"html-keyboard-response","trial_index":205,"time_elapsed":1882933,"internal_node_id":"0.0-13.0-1.38","match_key":"a","participant_id":"COGS219_2020_34"},{"rt":1902.659999905154,"stimulus":"Images/train_2.png","key_press":65,"stim_onset":1583009602526,"block":1,"match_type":"match","image_category":"train","sound_category":"train","audio_type":"label","phase":"test","trial_type":"image-keyboard-response","trial_index":206,"time_elapsed":1884837,"internal_node_id":"0.0-13.0-2.38","match_key":"a","participant_id":"COGS219_2020_34","correct":true},{"rt":null,"stimulus":"Sounds/correct.wav","key_press":null,"block":1,"trial_type":"audio-keyboard-response","trial_index":207,"time_elapsed":1886841,"internal_node_id":"0.0-13.0-3.38","match_key":"a","participant_id":"COGS219_2020_34"},{"rt":null,"stimulus":"Sounds/car_sound.wav","key_press":null,"block":1,"trial_type":"audio-keyboard-response","trial_index":208,"time_elapsed":1887927,"internal_node_id":"0.0-13.0-0.39","match_key":"a","participant_id":"COGS219_2020_34"},{"rt":null,"stimulus":"<p style=\"font-size: 48px;\">+</p>","key_press":null,"block":1,"trial_type":"html-keyboard-response","trial_index":209,"time_elapsed":1888933,"internal_node_id":"0.0-13.0-1.39","match_key":"a","participant_id":"COGS219_2020_34"},{"rt":1045.9299999056384,"stimulus":"Images/car_2.png","key_press":65,"stim_onset":1583009608526,"block":1,"match_type":"match","image_category":"car","sound_category":"car","audio_type":"sound","phase":"test","trial_type":"image-keyboard-response","trial_index":210,"time_elapsed":1889981,"internal_node_id":"0.0-13.0-2.39","match_key":"a","participant_id":"COGS219_2020_34","correct":true},{"rt":null,"stimulus":"Sounds/correct.wav","key_press":null,"block":1,"trial_type":"audio-keyboard-response","trial_index":211,"time_elapsed":1891988,"internal_node_id":"0.0-13.0-3.39","match_key":"a","participant_id":"COGS219_2020_34"},{"rt":null,"stimulus":"Sounds/whistle_sound.wav","key_press":null,"block":1,"trial_type":"audio-keyboard-response","trial_index":212,"time_elapsed":1892687,"internal_node_id":"0.0-13.0-0.40","match_key":"a","participant_id":"COGS219_2020_34"},{"rt":null,"stimulus":"<p style=\"font-size: 48px;\">+</p>","key_press":null,"block":1,"trial_type":"html-keyboard-response","trial_index":213,"time_elapsed":1893683,"internal_node_id":"0.0-13.0-1.40","match_key":"a","participant_id":"COGS219_2020_34"},{"rt":1193.0899999570101,"stimulus":"Images/whistle_3.png","key_press":65,"stim_onset":1583009613276,"block":1,"match_type":"match","image_category":"whistle","sound_category":"whistle","audio_type":"sound","phase":"test","trial_type":"image-keyboard-response","trial_index":214,"time_elapsed":1894877,"internal_node_id":"0.0-13.0-2.40","match_key":"a","participant_id":"COGS219_2020_34","correct":true},{"rt":null,"stimulus":"Sounds/correct.wav","key_press":null,"block":1,"trial_type":"audio-keyboard-response","trial_index":215,"time_elapsed":1896887,"internal_node_id":"0.0-13.0-3.40","match_key":"a","participant_id":"COGS219_2020_34"},{"rt":null,"stimulus":"Sounds/cat_sound.wav","key_press":null,"block":1,"trial_type":"audio-keyboard-response","trial_index":216,"time_elapsed":1897727,"internal_node_id":"0.0-13.0-0.41","match_key":"a","participant_id":"COGS219_2020_34"},{"rt":null,"stimulus":"<p style=\"font-size: 48px;\">+</p>","key_press":null,"block":1,"trial_type":"html-keyboard-response","trial_index":217,"time_elapsed":1898716,"internal_node_id":"0.0-13.0-1.41","match_key":"a","participant_id":"COGS219_2020_34"},{"rt":1135.3200000012293,"stimulus":"Images/frog_orig.png","key_press":76,"stim_onset":1583009618310,"block":1,"match_type":"non-match","image_category":"frog","sound_category":"cat","audio_type":"sound","phase":"test","trial_type":"image-keyboard-response","trial_index":218,"time_elapsed":1899853,"internal_node_id":"0.0-13.0-2.41","match_key":"a","participant_id":"COGS219_2020_34","correct":true},{"rt":null,"stimulus":"Sounds/correct.wav","key_press":null,"block":1,"trial_type":"audio-keyboard-response","trial_index":219,"time_elapsed":1901856,"internal_node_id":"0.0-13.0-3.41","match_key":"a","participant_id":"COGS219_2020_34"},{"rt":null,"stimulus":"Sounds/dog_label.wav","key_press":null,"block":1,"trial_type":"audio-keyboard-response","trial_index":220,"time_elapsed":1902527,"internal_node_id":"0.0-13.0-0.42","match_key":"a","participant_id":"COGS219_2020_34"},{"rt":null,"stimulus":"<p style=\"font-size: 48px;\">+</p>","key_press":null,"block":1,"trial_type":"html-keyboard-response","trial_index":221,"time_elapsed":1903516,"internal_node_id":"0.0-13.0-1.42","match_key":"a","participant_id":"COGS219_2020_34"},{"rt":871.2650000816211,"stimulus":"Images/frog_2.png","key_press":76,"stim_onset":1583009623110,"block":1,"match_type":"non-match","image_category":"frog","sound_category":"dog","audio_type":"label","phase":"test","trial_type":"image-keyboard-response","trial_index":222,"time_elapsed":1904389,"internal_node_id":"0.0-13.0-2.42","match_key":"a","participant_id":"COGS219_2020_34","correct":true},{"rt":null,"stimulus":"Sounds/correct.wav","key_press":null,"block":1,"trial_type":"audio-keyboard-response","trial_index":223,"time_elapsed":1906404,"internal_node_id":"0.0-13.0-3.42","match_key":"a","participant_id":"COGS219_2020_34"},{"rt":null,"stimulus":"Sounds/dog_sound.wav","key_press":null,"block":1,"trial_type":"audio-keyboard-response","trial_index":224,"time_elapsed":1907107,"internal_node_id":"0.0-13.0-0.43","match_key":"a","participant_id":"COGS219_2020_34"},{"rt":null,"stimulus":"<p style=\"font-size: 48px;\">+</p>","key_press":null,"block":1,"trial_type":"html-keyboard-response","trial_index":225,"time_elapsed":1908100,"internal_node_id":"0.0-13.0-1.43","match_key":"a","participant_id":"COGS219_2020_34"},{"rt":959.6649999730289,"stimulus":"Images/dog_orig.png","key_press":65,"stim_onset":1583009627693,"block":1,"match_type":"match","image_category":"dog","sound_category":"dog","audio_type":"sound","phase":"test","trial_type":"image-keyboard-response","trial_index":226,"time_elapsed":1909061,"internal_node_id":"0.0-13.0-2.43","match_key":"a","participant_id":"COGS219_2020_34","correct":true},{"rt":null,"stimulus":"Sounds/correct.wav","key_press":null,"block":1,"trial_type":"audio-keyboard-response","trial_index":227,"time_elapsed":1911070,"internal_node_id":"0.0-13.0-3.43","match_key":"a","participant_id":"COGS219_2020_34"},{"rt":null,"stimulus":"Sounds/whistle_label.wav","key_press":null,"block":1,"trial_type":"audio-keyboard-response","trial_index":228,"time_elapsed":1911767,"internal_node_id":"0.0-13.0-0.44","match_key":"a","participant_id":"COGS219_2020_34"},{"rt":null,"stimulus":"<p style=\"font-size: 48px;\">+</p>","key_press":null,"block":1,"trial_type":"html-keyboard-response","trial_index":229,"time_elapsed":1912766,"internal_node_id":"0.0-13.0-1.44","match_key":"a","participant_id":"COGS219_2020_34"},{"rt":1381.0300000477582,"stimulus":"Images/gun_orig.png","key_press":76,"stim_onset":1583009632360,"block":1,"match_type":"non-match","image_category":"gun","sound_category":"whistle","audio_type":"label","phase":"test","trial_type":"image-keyboard-response","trial_index":230,"time_elapsed":1914149,"internal_node_id":"0.0-13.0-2.44","match_key":"a","participant_id":"COGS219_2020_34","correct":true},{"rt":null,"stimulus":"Sounds/correct.wav","key_press":null,"block":1,"trial_type":"audio-keyboard-response","trial_index":231,"time_elapsed":1916157,"internal_node_id":"0.0-13.0-3.44","match_key":"a","participant_id":"COGS219_2020_34"},{"rt":null,"stimulus":"Sounds/car_sound.wav","key_press":null,"block":1,"trial_type":"audio-keyboard-response","trial_index":232,"time_elapsed":1917247,"internal_node_id":"0.0-13.0-0.45","match_key":"a","participant_id":"COGS219_2020_34"},{"rt":null,"stimulus":"<p style=\"font-size: 48px;\">+</p>","key_press":null,"block":1,"trial_type":"html-keyboard-response","trial_index":233,"time_elapsed":1918250,"internal_node_id":"0.0-13.0-1.45","match_key":"a","participant_id":"COGS219_2020_34"},{"rt":1794.539999915287,"stimulus":"Images/whistle_cartoon.png","key_press":76,"stim_onset":1583009637843,"block":1,"match_type":"non-match","image_category":"whistle","sound_category":"car","audio_type":"sound","phase":"test","trial_type":"image-keyboard-response","trial_index":234,"time_elapsed":1920045,"internal_node_id":"0.0-13.0-2.45","match_key":"a","participant_id":"COGS219_2020_34","correct":true},{"rt":null,"stimulus":"Sounds/correct.wav","key_press":null,"block":1,"trial_type":"audio-keyboard-response","trial_index":235,"time_elapsed":1922058,"internal_node_id":"0.0-13.0-3.45","match_key":"a","participant_id":"COGS219_2020_34"},{"rt":null,"stimulus":"Sounds/dog_sound.wav","key_press":null,"block":1,"trial_type":"audio-keyboard-response","trial_index":236,"time_elapsed":1922747,"internal_node_id":"0.0-13.0-0.46","match_key":"a","participant_id":"COGS219_2020_34"},{"rt":null,"stimulus":"<p style=\"font-size: 48px;\">+</p>","key_press":null,"block":1,"trial_type":"html-keyboard-response","trial_index":237,"time_elapsed":1923750,"internal_node_id":"0.0-13.0-1.46","match_key":"a","participant_id":"COGS219_2020_34"},{"rt":989.5150000229478,"stimulus":"Images/dog_cartoon.png","key_press":65,"stim_onset":1583009643343,"block":1,"match_type":"match","image_category":"dog","sound_category":"dog","audio_type":"sound","phase":"test","trial_type":"image-keyboard-response","trial_index":238,"time_elapsed":1924741,"internal_node_id":"0.0-13.0-2.46","match_key":"a","participant_id":"COGS219_2020_34","correct":true},{"rt":null,"stimulus":"Sounds/correct.wav","key_press":null,"block":1,"trial_type":"audio-keyboard-response","trial_index":239,"time_elapsed":1926756,"internal_node_id":"0.0-13.0-3.46","match_key":"a","participant_id":"COGS219_2020_34"},{"rt":null,"stimulus":"Sounds/train_label.wav","key_press":null,"block":1,"trial_type":"audio-keyboard-response","trial_index":240,"time_elapsed":1928047,"internal_node_id":"0.0-13.0-0.47","match_key":"a","participant_id":"COGS219_2020_34"},{"rt":null,"stimulus":"<p style=\"font-size: 48px;\">+</p>","key_press":null,"block":1,"trial_type":"html-keyboard-response","trial_index":241,"time_elapsed":1929050,"internal_node_id":"0.0-13.0-1.47","match_key":"a","participant_id":"COGS219_2020_34"},{"rt":1097.514999913983,"stimulus":"Images/train_cartoon.png","key_press":65,"stim_onset":1583009648643,"block":1,"match_type":"match","image_category":"train","sound_category":"train","audio_type":"label","phase":"test","trial_type":"image-keyboard-response","trial_index":242,"time_elapsed":1930149,"internal_node_id":"0.0-13.0-2.47","match_key":"a","participant_id":"COGS219_2020_34","correct":true},{"rt":null,"stimulus":"Sounds/correct.wav","key_press":null,"block":1,"trial_type":"audio-keyboard-response","trial_index":243,"time_elapsed":1932156,"internal_node_id":"0.0-13.0-3.47","match_key":"a","participant_id":"COGS219_2020_34"},{"rt":null,"stimulus":"Sounds/rooster_label.wav","key_press":null,"block":1,"trial_type":"audio-keyboard-response","trial_index":244,"time_elapsed":1932867,"internal_node_id":"0.0-13.0-0.48","match_key":"a","participant_id":"COGS219_2020_34"},{"rt":null,"stimulus":"<p style=\"font-size: 48px;\">+</p>","key_press":null,"block":1,"trial_type":"html-keyboard-response","trial_index":245,"time_elapsed":1933867,"internal_node_id":"0.0-13.0-1.48","match_key":"a","participant_id":"COGS219_2020_34"},{"rt":1032.8449999215081,"stimulus":"Images/rooster_3.png","key_press":65,"stim_onset":1583009653460,"block":1,"match_type":"match","image_category":"rooster","sound_category":"rooster","audio_type":"label","phase":"test","trial_type":"image-keyboard-response","trial_index":246,"time_elapsed":1934901,"internal_node_id":"0.0-13.0-2.48","match_key":"a","participant_id":"COGS219_2020_34","correct":true},{"rt":null,"stimulus":"Sounds/correct.wav","key_press":null,"block":1,"trial_type":"audio-keyboard-response","trial_index":247,"time_elapsed":1936906,"internal_node_id":"0.0-13.0-3.48","match_key":"a","participant_id":"COGS219_2020_34"},{"rt":null,"stimulus":"Sounds/motorcycle_sound.wav","key_press":null,"block":1,"trial_type":"audio-keyboard-response","trial_index":248,"time_elapsed":1938027,"internal_node_id":"0.0-13.0-0.49","match_key":"a","participant_id":"COGS219_2020_34"},{"rt":null,"stimulus":"<p style=\"font-size: 48px;\">+</p>","key_press":null,"block":1,"trial_type":"html-keyboard-response","trial_index":249,"time_elapsed":1939017,"internal_node_id":"0.0-13.0-1.49","match_key":"a","participant_id":"COGS219_2020_34"},{"rt":1106.7750001093373,"stimulus":"Images/train_1.png","key_press":76,"stim_onset":1583009658610,"block":1,"match_type":"non-match","image_category":"train","sound_category":"motorcycle","audio_type":"sound","phase":"test","trial_type":"image-keyboard-response","trial_index":250,"time_elapsed":1940125,"internal_node_id":"0.0-13.0-2.49","match_key":"a","participant_id":"COGS219_2020_34","correct":true},{"rt":null,"stimulus":"Sounds/correct.wav","key_press":null,"block":1,"trial_type":"audio-keyboard-response","trial_index":251,"time_elapsed":1942137,"internal_node_id":"0.0-13.0-3.49","match_key":"a","participant_id":"COGS219_2020_34"},{"rt":null,"stimulus":"Sounds/gun_sound.wav","key_press":null,"block":1,"trial_type":"audio-keyboard-response","trial_index":252,"time_elapsed":1942728,"internal_node_id":"0.0-13.0-0.50","match_key":"a","participant_id":"COGS219_2020_34"},{"rt":null,"stimulus":"<p style=\"font-size: 48px;\">+</p>","key_press":null,"block":1,"trial_type":"html-keyboard-response","trial_index":253,"time_elapsed":1943717,"internal_node_id":"0.0-13.0-1.50","match_key":"a","participant_id":"COGS219_2020_34"},{"rt":1694.9700000695884,"stimulus":"Images/train_3.png","key_press":76,"stim_onset":1583009663310,"block":1,"match_type":"non-match","image_category":"train","sound_category":"gun","audio_type":"sound","phase":"test","trial_type":"image-keyboard-response","trial_index":254,"time_elapsed":1945413,"internal_node_id":"0.0-13.0-2.50","match_key":"a","participant_id":"COGS219_2020_34","correct":true},{"rt":null,"stimulus":"Sounds/correct.wav","key_press":null,"block":1,"trial_type":"audio-keyboard-response","trial_index":255,"time_elapsed":1947426,"internal_node_id":"0.0-13.0-3.50","match_key":"a","participant_id":"COGS219_2020_34"},{"rt":null,"stimulus":"Sounds/frog_label.wav","key_press":null,"block":1,"trial_type":"audio-keyboard-response","trial_index":256,"time_elapsed":1948328,"internal_node_id":"0.0-13.0-0.51","match_key":"a","participant_id":"COGS219_2020_34"},{"rt":null,"stimulus":"<p style=\"font-size: 48px;\">+</p>","key_press":null,"block":1,"trial_type":"html-keyboard-response","trial_index":257,"time_elapsed":1949317,"internal_node_id":"0.0-13.0-1.51","match_key":"a","participant_id":"COGS219_2020_34"},{"rt":1110.744999954477,"stimulus":"Images/car_orig.png","key_press":76,"stim_onset":1583009668911,"block":1,"match_type":"non-match","image_category":"car","sound_category":"frog","audio_type":"label","phase":"test","trial_type":"image-keyboard-response","trial_index":258,"time_elapsed":1950429,"internal_node_id":"0.0-13.0-2.51","match_key":"a","participant_id":"COGS219_2020_34","correct":true},{"rt":null,"stimulus":"Sounds/correct.wav","key_press":null,"block":1,"trial_type":"audio-keyboard-response","trial_index":259,"time_elapsed":1952438,"internal_node_id":"0.0-13.0-3.51","match_key":"a","participant_id":"COGS219_2020_34"},{"rt":null,"stimulus":"Sounds/whistle_label.wav","key_press":null,"block":1,"trial_type":"audio-keyboard-response","trial_index":260,"time_elapsed":1953148,"internal_node_id":"0.0-13.0-0.52","match_key":"a","participant_id":"COGS219_2020_34"},{"rt":null,"stimulus":"<p style=\"font-size: 48px;\">+</p>","key_press":null,"block":1,"trial_type":"html-keyboard-response","trial_index":261,"time_elapsed":1954151,"internal_node_id":"0.0-13.0-1.52","match_key":"a","participant_id":"COGS219_2020_34"},{"rt":1005.1349999848753,"stimulus":"Images/whistle_orig.png","key_press":76,"stim_onset":1583009673744,"block":1,"match_type":"match","image_category":"whistle","sound_category":"whistle","audio_type":"label","phase":"test","trial_type":"image-keyboard-response","trial_index":262,"time_elapsed":1955157,"internal_node_id":"0.0-13.0-2.52","match_key":"a","participant_id":"COGS219_2020_34","correct":false},{"rt":null,"stimulus":"Sounds/incorrect.wav","key_press":null,"block":1,"trial_type":"audio-keyboard-response","trial_index":263,"time_elapsed":1957171,"internal_node_id":"0.0-13.0-3.52","match_key":"a","participant_id":"COGS219_2020_34"},{"rt":null,"stimulus":"Sounds/car_label.wav","key_press":null,"block":1,"trial_type":"audio-keyboard-response","trial_index":264,"time_elapsed":1958248,"internal_node_id":"0.0-13.0-0.53","match_key":"a","participant_id":"COGS219_2020_34"},{"rt":null,"stimulus":"<p style=\"font-size: 48px;\">+</p>","key_press":null,"block":1,"trial_type":"html-keyboard-response","trial_index":265,"time_elapsed":1959251,"internal_node_id":"0.0-13.0-1.53","match_key":"a","participant_id":"COGS219_2020_34"},{"rt":1041.2400000495836,"stimulus":"Images/car_cartoon.png","key_press":65,"stim_onset":1583009678844,"block":1,"match_type":"match","image_category":"car","sound_category":"car","audio_type":"label","phase":"test","trial_type":"image-keyboard-response","trial_index":266,"time_elapsed":1960293,"internal_node_id":"0.0-13.0-2.53","match_key":"a","participant_id":"COGS219_2020_34","correct":true},{"rt":null,"stimulus":"Sounds/correct.wav","key_press":null,"block":1,"trial_type":"audio-keyboard-response","trial_index":267,"time_elapsed":1962304,"internal_node_id":"0.0-13.0-3.53","match_key":"a","participant_id":"COGS219_2020_34"},{"rt":null,"stimulus":"Sounds/cat_sound.wav","key_press":null,"block":1,"trial_type":"audio-keyboard-response","trial_index":268,"time_elapsed":1963148,"internal_node_id":"0.0-13.0-0.54","match_key":"a","participant_id":"COGS219_2020_34"},{"rt":null,"stimulus":"<p style=\"font-size: 48px;\">+</p>","key_press":null,"block":1,"trial_type":"html-keyboard-response","trial_index":269,"time_elapsed":1964151,"internal_node_id":"0.0-13.0-1.54","match_key":"a","participant_id":"COGS219_2020_34"},{"rt":973.1700000120327,"stimulus":"Images/car_3.png","key_press":76,"stim_onset":1583009683744,"block":1,"match_type":"non-match","image_category":"car","sound_category":"cat","audio_type":"sound","phase":"test","trial_type":"image-keyboard-response","trial_index":270,"time_elapsed":1965125,"internal_node_id":"0.0-13.0-2.54","match_key":"a","participant_id":"COGS219_2020_34","correct":true},{"rt":null,"stimulus":"Sounds/correct.wav","key_press":null,"block":1,"trial_type":"audio-keyboard-response","trial_index":271,"time_elapsed":1967138,"internal_node_id":"0.0-13.0-3.54","match_key":"a","participant_id":"COGS219_2020_34"},{"rt":null,"stimulus":"Sounds/motorcycle_sound.wav","key_press":null,"block":1,"trial_type":"audio-keyboard-response","trial_index":272,"time_elapsed":1968268,"internal_node_id":"0.0-13.0-0.55","match_key":"a","participant_id":"COGS219_2020_34"},{"rt":null,"stimulus":"<p style=\"font-size: 48px;\">+</p>","key_press":null,"block":1,"trial_type":"html-keyboard-response","trial_index":273,"time_elapsed":1969267,"internal_node_id":"0.0-13.0-1.55","match_key":"a","participant_id":"COGS219_2020_34"},{"rt":1312.7450000029057,"stimulus":"Images/motorcycle_2.png","key_press":65,"stim_onset":1583009688861,"block":1,"match_type":"match","image_category":"motorcycle","sound_category":"motorcycle","audio_type":"sound","phase":"test","trial_type":"image-keyboard-response","trial_index":274,"time_elapsed":1970581,"internal_node_id":"0.0-13.0-2.55","match_key":"a","participant_id":"COGS219_2020_34","correct":true},{"rt":null,"stimulus":"Sounds/correct.wav","key_press":null,"block":1,"trial_type":"audio-keyboard-response","trial_index":275,"time_elapsed":1972590,"internal_node_id":"0.0-13.0-3.55","match_key":"a","participant_id":"COGS219_2020_34"},{"rt":null,"stimulus":"Sounds/cat_label.wav","key_press":null,"block":1,"trial_type":"audio-keyboard-response","trial_index":276,"time_elapsed":1973427,"internal_node_id":"0.0-13.0-0.56","match_key":"a","participant_id":"COGS219_2020_34"},{"rt":null,"stimulus":"<p style=\"font-size: 48px;\">+</p>","key_press":null,"block":1,"trial_type":"html-keyboard-response","trial_index":277,"time_elapsed":1974418,"internal_node_id":"0.0-13.0-1.56","match_key":"a","participant_id":"COGS219_2020_34"},{"rt":882.3749999282882,"stimulus":"Images/cat_cartoon.png","key_press":65,"stim_onset":1583009694011,"block":1,"match_type":"match","image_category":"cat","sound_category":"cat","audio_type":"label","phase":"test","trial_type":"image-keyboard-response","trial_index":278,"time_elapsed":1975301,"internal_node_id":"0.0-13.0-2.56","match_key":"a","participant_id":"COGS219_2020_34","correct":true},{"rt":null,"stimulus":"Sounds/correct.wav","key_press":null,"block":1,"trial_type":"audio-keyboard-response","trial_index":279,"time_elapsed":1977305,"internal_node_id":"0.0-13.0-3.56","match_key":"a","participant_id":"COGS219_2020_34"},{"rt":null,"stimulus":"Sounds/gun_label.wav","key_press":null,"block":1,"trial_type":"audio-keyboard-response","trial_index":280,"time_elapsed":1977887,"internal_node_id":"0.0-13.0-0.57","match_key":"a","participant_id":"COGS219_2020_34"},{"rt":null,"stimulus":"<p style=\"font-size: 48px;\">+</p>","key_press":null,"block":1,"trial_type":"html-keyboard-response","trial_index":281,"time_elapsed":1978884,"internal_node_id":"0.0-13.0-1.57","match_key":"a","participant_id":"COGS219_2020_34"},{"rt":1199.7049999190494,"stimulus":"Images/car_1.png","key_press":76,"stim_onset":1583009698477,"block":1,"match_type":"non-match","image_category":"car","sound_category":"gun","audio_type":"label","phase":"test","trial_type":"image-keyboard-response","trial_index":282,"time_elapsed":1980085,"internal_node_id":"0.0-13.0-2.57","match_key":"a","participant_id":"COGS219_2020_34","correct":true},{"rt":null,"stimulus":"Sounds/correct.wav","key_press":null,"block":1,"trial_type":"audio-keyboard-response","trial_index":283,"time_elapsed":1982097,"internal_node_id":"0.0-13.0-3.57","match_key":"a","participant_id":"COGS219_2020_34"},{"rt":null,"stimulus":"Sounds/rooster_label.wav","key_press":null,"block":1,"trial_type":"audio-keyboard-response","trial_index":284,"time_elapsed":1982807,"internal_node_id":"0.0-13.0-0.58","match_key":"a","participant_id":"COGS219_2020_34"},{"rt":null,"stimulus":"<p style=\"font-size: 48px;\">+</p>","key_press":null,"block":1,"trial_type":"html-keyboard-response","trial_index":285,"time_elapsed":1983801,"internal_node_id":"0.0-13.0-1.58","match_key":"a","participant_id":"COGS219_2020_34"},{"rt":1202.9399999883026,"stimulus":"Images/whistle_3.png","key_press":76,"stim_onset":1583009703394,"block":1,"match_type":"non-match","image_category":"whistle","sound_category":"rooster","audio_type":"label","phase":"test","trial_type":"image-keyboard-response","trial_index":286,"time_elapsed":1985005,"internal_node_id":"0.0-13.0-2.58","match_key":"a","participant_id":"COGS219_2020_34","correct":true},{"rt":null,"stimulus":"Sounds/correct.wav","key_press":null,"block":1,"trial_type":"audio-keyboard-response","trial_index":287,"time_elapsed":1987023,"internal_node_id":"0.0-13.0-3.58","match_key":"a","participant_id":"COGS219_2020_34"},{"rt":null,"stimulus":"Sounds/train_label.wav","key_press":null,"block":1,"trial_type":"audio-keyboard-response","trial_index":288,"time_elapsed":1988308,"internal_node_id":"0.0-13.0-0.59","match_key":"a","participant_id":"COGS219_2020_34"},{"rt":null,"stimulus":"<p style=\"font-size: 48px;\">+</p>","key_press":null,"block":1,"trial_type":"html-keyboard-response","trial_index":289,"time_elapsed":1989301,"internal_node_id":"0.0-13.0-1.59","match_key":"a","participant_id":"COGS219_2020_34"},{"rt":958.9600000763312,"stimulus":"Images/cat_1.png","key_press":76,"stim_onset":1583009708894,"block":1,"match_type":"non-match","image_category":"cat","sound_category":"train","audio_type":"label","phase":"test","trial_type":"image-keyboard-response","trial_index":290,"time_elapsed":1990261,"internal_node_id":"0.0-13.0-2.59","match_key":"a","participant_id":"COGS219_2020_34","correct":true},{"rt":null,"stimulus":"Sounds/correct.wav","key_press":null,"block":1,"trial_type":"audio-keyboard-response","trial_index":291,"time_elapsed":1992271,"internal_node_id":"0.0-13.0-3.59","match_key":"a","participant_id":"COGS219_2020_34"},{"rt":null,"stimulus":"Sounds/rooster_sound.wav","key_press":null,"block":1,"trial_type":"audio-keyboard-response","trial_index":292,"time_elapsed":1992967,"internal_node_id":"0.0-13.0-0.60","match_key":"a","participant_id":"COGS219_2020_34"},{"rt":null,"stimulus":"<p style=\"font-size: 48px;\">+</p>","key_press":null,"block":1,"trial_type":"html-keyboard-response","trial_index":293,"time_elapsed":1993968,"internal_node_id":"0.0-13.0-1.60","match_key":"a","participant_id":"COGS219_2020_34"},{"rt":876.1999999405816,"stimulus":"Images/rooster_1.png","key_press":65,"stim_onset":1583009713561,"block":1,"match_type":"match","image_category":"rooster","sound_category":"rooster","audio_type":"sound","phase":"test","trial_type":"image-keyboard-response","trial_index":294,"time_elapsed":1994845,"internal_node_id":"0.0-13.0-2.60","match_key":"a","participant_id":"COGS219_2020_34","correct":true},{"rt":null,"stimulus":"Sounds/correct.wav","key_press":null,"block":1,"trial_type":"audio-keyboard-response","trial_index":295,"time_elapsed":1996854,"internal_node_id":"0.0-13.0-3.60","match_key":"a","participant_id":"COGS219_2020_34"},{"rt":null,"stimulus":"Sounds/train_label.wav","key_press":null,"block":1,"trial_type":"audio-keyboard-response","trial_index":296,"time_elapsed":1998108,"internal_node_id":"0.0-13.0-0.61","match_key":"a","participant_id":"COGS219_2020_34"},{"rt":null,"stimulus":"<p style=\"font-size: 48px;\">+</p>","key_press":null,"block":1,"trial_type":"html-keyboard-response","trial_index":297,"time_elapsed":1999101,"internal_node_id":"0.0-13.0-1.61","match_key":"a","participant_id":"COGS219_2020_34"},{"rt":1166.9950000941753,"stimulus":"Images/cow_2.png","key_press":76,"stim_onset":1583009718694,"block":1,"match_type":"non-match","image_category":"cow","sound_category":"train","audio_type":"label","phase":"test","trial_type":"image-keyboard-response","trial_index":298,"time_elapsed":2000269,"internal_node_id":"0.0-13.0-2.61","match_key":"a","participant_id":"COGS219_2020_34","correct":true},{"rt":null,"stimulus":"Sounds/correct.wav","key_press":null,"block":1,"trial_type":"audio-keyboard-response","trial_index":299,"time_elapsed":2002277,"internal_node_id":"0.0-13.0-3.61","match_key":"a","participant_id":"COGS219_2020_34"},{"rt":null,"stimulus":"Sounds/train_sound.wav","key_press":null,"block":1,"trial_type":"audio-keyboard-response","trial_index":300,"time_elapsed":2003588,"internal_node_id":"0.0-13.0-0.62","match_key":"a","participant_id":"COGS219_2020_34"},{"rt":null,"stimulus":"<p style=\"font-size: 48px;\">+</p>","key_press":null,"block":1,"trial_type":"html-keyboard-response","trial_index":301,"time_elapsed":2004585,"internal_node_id":"0.0-13.0-1.62","match_key":"a","participant_id":"COGS219_2020_34"},{"rt":755.4000000236556,"stimulus":"Images/train_3.png","key_press":65,"stim_onset":1583009724178,"block":1,"match_type":"match","image_category":"train","sound_category":"train","audio_type":"sound","phase":"test","trial_type":"image-keyboard-response","trial_index":302,"time_elapsed":2005342,"internal_node_id":"0.0-13.0-2.62","match_key":"a","participant_id":"COGS219_2020_34","correct":true},{"rt":null,"stimulus":"Sounds/correct.wav","key_press":null,"block":1,"trial_type":"audio-keyboard-response","trial_index":303,"time_elapsed":2007356,"internal_node_id":"0.0-13.0-3.62","match_key":"a","participant_id":"COGS219_2020_34"},{"rt":null,"stimulus":"Sounds/cow_label.wav","key_press":null,"block":1,"trial_type":"audio-keyboard-response","trial_index":304,"time_elapsed":2008388,"internal_node_id":"0.0-13.0-0.63","match_key":"a","participant_id":"COGS219_2020_34"},{"rt":null,"stimulus":"<p style=\"font-size: 48px;\">+</p>","key_press":null,"block":1,"trial_type":"html-keyboard-response","trial_index":305,"time_elapsed":2009385,"internal_node_id":"0.0-13.0-1.63","match_key":"a","participant_id":"COGS219_2020_34"},{"rt":955.3800000576302,"stimulus":"Images/cow_1.png","key_press":65,"stim_onset":1583009728979,"block":1,"match_type":"match","image_category":"cow","sound_category":"cow","audio_type":"label","phase":"test","trial_type":"image-keyboard-response","trial_index":306,"time_elapsed":2010342,"internal_node_id":"0.0-13.0-2.63","match_key":"a","participant_id":"COGS219_2020_34","correct":true},{"rt":null,"stimulus":"Sounds/correct.wav","key_press":null,"block":1,"trial_type":"audio-keyboard-response","trial_index":307,"time_elapsed":2012356,"internal_node_id":"0.0-13.0-3.63","match_key":"a","participant_id":"COGS219_2020_34"},{"rt":null,"stimulus":"Sounds/whistle_label.wav","key_press":null,"block":1,"trial_type":"audio-keyboard-response","trial_index":308,"time_elapsed":2013048,"internal_node_id":"0.0-13.0-0.64","match_key":"a","participant_id":"COGS219_2020_34"},{"rt":null,"stimulus":"<p style=\"font-size: 48px;\">+</p>","key_press":null,"block":1,"trial_type":"html-keyboard-response","trial_index":309,"time_elapsed":2014052,"internal_node_id":"0.0-13.0-1.64","match_key":"a","participant_id":"COGS219_2020_34"},{"rt":776.6249999403954,"stimulus":"Images/whistle_2.png","key_press":65,"stim_onset":1583009733645,"block":1,"match_type":"match","image_category":"whistle","sound_category":"whistle","audio_type":"label","phase":"test","trial_type":"image-keyboard-response","trial_index":310,"time_elapsed":2014830,"internal_node_id":"0.0-13.0-2.64","match_key":"a","participant_id":"COGS219_2020_34","correct":true},{"rt":null,"stimulus":"Sounds/correct.wav","key_press":null,"block":1,"trial_type":"audio-keyboard-response","trial_index":311,"time_elapsed":2016839,"internal_node_id":"0.0-13.0-3.64","match_key":"a","participant_id":"COGS219_2020_34"},{"rt":null,"stimulus":"Sounds/car_label.wav","key_press":null,"block":1,"trial_type":"audio-keyboard-response","trial_index":312,"time_elapsed":2017928,"internal_node_id":"0.0-13.0-0.65","match_key":"a","participant_id":"COGS219_2020_34"},{"rt":null,"stimulus":"<p style=\"font-size: 48px;\">+</p>","key_press":null,"block":1,"trial_type":"html-keyboard-response","trial_index":313,"time_elapsed":2018919,"internal_node_id":"0.0-13.0-1.65","match_key":"a","participant_id":"COGS219_2020_34"},{"rt":806.1699999962002,"stimulus":"Images/car_orig.png","key_press":65,"stim_onset":1583009738512,"block":1,"match_type":"match","image_category":"car","sound_category":"car","audio_type":"label","phase":"test","trial_type":"image-keyboard-response","trial_index":314,"time_elapsed":2019726,"internal_node_id":"0.0-13.0-2.65","match_key":"a","participant_id":"COGS219_2020_34","correct":true},{"rt":null,"stimulus":"Sounds/correct.wav","key_press":null,"block":1,"trial_type":"audio-keyboard-response","trial_index":315,"time_elapsed":2021741,"internal_node_id":"0.0-13.0-3.65","match_key":"a","participant_id":"COGS219_2020_34"},{"rt":null,"stimulus":"Sounds/frog_sound.wav","key_press":null,"block":1,"trial_type":"audio-keyboard-response","trial_index":316,"time_elapsed":2022648,"internal_node_id":"0.0-13.0-0.66","match_key":"a","participant_id":"COGS219_2020_34"},{"rt":null,"stimulus":"<p style=\"font-size: 48px;\">+</p>","key_press":null,"block":1,"trial_type":"html-keyboard-response","trial_index":317,"time_elapsed":2023652,"internal_node_id":"0.0-13.0-1.66","match_key":"a","participant_id":"COGS219_2020_34"},{"rt":1048.3600000152364,"stimulus":"Images/frog_3.png","key_press":65,"stim_onset":1583009743245,"block":1,"match_type":"match","image_category":"frog","sound_category":"frog","audio_type":"sound","phase":"test","trial_type":"image-keyboard-response","trial_index":318,"time_elapsed":2024702,"internal_node_id":"0.0-13.0-2.66","match_key":"a","participant_id":"COGS219_2020_34","correct":true},{"rt":null,"stimulus":"Sounds/correct.wav","key_press":null,"block":1,"trial_type":"audio-keyboard-response","trial_index":319,"time_elapsed":2026708,"internal_node_id":"0.0-13.0-3.66","match_key":"a","participant_id":"COGS219_2020_34"},{"rt":null,"stimulus":"Sounds/gun_label.wav","key_press":null,"block":1,"trial_type":"audio-keyboard-response","trial_index":320,"time_elapsed":2027288,"internal_node_id":"0.0-13.0-0.67","match_key":"a","participant_id":"COGS219_2020_34"},{"rt":null,"stimulus":"<p style=\"font-size: 48px;\">+</p>","key_press":null,"block":1,"trial_type":"html-keyboard-response","trial_index":321,"time_elapsed":2028285,"internal_node_id":"0.0-13.0-1.67","match_key":"a","participant_id":"COGS219_2020_34"},{"rt":1591.2299999035895,"stimulus":"Images/whistle_2.png","key_press":76,"stim_onset":1583009747879,"block":1,"match_type":"non-match","image_category":"whistle","sound_category":"gun","audio_type":"label","phase":"test","trial_type":"image-keyboard-response","trial_index":322,"time_elapsed":2029878,"internal_node_id":"0.0-13.0-2.67","match_key":"a","participant_id":"COGS219_2020_34","correct":true},{"rt":null,"stimulus":"Sounds/correct.wav","key_press":null,"block":1,"trial_type":"audio-keyboard-response","trial_index":323,"time_elapsed":2031892,"internal_node_id":"0.0-13.0-3.67","match_key":"a","participant_id":"COGS219_2020_34"},{"rt":null,"stimulus":"Sounds/cow_label.wav","key_press":null,"block":1,"trial_type":"audio-keyboard-response","trial_index":324,"time_elapsed":2032908,"internal_node_id":"0.0-13.0-0.68","match_key":"a","participant_id":"COGS219_2020_34"},{"rt":null,"stimulus":"<p style=\"font-size: 48px;\">+</p>","key_press":null,"block":1,"trial_type":"html-keyboard-response","trial_index":325,"time_elapsed":2033902,"internal_node_id":"0.0-13.0-1.68","match_key":"a","participant_id":"COGS219_2020_34"},{"rt":1446.6150000225753,"stimulus":"Images/cow_cartoon.png","key_press":65,"stim_onset":1583009753496,"block":1,"match_type":"match","image_category":"cow","sound_category":"cow","audio_type":"label","phase":"test","trial_type":"image-keyboard-response","trial_index":326,"time_elapsed":2035350,"internal_node_id":"0.0-13.0-2.68","match_key":"a","participant_id":"COGS219_2020_34","correct":true},{"rt":null,"stimulus":"Sounds/correct.wav","key_press":null,"block":1,"trial_type":"audio-keyboard-response","trial_index":327,"time_elapsed":2037363,"internal_node_id":"0.0-13.0-3.68","match_key":"a","participant_id":"COGS219_2020_34"},{"rt":null,"stimulus":"Sounds/whistle_label.wav","key_press":null,"block":1,"trial_type":"audio-keyboard-response","trial_index":328,"time_elapsed":2038068,"internal_node_id":"0.0-13.0-0.69","match_key":"a","participant_id":"COGS219_2020_34"},{"rt":null,"stimulus":"<p style=\"font-size: 48px;\">+</p>","key_press":null,"block":1,"trial_type":"html-keyboard-response","trial_index":329,"time_elapsed":2039086,"internal_node_id":"0.0-13.0-1.69","match_key":"a","participant_id":"COGS219_2020_34"},{"rt":1287.2399999760091,"stimulus":"Images/cow_orig.png","key_press":76,"stim_onset":1583009758679,"block":1,"match_type":"non-match","image_category":"cow","sound_category":"whistle","audio_type":"label","phase":"test","trial_type":"image-keyboard-response","trial_index":330,"time_elapsed":2040374,"internal_node_id":"0.0-13.0-2.69","match_key":"a","participant_id":"COGS219_2020_34","correct":true},{"rt":null,"stimulus":"Sounds/correct.wav","key_press":null,"block":1,"trial_type":"audio-keyboard-response","trial_index":331,"time_elapsed":2042378,"internal_node_id":"0.0-13.0-3.69","match_key":"a","participant_id":"COGS219_2020_34"},{"rt":null,"stimulus":"Sounds/cow_sound.wav","key_press":null,"block":1,"trial_type":"audio-keyboard-response","trial_index":332,"time_elapsed":2043408,"internal_node_id":"0.0-13.0-0.70","match_key":"a","participant_id":"COGS219_2020_34"},{"rt":null,"stimulus":"<p style=\"font-size: 48px;\">+</p>","key_press":null,"block":1,"trial_type":"html-keyboard-response","trial_index":333,"time_elapsed":2044402,"internal_node_id":"0.0-13.0-1.70","match_key":"a","participant_id":"COGS219_2020_34"},{"rt":1178.5949999466538,"stimulus":"Images/frog_1.png","key_press":76,"stim_onset":1583009763996,"block":1,"match_type":"non-match","image_category":"frog","sound_category":"cow","audio_type":"sound","phase":"test","trial_type":"image-keyboard-response","trial_index":334,"time_elapsed":2045582,"internal_node_id":"0.0-13.0-2.70","match_key":"a","participant_id":"COGS219_2020_34","correct":true},{"rt":null,"stimulus":"Sounds/correct.wav","key_press":null,"block":1,"trial_type":"audio-keyboard-response","trial_index":335,"time_elapsed":2047585,"internal_node_id":"0.0-13.0-3.70","match_key":"a","participant_id":"COGS219_2020_34"},{"rt":null,"stimulus":"Sounds/motorcycle_sound.wav","key_press":null,"block":1,"trial_type":"audio-keyboard-response","trial_index":336,"time_elapsed":2048708,"internal_node_id":"0.0-13.0-0.71","match_key":"a","participant_id":"COGS219_2020_34"},{"rt":null,"stimulus":"<p style=\"font-size: 48px;\">+</p>","key_press":null,"block":1,"trial_type":"html-keyboard-response","trial_index":337,"time_elapsed":2049702,"internal_node_id":"0.0-13.0-1.71","match_key":"a","participant_id":"COGS219_2020_34"},{"rt":1838.2549999514595,"stimulus":"Images/motorcycle_cartoon.png","key_press":65,"stim_onset":1583009769296,"block":1,"match_type":"match","image_category":"motorcycle","sound_category":"motorcycle","audio_type":"sound","phase":"test","trial_type":"image-keyboard-response","trial_index":338,"time_elapsed":2051542,"internal_node_id":"0.0-13.0-2.71","match_key":"a","participant_id":"COGS219_2020_34","correct":true},{"rt":null,"stimulus":"Sounds/correct.wav","key_press":null,"block":1,"trial_type":"audio-keyboard-response","trial_index":339,"time_elapsed":2053558,"internal_node_id":"0.0-13.0-3.71","match_key":"a","participant_id":"COGS219_2020_34"},{"rt":null,"stimulus":"Sounds/gun_label.wav","key_press":null,"block":1,"trial_type":"audio-keyboard-response","trial_index":340,"time_elapsed":2054148,"internal_node_id":"0.0-13.0-0.72","match_key":"a","participant_id":"COGS219_2020_34"},{"rt":null,"stimulus":"<p style=\"font-size: 48px;\">+</p>","key_press":null,"block":1,"trial_type":"html-keyboard-response","trial_index":341,"time_elapsed":2055153,"internal_node_id":"0.0-13.0-1.72","match_key":"a","participant_id":"COGS219_2020_34"},{"rt":1068.1750000221655,"stimulus":"Images/gun_1.png","key_press":65,"stim_onset":1583009774746,"block":1,"match_type":"match","image_category":"gun","sound_category":"gun","audio_type":"label","phase":"test","trial_type":"image-keyboard-response","trial_index":342,"time_elapsed":2056222,"internal_node_id":"0.0-13.0-2.72","match_key":"a","participant_id":"COGS219_2020_34","correct":true},{"rt":null,"stimulus":"Sounds/correct.wav","key_press":null,"block":1,"trial_type":"audio-keyboard-response","trial_index":343,"time_elapsed":2058225,"internal_node_id":"0.0-13.0-3.72","match_key":"a","participant_id":"COGS219_2020_34"},{"rt":null,"stimulus":"Sounds/rooster_label.wav","key_press":null,"block":1,"trial_type":"audio-keyboard-response","trial_index":344,"time_elapsed":2058928,"internal_node_id":"0.0-13.0-0.73","match_key":"a","participant_id":"COGS219_2020_34"},{"rt":null,"stimulus":"<p style=\"font-size: 48px;\">+</p>","key_press":null,"block":1,"trial_type":"html-keyboard-response","trial_index":345,"time_elapsed":2059919,"internal_node_id":"0.0-13.0-1.73","match_key":"a","participant_id":"COGS219_2020_34"},{"rt":1237.4750000890344,"stimulus":"Images/motorcycle_2.png","key_press":76,"stim_onset":1583009779512,"block":1,"match_type":"non-match","image_category":"motorcycle","sound_category":"rooster","audio_type":"label","phase":"test","trial_type":"image-keyboard-response","trial_index":346,"time_elapsed":2061158,"internal_node_id":"0.0-13.0-2.73","match_key":"a","participant_id":"COGS219_2020_34","correct":true},{"rt":null,"stimulus":"Sounds/correct.wav","key_press":null,"block":1,"trial_type":"audio-keyboard-response","trial_index":347,"time_elapsed":2063162,"internal_node_id":"0.0-13.0-3.73","match_key":"a","participant_id":"COGS219_2020_34"},{"rt":null,"stimulus":"Sounds/dog_sound.wav","key_press":null,"block":1,"trial_type":"audio-keyboard-response","trial_index":348,"time_elapsed":2063869,"internal_node_id":"0.0-13.0-0.74","match_key":"a","participant_id":"COGS219_2020_34"},