[{"rt":32888.5200000077,"responses":"{\"Q0\":\"cogs219_2020_39\"}","trial_type":"survey-text","trial_index":0,"time_elapsed":32953,"internal_node_id":"0.0-0.0","match_key":"l","participant_id":"cogs219_2020_39"},{"rt":28153.67500000866,"stimulus":"<p>Use KEYBOARD 1 (match RIGHT)</p><p>Press MATCH to continue.</p>","key_press":76,"trial_type":"html-keyboard-response","trial_index":1,"time_elapsed":61122,"internal_node_id":"0.0-1.0","match_key":"l","participant_id":"cogs219_2020_39"},{"rt":2348531.3349999776,"stimulus":"<p>Welcome to the experiment.</p>","key_press":39,"trial_type":"html-keyboard-response","trial_index":2,"time_elapsed":2408568,"internal_node_id":"0.0-2.0","match_key":"l","participant_id":"cogs219_2020_39"},{"rt":7481.2099999981,"stimulus":"<p>Thank you for agreeing to participate in this study.</p><p>If during any part of the procedure you must stop for any reason, please inform the researcher that you do not wish to continue.</p>","key_press":39,"trial_type":"html-keyboard-response","trial_index":3,"time_elapsed":2416055,"internal_node_id":"0.0-3.0","match_key":"l","participant_id":"cogs219_2020_39"},{"rt":15951.549999997951,"stimulus":"<p>In this experiment, you will hear various words or sounds and see pictures of various animals and objects.</p><p>Most of the images will be of common everyday objects, such as cars, cats, cows, firearms, frogs, chickens, whistles, trains, motorcycles, and dogs.</p><p>Some of the images will be real-life stills, while others will be cartoons.</p>","key_press":39,"trial_type":"html-keyboard-response","trial_index":4,"time_elapsed":2432007,"internal_node_id":"0.0-4.0","match_key":"l","participant_id":"cogs219_2020_39"},{"rt":12030.440000002272,"stimulus":"<p>Sometimes, the word/sound will match the picture, for example you'll hear a meowing sound and see a cat.</p><p>Other times, the picture will not match the sound or word.</p><p>Your task is to decide as quickly as possible if the word/sound matches the picture or not. </p>","key_press":39,"trial_type":"html-keyboard-response","trial_index":5,"time_elapsed":2444027,"internal_node_id":"0.0-5.0","match_key":"l","participant_id":"cogs219_2020_39"},{"rt":12975.050000008196,"stimulus":"<p>For example, if you hear the word \"cat\" or hear a meowing sound, and then see a picture of a cat, you should press the MATCH key.</p><p> If the sound and image do not match, press the NOT-MATCH key to indicate that there is not a match.</p>","key_press":39,"trial_type":"html-keyboard-response","trial_index":6,"time_elapsed":2457003,"internal_node_id":"0.0-6.0","match_key":"l","participant_id":"cogs219_2020_39"},{"rt":11118.32000000868,"stimulus":"<p>If you make a mistake, you will hear a buzzing sound instead of a more pleasant sound.</p><p> Try to respond as quickly as possible, while making as few errors as possible. If you are making mistakes, you are probably rushing.</p>","key_press":39,"trial_type":"html-keyboard-response","trial_index":7,"time_elapsed":2468126,"internal_node_id":"0.0-7.0","match_key":"l","participant_id":"cogs219_2020_39"},{"rt":16299.199999979232,"stimulus":"<p>Please try to not move or blink your eyes during the presentation of the images. You can move and blink between images.</p><p>During the experiment there will be some breaks during which you can rest your eyes.</p>","key_press":39,"trial_type":"html-keyboard-response","trial_index":8,"time_elapsed":2484426,"internal_node_id":"0.0-8.0","match_key":"l","participant_id":"cogs219_2020_39"},{"rt":17167.435000009835,"stimulus":"<p>We will begin with 10 practice trials. Please let the experimenter know if you have any questions.</p>","key_press":39,"trial_type":"html-keyboard-response","trial_index":9,"time_elapsed":2501595,"internal_node_id":"0.0-9.0","match_key":"l","participant_id":"cogs219_2020_39"},{"rt":null,"stimulus":"Sounds/frog_label.wav","key_press":null,"block":0,"trial_type":"audio-keyboard-response","trial_index":10,"time_elapsed":2502583,"internal_node_id":"0.0-10.0-0.0","match_key":"l","participant_id":"cogs219_2020_39"},{"rt":null,"stimulus":"<p style=\"font-size: 48px;\">+</p>","key_press":null,"block":0,"trial_type":"html-keyboard-response","trial_index":11,"time_elapsed":2503575,"internal_node_id":"0.0-10.0-1.0","match_key":"l","participant_id":"cogs219_2020_39"},{"rt":5985.420000011567,"stimulus":"Images/frog_1.png","key_press":76,"stim_onset":1583250380714,"block":0,"match_type":"match","image_category":"frog","sound_category":"frog","audio_type":"label","phase":"practice","trial_type":"image-keyboard-response","trial_index":12,"time_elapsed":2509575,"internal_node_id":"0.0-10.0-2.0","match_key":"l","participant_id":"cogs219_2020_39","correct":true},{"rt":null,"stimulus":"Sounds/correct.wav","key_press":null,"block":0,"trial_type":"audio-keyboard-response","trial_index":13,"time_elapsed":2511580,"internal_node_id":"0.0-10.0-3.0","match_key":"l","participant_id":"cogs219_2020_39"},{"rt":null,"stimulus":"Sounds/rooster_sound.wav","key_press":null,"block":0,"trial_type":"audio-keyboard-response","trial_index":14,"time_elapsed":2512275,"internal_node_id":"0.0-10.0-0.1","match_key":"l","participant_id":"cogs219_2020_39"},{"rt":null,"stimulus":"<p style=\"font-size: 48px;\">+</p>","key_press":null,"block":0,"trial_type":"html-keyboard-response","trial_index":15,"time_elapsed":2513271,"internal_node_id":"0.0-10.0-1.1","match_key":"l","participant_id":"cogs219_2020_39"},{"rt":478.34999999031425,"stimulus":"Images/rooster_cartoon.png","key_press":76,"stim_onset":1583250390409,"block":0,"match_type":"match","image_category":"rooster","sound_category":"rooster","audio_type":"sound","phase":"practice","trial_type":"image-keyboard-response","trial_index":16,"time_elapsed":2513751,"internal_node_id":"0.0-10.0-2.1","match_key":"l","participant_id":"cogs219_2020_39","correct":true},{"rt":null,"stimulus":"Sounds/correct.wav","key_press":null,"block":0,"trial_type":"audio-keyboard-response","trial_index":17,"time_elapsed":2515760,"internal_node_id":"0.0-10.0-3.1","match_key":"l","participant_id":"cogs219_2020_39"},{"rt":null,"stimulus":"Sounds/frog_sound.wav","key_press":null,"block":0,"trial_type":"audio-keyboard-response","trial_index":18,"time_elapsed":2516675,"internal_node_id":"0.0-10.0-0.2","match_key":"l","participant_id":"cogs219_2020_39"},{"rt":null,"stimulus":"<p style=\"font-size: 48px;\">+</p>","key_press":null,"block":0,"trial_type":"html-keyboard-response","trial_index":19,"time_elapsed":2517671,"internal_node_id":"0.0-10.0-1.2","match_key":"l","participant_id":"cogs219_2020_39"},{"rt":3774.1649999804795,"stimulus":"Images/motorcycle_1.png","key_press":65,"stim_onset":1583250394809,"block":0,"match_type":"non-match","image_category":"motorcycle","sound_category":"frog","audio_type":"sound","phase":"practice","trial_type":"image-keyboard-response","trial_index":20,"time_elapsed":2521446,"internal_node_id":"0.0-10.0-2.2","match_key":"l","participant_id":"cogs219_2020_39","correct":true},{"rt":null,"stimulus":"Sounds/correct.wav","key_press":null,"block":0,"trial_type":"audio-keyboard-response","trial_index":21,"time_elapsed":2523461,"internal_node_id":"0.0-10.0-3.2","match_key":"l","participant_id":"cogs219_2020_39"},{"rt":null,"stimulus":"Sounds/dog_label.wav","key_press":null,"block":0,"trial_type":"audio-keyboard-response","trial_index":22,"time_elapsed":2524115,"internal_node_id":"0.0-10.0-0.3","match_key":"l","participant_id":"cogs219_2020_39"},{"rt":null,"stimulus":"<p style=\"font-size: 48px;\">+</p>","key_press":null,"block":0,"trial_type":"html-keyboard-response","trial_index":23,"time_elapsed":2525104,"internal_node_id":"0.0-10.0-1.3","match_key":"l","participant_id":"cogs219_2020_39"},{"rt":549.0749999880791,"stimulus":"Images/motorcycle_3.png","key_press":65,"stim_onset":1583250402243,"block":0,"match_type":"non-match","image_category":"motorcycle","sound_category":"dog","audio_type":"label","phase":"practice","trial_type":"image-keyboard-response","trial_index":24,"time_elapsed":2525655,"internal_node_id":"0.0-10.0-2.3","match_key":"l","participant_id":"cogs219_2020_39","correct":true},{"rt":null,"stimulus":"Sounds/correct.wav","key_press":null,"block":0,"trial_type":"audio-keyboard-response","trial_index":25,"time_elapsed":2527660,"internal_node_id":"0.0-10.0-3.3","match_key":"l","participant_id":"cogs219_2020_39"},{"rt":null,"stimulus":"Sounds/car_sound.wav","key_press":null,"block":0,"trial_type":"audio-keyboard-response","trial_index":26,"time_elapsed":2528735,"internal_node_id":"0.0-10.0-0.4","match_key":"l","participant_id":"cogs219_2020_39"},{"rt":null,"stimulus":"<p style=\"font-size: 48px;\">+</p>","key_press":null,"block":0,"trial_type":"html-keyboard-response","trial_index":27,"time_elapsed":2529738,"internal_node_id":"0.0-10.0-1.4","match_key":"l","participant_id":"cogs219_2020_39"},{"rt":1099.3350000060163,"stimulus":"Images/car_1.png","key_press":76,"stim_onset":1583250406876,"block":0,"match_type":"match","image_category":"car","sound_category":"car","audio_type":"sound","phase":"practice","trial_type":"image-keyboard-response","trial_index":28,"time_elapsed":2530838,"internal_node_id":"0.0-10.0-2.4","match_key":"l","participant_id":"cogs219_2020_39","correct":true},{"rt":null,"stimulus":"Sounds/correct.wav","key_press":null,"block":0,"trial_type":"audio-keyboard-response","trial_index":29,"time_elapsed":2532846,"internal_node_id":"0.0-10.0-3.4","match_key":"l","participant_id":"cogs219_2020_39"},{"rt":null,"stimulus":"Sounds/gun_label.wav","key_press":null,"block":0,"trial_type":"audio-keyboard-response","trial_index":30,"time_elapsed":2533435,"internal_node_id":"0.0-10.0-0.5","match_key":"l","participant_id":"cogs219_2020_39"},{"rt":null,"stimulus":"<p style=\"font-size: 48px;\">+</p>","key_press":null,"block":0,"trial_type":"html-keyboard-response","trial_index":31,"time_elapsed":2534438,"internal_node_id":"0.0-10.0-1.5","match_key":"l","participant_id":"cogs219_2020_39"},{"rt":767.4550000233576,"stimulus":"Images/gun_3.png","key_press":76,"stim_onset":1583250411576,"block":0,"match_type":"match","image_category":"gun","sound_category":"gun","audio_type":"label","phase":"practice","trial_type":"image-keyboard-response","trial_index":32,"time_elapsed":2535207,"internal_node_id":"0.0-10.0-2.5","match_key":"l","participant_id":"cogs219_2020_39","correct":true},{"rt":null,"stimulus":"Sounds/correct.wav","key_press":null,"block":0,"trial_type":"audio-keyboard-response","trial_index":33,"time_elapsed":2537210,"internal_node_id":"0.0-10.0-3.5","match_key":"l","participant_id":"cogs219_2020_39"},{"rt":null,"stimulus":"Sounds/cat_label.wav","key_press":null,"block":0,"trial_type":"audio-keyboard-response","trial_index":34,"time_elapsed":2538055,"internal_node_id":"0.0-10.0-0.6","match_key":"l","participant_id":"cogs219_2020_39"},{"rt":null,"stimulus":"<p style=\"font-size: 48px;\">+</p>","key_press":null,"block":0,"trial_type":"html-keyboard-response","trial_index":35,"time_elapsed":2539055,"internal_node_id":"0.0-10.0-1.6","match_key":"l","participant_id":"cogs219_2020_39"},{"rt":694.7649999926798,"stimulus":"Images/car_cartoon.png","key_press":65,"stim_onset":1583250416193,"block":0,"match_type":"non-match","image_category":"car","sound_category":"cat","audio_type":"label","phase":"practice","trial_type":"image-keyboard-response","trial_index":36,"time_elapsed":2539751,"internal_node_id":"0.0-10.0-2.6","match_key":"l","participant_id":"cogs219_2020_39","correct":true},{"rt":null,"stimulus":"Sounds/correct.wav","key_press":null,"block":0,"trial_type":"audio-keyboard-response","trial_index":37,"time_elapsed":2541759,"internal_node_id":"0.0-10.0-3.6","match_key":"l","participant_id":"cogs219_2020_39"},{"rt":null,"stimulus":"Sounds/train_sound.wav","key_press":null,"block":0,"trial_type":"audio-keyboard-response","trial_index":38,"time_elapsed":2543055,"internal_node_id":"0.0-10.0-0.7","match_key":"l","participant_id":"cogs219_2020_39"},{"rt":null,"stimulus":"<p style=\"font-size: 48px;\">+</p>","key_press":null,"block":0,"trial_type":"html-keyboard-response","trial_index":39,"time_elapsed":2544055,"internal_node_id":"0.0-10.0-1.7","match_key":"l","participant_id":"cogs219_2020_39"},{"rt":510.94000000786036,"stimulus":"Images/car_2.png","key_press":65,"stim_onset":1583250421193,"block":0,"match_type":"non-match","image_category":"car","sound_category":"train","audio_type":"sound","phase":"practice","trial_type":"image-keyboard-response","trial_index":40,"time_elapsed":2544567,"internal_node_id":"0.0-10.0-2.7","match_key":"l","participant_id":"cogs219_2020_39","correct":true},{"rt":null,"stimulus":"Sounds/correct.wav","key_press":null,"block":0,"trial_type":"audio-keyboard-response","trial_index":41,"time_elapsed":2546575,"internal_node_id":"0.0-10.0-3.7","match_key":"l","participant_id":"cogs219_2020_39"},{"rt":null,"stimulus":"Sounds/rooster_sound.wav","key_press":null,"block":0,"trial_type":"audio-keyboard-response","trial_index":42,"time_elapsed":2547275,"internal_node_id":"0.0-10.0-0.8","match_key":"l","participant_id":"cogs219_2020_39"},{"rt":null,"stimulus":"<p style=\"font-size: 48px;\">+</p>","key_press":null,"block":0,"trial_type":"html-keyboard-response","trial_index":43,"time_elapsed":2548271,"internal_node_id":"0.0-10.0-1.8","match_key":"l","participant_id":"cogs219_2020_39"},{"rt":501.9449999961071,"stimulus":"Images/whistle_3.png","key_press":65,"stim_onset":1583250425410,"block":0,"match_type":"non-match","image_category":"whistle","sound_category":"rooster","audio_type":"sound","phase":"practice","trial_type":"image-keyboard-response","trial_index":44,"time_elapsed":2548775,"internal_node_id":"0.0-10.0-2.8","match_key":"l","participant_id":"cogs219_2020_39","correct":true},{"rt":null,"stimulus":"Sounds/correct.wav","key_press":null,"block":0,"trial_type":"audio-keyboard-response","trial_index":45,"time_elapsed":2550792,"internal_node_id":"0.0-10.0-3.8","match_key":"l","participant_id":"cogs219_2020_39"},{"rt":null,"stimulus":"Sounds/whistle_label.wav","key_press":null,"block":0,"trial_type":"audio-keyboard-response","trial_index":46,"time_elapsed":2551495,"internal_node_id":"0.0-10.0-0.9","match_key":"l","participant_id":"cogs219_2020_39"},{"rt":null,"stimulus":"<p style=\"font-size: 48px;\">+</p>","key_press":null,"block":0,"trial_type":"html-keyboard-response","trial_index":47,"time_elapsed":2552488,"internal_node_id":"0.0-10.0-1.9","match_key":"l","participant_id":"cogs219_2020_39"},{"rt":621.3599999900907,"stimulus":"Images/cow_cartoon.png","key_press":65,"stim_onset":1583250429627,"block":0,"match_type":"non-match","image_category":"cow","sound_category":"whistle","audio_type":"label","phase":"practice","trial_type":"image-keyboard-response","trial_index":48,"time_elapsed":2553111,"internal_node_id":"0.0-10.0-2.9","match_key":"l","participant_id":"cogs219_2020_39","correct":true},{"rt":null,"stimulus":"Sounds/correct.wav","key_press":null,"block":0,"trial_type":"audio-keyboard-response","trial_index":49,"time_elapsed":2555126,"internal_node_id":"0.0-10.0-3.9","match_key":"l","participant_id":"cogs219_2020_39"},{"rt":24304.474999982864,"stimulus":"<p>The rest of the experiment is divided into five blocks with 100 trials in each block. It will take about 45 minutes to complete.</p><p>The experimenter will be in the outer room and you can communicate with them through the monitor if you have any questions or wish to stop the experiment.</p>","key_press":39,"trial_type":"html-keyboard-response","trial_index":50,"time_elapsed":2579429,"internal_node_id":"0.0-11.0","match_key":"l","participant_id":"cogs219_2020_39"},{"rt":23167.204999976326,"stimulus":"<p>Remember, please try not to move or blink your eyes during the presentation of the images. </p><p>At the end of the experiment, we will show you your scores on the task so you can see how you did.</p><p>The experiment will start on the next screen.</p>","key_press":39,"trial_type":"html-keyboard-response","trial_index":51,"time_elapsed":2602598,"internal_node_id":"0.0-12.0","match_key":"l","participant_id":"cogs219_2020_39"},{"rt":null,"stimulus":"Sounds/frog_sound.wav","key_press":null,"block":1,"trial_type":"audio-keyboard-response","trial_index":52,"time_elapsed":2605540,"internal_node_id":"0.0-13.0-0.0","match_key":"l","participant_id":"cogs219_2020_39"},{"rt":null,"stimulus":"<p style=\"font-size: 48px;\">+</p>","key_press":null,"block":1,"trial_type":"html-keyboard-response","trial_index":53,"time_elapsed":2606537,"internal_node_id":"0.0-13.0-1.0","match_key":"l","participant_id":"cogs219_2020_39"},{"rt":506.9499999806285,"stimulus":"Images/frog_3.png","key_press":76,"stim_onset":1583250483675,"block":1,"match_type":"match","image_category":"frog","sound_category":"frog","audio_type":"sound","phase":"test","trial_type":"image-keyboard-response","trial_index":54,"time_elapsed":2607045,"internal_node_id":"0.0-13.0-2.0","match_key":"l","participant_id":"cogs219_2020_39","correct":true},{"rt":null,"stimulus":"Sounds/correct.wav","key_press":null,"block":1,"trial_type":"audio-keyboard-response","trial_index":55,"time_elapsed":2609060,"internal_node_id":"0.0-13.0-3.0","match_key":"l","participant_id":"cogs219_2020_39"},{"rt":null,"stimulus":"Sounds/gun_sound.wav","key_press":null,"block":1,"trial_type":"audio-keyboard-response","trial_index":56,"time_elapsed":2609641,"internal_node_id":"0.0-13.0-0.1","match_key":"l","participant_id":"cogs219_2020_39"},{"rt":null,"stimulus":"<p style=\"font-size: 48px;\">+</p>","key_press":null,"block":1,"trial_type":"html-keyboard-response","trial_index":57,"time_elapsed":2610637,"internal_node_id":"0.0-13.0-1.1","match_key":"l","participant_id":"cogs219_2020_39"},{"rt":662.6450000042096,"stimulus":"Images/whistle_2.png","key_press":65,"stim_onset":1583250487775,"block":1,"match_type":"non-match","image_category":"whistle","sound_category":"gun","audio_type":"sound","phase":"test","trial_type":"image-keyboard-response","trial_index":58,"time_elapsed":2611301,"internal_node_id":"0.0-13.0-2.1","match_key":"l","participant_id":"cogs219_2020_39","correct":true},{"rt":null,"stimulus":"Sounds/correct.wav","key_press":null,"block":1,"trial_type":"audio-keyboard-response","trial_index":59,"time_elapsed":2613309,"internal_node_id":"0.0-13.0-3.1","match_key":"l","participant_id":"cogs219_2020_39"},{"rt":null,"stimulus":"Sounds/train_label.wav","key_press":null,"block":1,"trial_type":"audio-keyboard-response","trial_index":60,"time_elapsed":2614580,"internal_node_id":"0.0-13.0-0.2","match_key":"l","participant_id":"cogs219_2020_39"},{"rt":null,"stimulus":"<p style=\"font-size: 48px;\">+</p>","key_press":null,"block":1,"trial_type":"html-keyboard-response","trial_index":61,"time_elapsed":2615570,"internal_node_id":"0.0-13.0-1.2","match_key":"l","participant_id":"cogs219_2020_39"},{"rt":449.13500000257045,"stimulus":"Images/train_cartoon.png","key_press":76,"stim_onset":1583250492709,"block":1,"match_type":"match","image_category":"train","sound_category":"train","audio_type":"label","phase":"test","trial_type":"image-keyboard-response","trial_index":62,"time_elapsed":2616021,"internal_node_id":"0.0-13.0-2.2","match_key":"l","participant_id":"cogs219_2020_39","correct":true},{"rt":null,"stimulus":"Sounds/correct.wav","key_press":null,"block":1,"trial_type":"audio-keyboard-response","trial_index":63,"time_elapsed":2618026,"internal_node_id":"0.0-13.0-3.2","match_key":"l","participant_id":"cogs219_2020_39"},{"rt":null,"stimulus":"Sounds/motorcycle_label.wav","key_press":null,"block":1,"trial_type":"audio-keyboard-response","trial_index":64,"time_elapsed":2619160,"internal_node_id":"0.0-13.0-0.3","match_key":"l","participant_id":"cogs219_2020_39"},{"rt":null,"stimulus":"<p style=\"font-size: 48px;\">+</p>","key_press":null,"block":1,"trial_type":"html-keyboard-response","trial_index":65,"time_elapsed":2620154,"internal_node_id":"0.0-13.0-1.3","match_key":"l","participant_id":"cogs219_2020_39"},{"rt":1033.815000002738,"stimulus":"Images/motorcycle_orig.png","key_press":76,"stim_onset":1583250497292,"block":1,"match_type":"match","image_category":"motorcycle","sound_category":"motorcycle","audio_type":"label","phase":"test","trial_type":"image-keyboard-response","trial_index":66,"time_elapsed":2621189,"internal_node_id":"0.0-13.0-2.3","match_key":"l","participant_id":"cogs219_2020_39","correct":true},{"rt":null,"stimulus":"Sounds/correct.wav","key_press":null,"block":1,"trial_type":"audio-keyboard-response","trial_index":67,"time_elapsed":2623192,"internal_node_id":"0.0-13.0-3.3","match_key":"l","participant_id":"cogs219_2020_39"},{"rt":null,"stimulus":"Sounds/dog_label.wav","key_press":null,"block":1,"trial_type":"audio-keyboard-response","trial_index":68,"time_elapsed":2623860,"internal_node_id":"0.0-13.0-0.4","match_key":"l","participant_id":"cogs219_2020_39"},{"rt":null,"stimulus":"<p style=\"font-size: 48px;\">+</p>","key_press":null,"block":1,"trial_type":"html-keyboard-response","trial_index":69,"time_elapsed":2624854,"internal_node_id":"0.0-13.0-1.4","match_key":"l","participant_id":"cogs219_2020_39"},{"rt":509.9150000018999,"stimulus":"Images/cow_cartoon.png","key_press":65,"stim_onset":1583250501992,"block":1,"match_type":"non-match","image_category":"cow","sound_category":"dog","audio_type":"label","phase":"test","trial_type":"image-keyboard-response","trial_index":70,"time_elapsed":2625365,"internal_node_id":"0.0-13.0-2.4","match_key":"l","participant_id":"cogs219_2020_39","correct":true},{"rt":null,"stimulus":"Sounds/correct.wav","key_press":null,"block":1,"trial_type":"audio-keyboard-response","trial_index":71,"time_elapsed":2627373,"internal_node_id":"0.0-13.0-3.4","match_key":"l","participant_id":"cogs219_2020_39"},{"rt":null,"stimulus":"Sounds/frog_sound.wav","key_press":null,"block":1,"trial_type":"audio-keyboard-response","trial_index":72,"time_elapsed":2628280,"internal_node_id":"0.0-13.0-0.5","match_key":"l","participant_id":"cogs219_2020_39"},{"rt":null,"stimulus":"<p style=\"font-size: 48px;\">+</p>","key_press":null,"block":1,"trial_type":"html-keyboard-response","trial_index":73,"time_elapsed":2629270,"internal_node_id":"0.0-13.0-1.5","match_key":"l","participant_id":"cogs219_2020_39"},{"rt":445.69500000216067,"stimulus":"Images/rooster_2.png","key_press":65,"stim_onset":1583250506408,"block":1,"match_type":"non-match","image_category":"rooster","sound_category":"frog","audio_type":"sound","phase":"test","trial_type":"image-keyboard-response","trial_index":74,"time_elapsed":2629717,"internal_node_id":"0.0-13.0-2.5","match_key":"l","participant_id":"cogs219_2020_39","correct":true},{"rt":null,"stimulus":"Sounds/correct.wav","key_press":null,"block":1,"trial_type":"audio-keyboard-response","trial_index":75,"time_elapsed":2631727,"internal_node_id":"0.0-13.0-3.5","match_key":"l","participant_id":"cogs219_2020_39"},{"rt":null,"stimulus":"Sounds/gun_label.wav","key_press":null,"block":1,"trial_type":"audio-keyboard-response","trial_index":76,"time_elapsed":2632300,"internal_node_id":"0.0-13.0-0.6","match_key":"l","participant_id":"cogs219_2020_39"},{"rt":null,"stimulus":"<p style=\"font-size: 48px;\">+</p>","key_press":null,"block":1,"trial_type":"html-keyboard-response","trial_index":77,"time_elapsed":2633304,"internal_node_id":"0.0-13.0-1.6","match_key":"l","participant_id":"cogs219_2020_39"},{"rt":651.3900000136346,"stimulus":"Images/gun_cartoon.png","key_press":76,"stim_onset":1583250510442,"block":1,"match_type":"match","image_category":"gun","sound_category":"gun","audio_type":"label","phase":"test","trial_type":"image-keyboard-response","trial_index":78,"time_elapsed":2633957,"internal_node_id":"0.0-13.0-2.6","match_key":"l","participant_id":"cogs219_2020_39","correct":true},{"rt":null,"stimulus":"Sounds/correct.wav","key_press":null,"block":1,"trial_type":"audio-keyboard-response","trial_index":79,"time_elapsed":2635960,"internal_node_id":"0.0-13.0-3.6","match_key":"l","participant_id":"cogs219_2020_39"},{"rt":null,"stimulus":"Sounds/motorcycle_label.wav","key_press":null,"block":1,"trial_type":"audio-keyboard-response","trial_index":80,"time_elapsed":2637080,"internal_node_id":"0.0-13.0-0.7","match_key":"l","participant_id":"cogs219_2020_39"},{"rt":null,"stimulus":"<p style=\"font-size: 48px;\">+</p>","key_press":null,"block":1,"trial_type":"html-keyboard-response","trial_index":81,"time_elapsed":2638071,"internal_node_id":"0.0-13.0-1.7","match_key":"l","participant_id":"cogs219_2020_39"},{"rt":493.0900000035763,"stimulus":"Images/car_orig.png","key_press":65,"stim_onset":1583250515209,"block":1,"match_type":"non-match","image_category":"car","sound_category":"motorcycle","audio_type":"label","phase":"test","trial_type":"image-keyboard-response","trial_index":82,"time_elapsed":2638565,"internal_node_id":"0.0-13.0-2.7","match_key":"l","participant_id":"cogs219_2020_39","correct":true},{"rt":null,"stimulus":"Sounds/correct.wav","key_press":null,"block":1,"trial_type":"audio-keyboard-response","trial_index":83,"time_elapsed":2640567,"internal_node_id":"0.0-13.0-3.7","match_key":"l","participant_id":"cogs219_2020_39"},{"rt":null,"stimulus":"Sounds/whistle_label.wav","key_press":null,"block":1,"trial_type":"audio-keyboard-response","trial_index":84,"time_elapsed":2641260,"internal_node_id":"0.0-13.0-0.8","match_key":"l","participant_id":"cogs219_2020_39"},{"rt":null,"stimulus":"<p style=\"font-size: 48px;\">+</p>","key_press":null,"block":1,"trial_type":"html-keyboard-response","trial_index":85,"time_elapsed":2642254,"internal_node_id":"0.0-13.0-1.8","match_key":"l","participant_id":"cogs219_2020_39"},{"rt":517.9099999950267,"stimulus":"Images/whistle_orig.png","key_press":76,"stim_onset":1583250519392,"block":1,"match_type":"match","image_category":"whistle","sound_category":"whistle","audio_type":"label","phase":"test","trial_type":"image-keyboard-response","trial_index":86,"time_elapsed":2642772,"internal_node_id":"0.0-13.0-2.8","match_key":"l","participant_id":"cogs219_2020_39","correct":true},{"rt":null,"stimulus":"Sounds/correct.wav","key_press":null,"block":1,"trial_type":"audio-keyboard-response","trial_index":87,"time_elapsed":2644775,"internal_node_id":"0.0-13.0-3.8","match_key":"l","participant_id":"cogs219_2020_39"},{"rt":null,"stimulus":"Sounds/dog_sound.wav","key_press":null,"block":1,"trial_type":"audio-keyboard-response","trial_index":88,"time_elapsed":2645480,"internal_node_id":"0.0-13.0-0.9","match_key":"l","participant_id":"cogs219_2020_39"},{"rt":null,"stimulus":"<p style=\"font-size: 48px;\">+</p>","key_press":null,"block":1,"trial_type":"html-keyboard-response","trial_index":89,"time_elapsed":2646470,"internal_node_id":"0.0-13.0-1.9","match_key":"l","participant_id":"cogs219_2020_39"},{"rt":493.11000001011416,"stimulus":"Images/dog_3.png","key_press":76,"stim_onset":1583250523609,"block":1,"match_type":"match","image_category":"dog","sound_category":"dog","audio_type":"sound","phase":"test","trial_type":"image-keyboard-response","trial_index":90,"time_elapsed":2646964,"internal_node_id":"0.0-13.0-2.9","match_key":"l","participant_id":"cogs219_2020_39","correct":true},{"rt":null,"stimulus":"Sounds/correct.wav","key_press":null,"block":1,"trial_type":"audio-keyboard-response","trial_index":91,"time_elapsed":2648975,"internal_node_id":"0.0-13.0-3.9","match_key":"l","participant_id":"cogs219_2020_39"},{"rt":null,"stimulus":"Sounds/rooster_label.wav","key_press":null,"block":1,"trial_type":"audio-keyboard-response","trial_index":92,"time_elapsed":2649680,"internal_node_id":"0.0-13.0-0.10","match_key":"l","participant_id":"cogs219_2020_39"},{"rt":null,"stimulus":"<p style=\"font-size: 48px;\">+</p>","key_press":null,"block":1,"trial_type":"html-keyboard-response","trial_index":93,"time_elapsed":2650670,"internal_node_id":"0.0-13.0-1.10","match_key":"l","participant_id":"cogs219_2020_39"},{"rt":517.0649999929592,"stimulus":"Images/cat_cartoon.png","key_press":65,"stim_onset":1583250527809,"block":1,"match_type":"non-match","image_category":"cat","sound_category":"rooster","audio_type":"label","phase":"test","trial_type":"image-keyboard-response","trial_index":94,"time_elapsed":2651188,"internal_node_id":"0.0-13.0-2.10","match_key":"l","participant_id":"cogs219_2020_39","correct":true},{"rt":null,"stimulus":"Sounds/correct.wav","key_press":null,"block":1,"trial_type":"audio-keyboard-response","trial_index":95,"time_elapsed":2653192,"internal_node_id":"0.0-13.0-3.10","match_key":"l","participant_id":"cogs219_2020_39"},{"rt":null,"stimulus":"Sounds/gun_label.wav","key_press":null,"block":1,"trial_type":"audio-keyboard-response","trial_index":96,"time_elapsed":2653760,"internal_node_id":"0.0-13.0-0.11","match_key":"l","participant_id":"cogs219_2020_39"},{"rt":null,"stimulus":"<p style=\"font-size: 48px;\">+</p>","key_press":null,"block":1,"trial_type":"html-keyboard-response","trial_index":97,"time_elapsed":2654754,"internal_node_id":"0.0-13.0-1.11","match_key":"l","participant_id":"cogs219_2020_39"},{"rt":449.9849999845028,"stimulus":"Images/cow_1.png","key_press":65,"stim_onset":1583250531892,"block":1,"match_type":"non-match","image_category":"cow","sound_category":"gun","audio_type":"label","phase":"test","trial_type":"image-keyboard-response","trial_index":98,"time_elapsed":2655205,"internal_node_id":"0.0-13.0-2.11","match_key":"l","participant_id":"cogs219_2020_39","correct":true},{"rt":null,"stimulus":"Sounds/correct.wav","key_press":null,"block":1,"trial_type":"audio-keyboard-response","trial_index":99,"time_elapsed":2657209,"internal_node_id":"0.0-13.0-3.11","match_key":"l","participant_id":"cogs219_2020_39"},{"rt":null,"stimulus":"Sounds/car_sound.wav","key_press":null,"block":1,"trial_type":"audio-keyboard-response","trial_index":100,"time_elapsed":2658280,"internal_node_id":"0.0-13.0-0.12","match_key":"l","participant_id":"cogs219_2020_39"},{"rt":null,"stimulus":"<p style=\"font-size: 48px;\">+</p>","key_press":null,"block":1,"trial_type":"html-keyboard-response","trial_index":101,"time_elapsed":2659270,"internal_node_id":"0.0-13.0-1.12","match_key":"l","participant_id":"cogs219_2020_39"},{"rt":412.8250000067055,"stimulus":"Images/frog_1.png","key_press":65,"stim_onset":1583250536409,"block":1,"match_type":"non-match","image_category":"frog","sound_category":"car","audio_type":"sound","phase":"test","trial_type":"image-keyboard-response","trial_index":102,"time_elapsed":2659684,"internal_node_id":"0.0-13.0-2.12","match_key":"l","participant_id":"cogs219_2020_39","correct":true},{"rt":null,"stimulus":"Sounds/correct.wav","key_press":null,"block":1,"trial_type":"audio-keyboard-response","trial_index":103,"time_elapsed":2661692,"internal_node_id":"0.0-13.0-3.12","match_key":"l","participant_id":"cogs219_2020_39"},{"rt":null,"stimulus":"Sounds/frog_sound.wav","key_press":null,"block":1,"trial_type":"audio-keyboard-response","trial_index":104,"time_elapsed":2662600,"internal_node_id":"0.0-13.0-0.13","match_key":"l","participant_id":"cogs219_2020_39"},{"rt":null,"stimulus":"<p style=\"font-size: 48px;\">+</p>","key_press":null,"block":1,"trial_type":"html-keyboard-response","trial_index":105,"time_elapsed":2663604,"internal_node_id":"0.0-13.0-1.13","match_key":"l","participant_id":"cogs219_2020_39"},{"rt":527.560000016354,"stimulus":"Images/frog_1.png","key_press":76,"stim_onset":1583250540742,"block":1,"match_type":"match","image_category":"frog","sound_category":"frog","audio_type":"sound","phase":"test","trial_type":"image-keyboard-response","trial_index":106,"time_elapsed":2664133,"internal_node_id":"0.0-13.0-2.13","match_key":"l","participant_id":"cogs219_2020_39","correct":true},{"rt":null,"stimulus":"Sounds/correct.wav","key_press":null,"block":1,"trial_type":"audio-keyboard-response","trial_index":107,"time_elapsed":2666142,"internal_node_id":"0.0-13.0-3.13","match_key":"l","participant_id":"cogs219_2020_39"},{"rt":null,"stimulus":"Sounds/motorcycle_sound.wav","key_press":null,"block":1,"trial_type":"audio-keyboard-response","trial_index":108,"time_elapsed":2667260,"internal_node_id":"0.0-13.0-0.14","match_key":"l","participant_id":"cogs219_2020_39"},{"rt":null,"stimulus":"<p style=\"font-size: 48px;\">+</p>","key_press":null,"block":1,"trial_type":"html-keyboard-response","trial_index":109,"time_elapsed":2668254,"internal_node_id":"0.0-13.0-1.14","match_key":"l","participant_id":"cogs219_2020_39"},{"rt":789.699999993667,"stimulus":"Images/motorcycle_2.png","key_press":76,"stim_onset":1583250545392,"block":1,"match_type":"match","image_category":"motorcycle","sound_category":"motorcycle","audio_type":"sound","phase":"test","trial_type":"image-keyboard-response","trial_index":110,"time_elapsed":2669045,"internal_node_id":"0.0-13.0-2.14","match_key":"l","participant_id":"cogs219_2020_39","correct":true},{"rt":null,"stimulus":"Sounds/correct.wav","key_press":null,"block":1,"trial_type":"audio-keyboard-response","trial_index":111,"time_elapsed":2671058,"internal_node_id":"0.0-13.0-3.14","match_key":"l","participant_id":"cogs219_2020_39"},{"rt":null,"stimulus":"Sounds/cow_sound.wav","key_press":null,"block":1,"trial_type":"audio-keyboard-response","trial_index":112,"time_elapsed":2672080,"internal_node_id":"0.0-13.0-0.15","match_key":"l","participant_id":"cogs219_2020_39"},{"rt":null,"stimulus":"<p style=\"font-size: 48px;\">+</p>","key_press":null,"block":1,"trial_type":"html-keyboard-response","trial_index":113,"time_elapsed":2673071,"internal_node_id":"0.0-13.0-1.15","match_key":"l","participant_id":"cogs219_2020_39"},{"rt":372.8200000184588,"stimulus":"Images/motorcycle_3.png","key_press":65,"stim_onset":1583250550209,"block":1,"match_type":"non-match","image_category":"motorcycle","sound_category":"cow","audio_type":"sound","phase":"test","trial_type":"image-keyboard-response","trial_index":114,"time_elapsed":2673444,"internal_node_id":"0.0-13.0-2.15","match_key":"l","participant_id":"cogs219_2020_39","correct":true},{"rt":null,"stimulus":"Sounds/correct.wav","key_press":null,"block":1,"trial_type":"audio-keyboard-response","trial_index":115,"time_elapsed":2675458,"internal_node_id":"0.0-13.0-3.15","match_key":"l","participant_id":"cogs219_2020_39"},{"rt":null,"stimulus":"Sounds/car_label.wav","key_press":null,"block":1,"trial_type":"audio-keyboard-response","trial_index":116,"time_elapsed":2676540,"internal_node_id":"0.0-13.0-0.16","match_key":"l","participant_id":"cogs219_2020_39"},{"rt":null,"stimulus":"<p style=\"font-size: 48px;\">+</p>","key_press":null,"block":1,"trial_type":"html-keyboard-response","trial_index":117,"time_elapsed":2677537,"internal_node_id":"0.0-13.0-1.16","match_key":"l","participant_id":"cogs219_2020_39"},{"rt":450.1549999988638,"stimulus":"Images/car_3.png","key_press":76,"stim_onset":1583250554675,"block":1,"match_type":"match","image_category":"car","sound_category":"car","audio_type":"label","phase":"test","trial_type":"image-keyboard-response","trial_index":118,"time_elapsed":2677989,"internal_node_id":"0.0-13.0-2.16","match_key":"l","participant_id":"cogs219_2020_39","correct":true},{"rt":null,"stimulus":"Sounds/correct.wav","key_press":null,"block":1,"trial_type":"audio-keyboard-response","trial_index":119,"time_elapsed":2679993,"internal_node_id":"0.0-13.0-3.16","match_key":"l","participant_id":"cogs219_2020_39"},{"rt":null,"stimulus":"Sounds/cat_label.wav","key_press":null,"block":1,"trial_type":"audio-keyboard-response","trial_index":120,"time_elapsed":2680840,"internal_node_id":"0.0-13.0-0.17","match_key":"l","participant_id":"cogs219_2020_39"},{"rt":null,"stimulus":"<p style=\"font-size: 48px;\">+</p>","key_press":null,"block":1,"trial_type":"html-keyboard-response","trial_index":121,"time_elapsed":2681837,"internal_node_id":"0.0-13.0-1.17","match_key":"l","participant_id":"cogs219_2020_39"},{"rt":390.1499999919906,"stimulus":"Images/motorcycle_2.png","key_press":65,"stim_onset":1583250558976,"block":1,"match_type":"non-match","image_category":"motorcycle","sound_category":"cat","audio_type":"label","phase":"test","trial_type":"image-keyboard-response","trial_index":122,"time_elapsed":2682229,"internal_node_id":"0.0-13.0-2.17","match_key":"l","participant_id":"cogs219_2020_39","correct":true},{"rt":null,"stimulus":"Sounds/correct.wav","key_press":null,"block":1,"trial_type":"audio-keyboard-response","trial_index":123,"time_elapsed":2684243,"internal_node_id":"0.0-13.0-3.17","match_key":"l","participant_id":"cogs219_2020_39"},{"rt":null,"stimulus":"Sounds/train_label.wav","key_press":null,"block":1,"trial_type":"audio-keyboard-response","trial_index":124,"time_elapsed":2685520,"internal_node_id":"0.0-13.0-0.18","match_key":"l","participant_id":"cogs219_2020_39"},{"rt":null,"stimulus":"<p style=\"font-size: 48px;\">+</p>","key_press":null,"block":1,"trial_type":"html-keyboard-response","trial_index":125,"time_elapsed":2686537,"internal_node_id":"0.0-13.0-1.18","match_key":"l","participant_id":"cogs219_2020_39"},{"rt":473.99500000756234,"stimulus":"Images/whistle_cartoon.png","key_press":65,"stim_onset":1583250563676,"block":1,"match_type":"non-match","image_category":"whistle","sound_category":"train","audio_type":"label","phase":"test","trial_type":"image-keyboard-response","trial_index":126,"time_elapsed":2687012,"internal_node_id":"0.0-13.0-2.18","match_key":"l","participant_id":"cogs219_2020_39","correct":true},{"rt":null,"stimulus":"Sounds/correct.wav","key_press":null,"block":1,"trial_type":"audio-keyboard-response","trial_index":127,"time_elapsed":2689024,"internal_node_id":"0.0-13.0-3.18","match_key":"l","participant_id":"cogs219_2020_39"},{"rt":null,"stimulus":"Sounds/frog_sound.wav","key_press":null,"block":1,"trial_type":"audio-keyboard-response","trial_index":128,"time_elapsed":2689940,"internal_node_id":"0.0-13.0-0.19","match_key":"l","participant_id":"cogs219_2020_39"},{"rt":null,"stimulus":"<p style=\"font-size: 48px;\">+</p>","key_press":null,"block":1,"trial_type":"html-keyboard-response","trial_index":129,"time_elapsed":2690938,"internal_node_id":"0.0-13.0-1.19","match_key":"l","participant_id":"cogs219_2020_39"},{"rt":425.7449999861419,"stimulus":"Images/frog_2.png","key_press":76,"stim_onset":1583250568076,"block":1,"match_type":"match","image_category":"frog","sound_category":"frog","audio_type":"sound","phase":"test","trial_type":"image-keyboard-response","trial_index":130,"time_elapsed":2691364,"internal_node_id":"0.0-13.0-2.19","match_key":"l","participant_id":"cogs219_2020_39","correct":true},{"rt":null,"stimulus":"Sounds/correct.wav","key_press":null,"block":1,"trial_type":"audio-keyboard-response","trial_index":131,"time_elapsed":2693375,"internal_node_id":"0.0-13.0-3.19","match_key":"l","participant_id":"cogs219_2020_39"},{"rt":null,"stimulus":"Sounds/cow_label.wav","key_press":null,"block":1,"trial_type":"audio-keyboard-response","trial_index":132,"time_elapsed":2694400,"internal_node_id":"0.0-13.0-0.20","match_key":"l","participant_id":"cogs219_2020_39"},{"rt":null,"stimulus":"<p style=\"font-size: 48px;\">+</p>","key_press":null,"block":1,"trial_type":"html-keyboard-response","trial_index":133,"time_elapsed":2695404,"internal_node_id":"0.0-13.0-1.20","match_key":"l","participant_id":"cogs219_2020_39"},{"rt":535.52499998454,"stimulus":"Images/rooster_1.png","key_press":65,"stim_onset":1583250572543,"block":1,"match_type":"non-match","image_category":"rooster","sound_category":"cow","audio_type":"label","phase":"test","trial_type":"image-keyboard-response","trial_index":134,"time_elapsed":2695941,"internal_node_id":"0.0-13.0-2.20","match_key":"l","participant_id":"cogs219_2020_39","correct":true},{"rt":null,"stimulus":"Sounds/correct.wav","key_press":null,"block":1,"trial_type":"audio-keyboard-response","trial_index":135,"time_elapsed":2697944,"internal_node_id":"0.0-13.0-3.20","match_key":"l","participant_id":"cogs219_2020_39"},{"rt":null,"stimulus":"Sounds/dog_sound.wav","key_press":null,"block":1,"trial_type":"audio-keyboard-response","trial_index":136,"time_elapsed":2698660,"internal_node_id":"0.0-13.0-0.21","match_key":"l","participant_id":"cogs219_2020_39"},{"rt":null,"stimulus":"<p style=\"font-size: 48px;\">+</p>","key_press":null,"block":1,"trial_type":"html-keyboard-response","trial_index":137,"time_elapsed":2699654,"internal_node_id":"0.0-13.0-1.21","match_key":"l","participant_id":"cogs219_2020_39"},{"rt":477.15499997138977,"stimulus":"Images/dog_1.png","key_press":65,"stim_onset":1583250576793,"block":1,"match_type":"match","image_category":"dog","sound_category":"dog","audio_type":"sound","phase":"test","trial_type":"image-keyboard-response","trial_index":138,"time_elapsed":2700132,"internal_node_id":"0.0-13.0-2.21","match_key":"l","participant_id":"cogs219_2020_39","correct":false},{"rt":null,"stimulus":"Sounds/incorrect.wav","key_press":null,"block":1,"trial_type":"audio-keyboard-response","trial_index":139,"time_elapsed":2702140,"internal_node_id":"0.0-13.0-3.21","match_key":"l","participant_id":"cogs219_2020_39"},{"rt":null,"stimulus":"Sounds/motorcycle_sound.wav","key_press":null,"block":1,"trial_type":"audio-keyboard-response","trial_index":140,"time_elapsed":2703259,"internal_node_id":"0.0-13.0-0.22","match_key":"l","participant_id":"cogs219_2020_39"},{"rt":null,"stimulus":"<p style=\"font-size: 48px;\">+</p>","key_press":null,"block":1,"trial_type":"html-keyboard-response","trial_index":141,"time_elapsed":2704253,"internal_node_id":"0.0-13.0-1.22","match_key":"l","participant_id":"cogs219_2020_39"},{"rt":549.0749999880791,"stimulus":"Images/gun_cartoon.png","key_press":65,"stim_onset":1583250581391,"block":1,"match_type":"non-match","image_category":"gun","sound_category":"motorcycle","audio_type":"sound","phase":"test","trial_type":"image-keyboard-response","trial_index":142,"time_elapsed":2704803,"internal_node_id":"0.0-13.0-2.22","match_key":"l","participant_id":"cogs219_2020_39","correct":true},{"rt":null,"stimulus":"Sounds/correct.wav","key_press":null,"block":1,"trial_type":"audio-keyboard-response","trial_index":143,"time_elapsed":2706813,"internal_node_id":"0.0-13.0-3.22","match_key":"l","participant_id":"cogs219_2020_39"},{"rt":null,"stimulus":"Sounds/motorcycle_label.wav","key_press":null,"block":1,"trial_type":"audio-keyboard-response","trial_index":144,"time_elapsed":2707959,"internal_node_id":"0.0-13.0-0.23","match_key":"l","participant_id":"cogs219_2020_39"},{"rt":null,"stimulus":"<p style=\"font-size: 48px;\">+</p>","key_press":null,"block":1,"trial_type":"html-keyboard-response","trial_index":145,"time_elapsed":2708953,"internal_node_id":"0.0-13.0-1.23","match_key":"l","participant_id":"cogs219_2020_39"},{"rt":600.4749999847263,"stimulus":"Images/whistle_1.png","key_press":65,"stim_onset":1583250586091,"block":1,"match_type":"non-match","image_category":"whistle","sound_category":"motorcycle","audio_type":"label","phase":"test","trial_type":"image-keyboard-response","trial_index":146,"time_elapsed":2709555,"internal_node_id":"0.0-13.0-2.23","match_key":"l","participant_id":"cogs219_2020_39","correct":true},{"rt":null,"stimulus":"Sounds/correct.wav","key_press":null,"block":1,"trial_type":"audio-keyboard-response","trial_index":147,"time_elapsed":2711558,"internal_node_id":"0.0-13.0-3.23","match_key":"l","participant_id":"cogs219_2020_39"},{"rt":null,"stimulus":"Sounds/motorcycle_sound.wav","key_press":null,"block":1,"trial_type":"audio-keyboard-response","trial_index":148,"time_elapsed":2712658,"internal_node_id":"0.0-13.0-0.24","match_key":"l","participant_id":"cogs219_2020_39"},{"rt":null,"stimulus":"<p style=\"font-size: 48px;\">+</p>","key_press":null,"block":1,"trial_type":"html-keyboard-response","trial_index":149,"time_elapsed":2713653,"internal_node_id":"0.0-13.0-1.24","match_key":"l","participant_id":"cogs219_2020_39"},{"rt":749.3400000091642,"stimulus":"Images/cow_orig.png","key_press":65,"stim_onset":1583250590791,"block":1,"match_type":"non-match","image_category":"cow","sound_category":"motorcycle","audio_type":"sound","phase":"test","trial_type":"image-keyboard-response","trial_index":150,"time_elapsed":2714404,"internal_node_id":"0.0-13.0-2.24","match_key":"l","participant_id":"cogs219_2020_39","correct":true},{"rt":null,"stimulus":"Sounds/correct.wav","key_press":null,"block":1,"trial_type":"audio-keyboard-response","trial_index":151,"time_elapsed":2716408,"internal_node_id":"0.0-13.0-3.24","match_key":"l","participant_id":"cogs219_2020_39"},{"rt":null,"stimulus":"Sounds/whistle_sound.wav","key_press":null,"block":1,"trial_type":"audio-keyboard-response","trial_index":152,"time_elapsed":2717099,"internal_node_id":"0.0-13.0-0.25","match_key":"l","participant_id":"cogs219_2020_39"},{"rt":null,"stimulus":"<p style=\"font-size: 48px;\">+</p>","key_press":null,"block":1,"trial_type":"html-keyboard-response","trial_index":153,"time_elapsed":2718103,"internal_node_id":"0.0-13.0-1.25","match_key":"l","participant_id":"cogs219_2020_39"},{"rt":362.74499999079853,"stimulus":"Images/whistle_cartoon.png","key_press":76,"stim_onset":1583250595242,"block":1,"match_type":"match","image_category":"whistle","sound_category":"whistle","audio_type":"sound","phase":"test","trial_type":"image-keyboard-response","trial_index":154,"time_elapsed":2718467,"internal_node_id":"0.0-13.0-2.25","match_key":"l","participant_id":"cogs219_2020_39","correct":true},{"rt":null,"stimulus":"Sounds/correct.wav","key_press":null,"block":1,"trial_type":"audio-keyboard-response","trial_index":155,"time_elapsed":2720477,"internal_node_id":"0.0-13.0-3.25","match_key":"l","participant_id":"cogs219_2020_39"},{"rt":null,"stimulus":"Sounds/car_sound.wav","key_press":null,"block":1,"trial_type":"audio-keyboard-response","trial_index":156,"time_elapsed":2721559,"internal_node_id":"0.0-13.0-0.26","match_key":"l","participant_id":"cogs219_2020_39"},{"rt":null,"stimulus":"<p style=\"font-size: 48px;\">+</p>","key_press":null,"block":1,"trial_type":"html-keyboard-response","trial_index":157,"time_elapsed":2722553,"internal_node_id":"0.0-13.0-1.26","match_key":"l","participant_id":"cogs219_2020_39"},{"rt":521.2099999771453,"stimulus":"Images/gun_orig.png","key_press":65,"stim_onset":1583250599692,"block":1,"match_type":"non-match","image_category":"gun","sound_category":"car","audio_type":"sound","phase":"test","trial_type":"image-keyboard-response","trial_index":158,"time_elapsed":2723075,"internal_node_id":"0.0-13.0-2.26","match_key":"l","participant_id":"cogs219_2020_39","correct":true},{"rt":null,"stimulus":"Sounds/correct.wav","key_press":null,"block":1,"trial_type":"audio-keyboard-response","trial_index":159,"time_elapsed":2725091,"internal_node_id":"0.0-13.0-3.26","match_key":"l","participant_id":"cogs219_2020_39"},{"rt":null,"stimulus":"Sounds/gun_sound.wav","key_press":null,"block":1,"trial_type":"audio-keyboard-response","trial_index":160,"time_elapsed":2725659,"internal_node_id":"0.0-13.0-0.27","match_key":"l","participant_id":"cogs219_2020_39"},{"rt":null,"stimulus":"<p style=\"font-size: 48px;\">+</p>","key_press":null,"block":1,"trial_type":"html-keyboard-response","trial_index":161,"time_elapsed":2726653,"internal_node_id":"0.0-13.0-1.27","match_key":"l","participant_id":"cogs219_2020_39"},{"rt":532.8049999950454,"stimulus":"Images/gun_3.png","key_press":76,"stim_onset":1583250603792,"block":1,"match_type":"match","image_category":"gun","sound_category":"gun","audio_type":"sound","phase":"test","trial_type":"image-keyboard-response","trial_index":162,"time_elapsed":2727187,"internal_node_id":"0.0-13.0-2.27","match_key":"l","participant_id":"cogs219_2020_39","correct":true},{"rt":null,"stimulus":"Sounds/correct.wav","key_press":null,"block":1,"trial_type":"audio-keyboard-response","trial_index":163,"time_elapsed":2729192,"internal_node_id":"0.0-13.0-3.27","match_key":"l","participant_id":"cogs219_2020_39"},{"rt":null,"stimulus":"Sounds/dog_label.wav","key_press":null,"block":1,"trial_type":"audio-keyboard-response","trial_index":164,"time_elapsed":2729859,"internal_node_id":"0.0-13.0-0.28","match_key":"l","participant_id":"cogs219_2020_39"},{"rt":null,"stimulus":"<p style=\"font-size: 48px;\">+</p>","key_press":null,"block":1,"trial_type":"html-keyboard-response","trial_index":165,"time_elapsed":2730853,"internal_node_id":"0.0-13.0-1.28","match_key":"l","participant_id":"cogs219_2020_39"},{"rt":460.76499999593943,"stimulus":"Images/dog_cartoon.png","key_press":76,"stim_onset":1583250607992,"block":1,"match_type":"match","image_category":"dog","sound_category":"dog","audio_type":"label","phase":"test","trial_type":"image-keyboard-response","trial_index":166,"time_elapsed":2731315,"internal_node_id":"0.0-13.0-2.28","match_key":"l","participant_id":"cogs219_2020_39","correct":true},{"rt":null,"stimulus":"Sounds/correct.wav","key_press":null,"block":1,"trial_type":"audio-keyboard-response","trial_index":167,"time_elapsed":2733318,"internal_node_id":"0.0-13.0-3.28","match_key":"l","participant_id":"cogs219_2020_39"},{"rt":null,"stimulus":"Sounds/train_label.wav","key_press":null,"block":1,"trial_type":"audio-keyboard-response","trial_index":168,"time_elapsed":2734599,"internal_node_id":"0.0-13.0-0.29","match_key":"l","participant_id":"cogs219_2020_39"},{"rt":null,"stimulus":"<p style=\"font-size: 48px;\">+</p>","key_press":null,"block":1,"trial_type":"html-keyboard-response","trial_index":169,"time_elapsed":2735604,"internal_node_id":"0.0-13.0-1.29","match_key":"l","participant_id":"cogs219_2020_39"},{"rt":638.7249999972992,"stimulus":"Images/car_2.png","key_press":65,"stim_onset":1583250612742,"block":1,"match_type":"non-match","image_category":"car","sound_category":"train","audio_type":"label","phase":"test","trial_type":"image-keyboard-response","trial_index":170,"time_elapsed":2736244,"internal_node_id":"0.0-13.0-2.29","match_key":"l","participant_id":"cogs219_2020_39","correct":true},{"rt":null,"stimulus":"Sounds/correct.wav","key_press":null,"block":1,"trial_type":"audio-keyboard-response","trial_index":171,"time_elapsed":2738258,"internal_node_id":"0.0-13.0-3.29","match_key":"l","participant_id":"cogs219_2020_39"},{"rt":null,"stimulus":"Sounds/gun_sound.wav","key_press":null,"block":1,"trial_type":"audio-keyboard-response","trial_index":172,"time_elapsed":2738819,"internal_node_id":"0.0-13.0-0.30","match_key":"l","participant_id":"cogs219_2020_39"},{"rt":null,"stimulus":"<p style=\"font-size: 48px;\">+</p>","key_press":null,"block":1,"trial_type":"html-keyboard-response","trial_index":173,"time_elapsed":2739837,"internal_node_id":"0.0-13.0-1.30","match_key":"l","participant_id":"cogs219_2020_39"},{"rt":645.2100000167266,"stimulus":"Images/car_1.png","key_press":65,"stim_onset":1583250616975,"block":1,"match_type":"non-match","image_category":"car","sound_category":"gun","audio_type":"sound","phase":"test","trial_type":"image-keyboard-response","trial_index":174,"time_elapsed":2740483,"internal_node_id":"0.0-13.0-2.30","match_key":"l","participant_id":"cogs219_2020_39","correct":true},{"rt":null,"stimulus":"Sounds/correct.wav","key_press":null,"block":1,"trial_type":"audio-keyboard-response","trial_index":175,"time_elapsed":2742493,"internal_node_id":"0.0-13.0-3.30","match_key":"l","participant_id":"cogs219_2020_39"},{"rt":null,"stimulus":"Sounds/gun_label.wav","key_press":null,"block":1,"trial_type":"audio-keyboard-response","trial_index":176,"time_elapsed":2743079,"internal_node_id":"0.0-13.0-0.31","match_key":"l","participant_id":"cogs219_2020_39"},{"rt":null,"stimulus":"<p style=\"font-size: 48px;\">+</p>","key_press":null,"block":1,"trial_type":"html-keyboard-response","trial_index":177,"time_elapsed":2744070,"internal_node_id":"0.0-13.0-1.31","match_key":"l","participant_id":"cogs219_2020_39"},{"rt":427.89000002108514,"stimulus":"Images/gun_orig.png","key_press":76,"stim_onset":1583250621209,"block":1,"match_type":"match","image_category":"gun","sound_category":"gun","audio_type":"label","phase":"test","trial_type":"image-keyboard-response","trial_index":178,"time_elapsed":2744499,"internal_node_id":"0.0-13.0-2.31","match_key":"l","participant_id":"cogs219_2020_39","correct":true},{"rt":null,"stimulus":"Sounds/correct.wav","key_press":null,"block":1,"trial_type":"audio-keyboard-response","trial_index":179,"time_elapsed":2746509,"internal_node_id":"0.0-13.0-3.31","match_key":"l","participant_id":"cogs219_2020_39"},{"rt":null,"stimulus":"Sounds/whistle_label.wav","key_press":null,"block":1,"trial_type":"audio-keyboard-response","trial_index":180,"time_elapsed":2747199,"internal_node_id":"0.0-13.0-0.32","match_key":"l","participant_id":"cogs219_2020_39"},{"rt":null,"stimulus":"<p style=\"font-size: 48px;\">+</p>","key_press":null,"block":1,"trial_type":"html-keyboard-response","trial_index":181,"time_elapsed":2748187,"internal_node_id":"0.0-13.0-1.32","match_key":"l","participant_id":"cogs219_2020_39"},{"rt":327.55499999644235,"stimulus":"Images/whistle_2.png","key_press":76,"stim_onset":1583250625325,"block":1,"match_type":"match","image_category":"whistle","sound_category":"whistle","audio_type":"label","phase":"test","trial_type":"image-keyboard-response","trial_index":182,"time_elapsed":2748515,"internal_node_id":"0.0-13.0-2.32","match_key":"l","participant_id":"cogs219_2020_39","correct":true},{"rt":null,"stimulus":"Sounds/correct.wav","key_press":null,"block":1,"trial_type":"audio-keyboard-response","trial_index":183,"time_elapsed":2750526,"internal_node_id":"0.0-13.0-3.32","match_key":"l","participant_id":"cogs219_2020_39"},{"rt":null,"stimulus":"Sounds/frog_sound.wav","key_press":null,"block":1,"trial_type":"audio-keyboard-response","trial_index":184,"time_elapsed":2751439,"internal_node_id":"0.0-13.0-0.33","match_key":"l","participant_id":"cogs219_2020_39"},{"rt":null,"stimulus":"<p style=\"font-size: 48px;\">+</p>","key_press":null,"block":1,"trial_type":"html-keyboard-response","trial_index":185,"time_elapsed":2752437,"internal_node_id":"0.0-13.0-1.33","match_key":"l","participant_id":"cogs219_2020_39"},{"rt":365.20999998925254,"stimulus":"Images/frog_cartoon.png","key_press":76,"stim_onset":1583250629575,"block":1,"match_type":"match","image_category":"frog","sound_category":"frog","audio_type":"sound","phase":"test","trial_type":"image-keyboard-response","trial_index":186,"time_elapsed":2752803,"internal_node_id":"0.0-13.0-2.33","match_key":"l","participant_id":"cogs219_2020_39","correct":true},{"rt":null,"stimulus":"Sounds/correct.wav","key_press":null,"block":1,"trial_type":"audio-keyboard-response","trial_index":187,"time_elapsed":2754809,"internal_node_id":"0.0-13.0-3.33","match_key":"l","participant_id":"cogs219_2020_39"},{"rt":null,"stimulus":"Sounds/cow_sound.wav","key_press":null,"block":1,"trial_type":"audio-keyboard-response","trial_index":188,"time_elapsed":2755819,"internal_node_id":"0.0-13.0-0.34","match_key":"l","participant_id":"cogs219_2020_39"},{"rt":null,"stimulus":"<p style=\"font-size: 48px;\">+</p>","key_press":null,"block":1,"trial_type":"html-keyboard-response","trial_index":189,"time_elapsed":2756854,"internal_node_id":"0.0-13.0-1.34","match_key":"l","participant_id":"cogs219_2020_39"},{"rt":380.56499999947846,"stimulus":"Images/cow_1.png","key_press":76,"stim_onset":1583250633992,"block":1,"match_type":"match","image_category":"cow","sound_category":"cow","audio_type":"sound","phase":"test","trial_type":"image-keyboard-response","trial_index":190,"time_elapsed":2757235,"internal_node_id":"0.0-13.0-2.34","match_key":"l","participant_id":"cogs219_2020_39","correct":true},{"rt":null,"stimulus":"Sounds/correct.wav","key_press":null,"block":1,"trial_type":"audio-keyboard-response","trial_index":191,"time_elapsed":2759244,"internal_node_id":"0.0-13.0-3.34","match_key":"l","participant_id":"cogs219_2020_39"},{"rt":null,"stimulus":"Sounds/cat_sound.wav","key_press":null,"block":1,"trial_type":"audio-keyboard-response","trial_index":192,"time_elapsed":2760079,"internal_node_id":"0.0-13.0-0.35","match_key":"l","participant_id":"cogs219_2020_39"},{"rt":null,"stimulus":"<p style=\"font-size: 48px;\">+</p>","key_press":null,"block":1,"trial_type":"html-keyboard-response","trial_index":193,"time_elapsed":2761070,"internal_node_id":"0.0-13.0-1.35","match_key":"l","participant_id":"cogs219_2020_39"},{"rt":484.08500000368804,"stimulus":"Images/frog_2.png","key_press":65,"stim_onset":1583250638209,"block":1,"match_type":"non-match","image_category":"frog","sound_category":"cat","audio_type":"sound","phase":"test","trial_type":"image-keyboard-response","trial_index":194,"time_elapsed":2761556,"internal_node_id":"0.0-13.0-2.35","match_key":"l","participant_id":"cogs219_2020_39","correct":true},{"rt":null,"stimulus":"Sounds/correct.wav","key_press":null,"block":1,"trial_type":"audio-keyboard-response","trial_index":195,"time_elapsed":2763573,"internal_node_id":"0.0-13.0-3.35","match_key":"l","participant_id":"cogs219_2020_39"},{"rt":null,"stimulus":"Sounds/motorcycle_sound.wav","key_press":null,"block":1,"trial_type":"audio-keyboard-response","trial_index":196,"time_elapsed":2764698,"internal_node_id":"0.0-13.0-0.36","match_key":"l","participant_id":"cogs219_2020_39"},{"rt":null,"stimulus":"<p style=\"font-size: 48px;\">+</p>","key_press":null,"block":1,"trial_type":"html-keyboard-response","trial_index":197,"time_elapsed":2765703,"internal_node_id":"0.0-13.0-1.36","match_key":"l","participant_id":"cogs219_2020_39"},{"rt":376.0400000028312,"stimulus":"Images/motorcycle_1.png","key_press":76,"stim_onset":1583250642841,"block":1,"match_type":"match","image_category":"motorcycle","sound_category":"motorcycle","audio_type":"sound","phase":"test","trial_type":"image-keyboard-response","trial_index":198,"time_elapsed":2766082,"internal_node_id":"0.0-13.0-2.36","match_key":"l","participant_id":"cogs219_2020_39","correct":true},{"rt":null,"stimulus":"Sounds/correct.wav","key_press":null,"block":1,"trial_type":"audio-keyboard-response","trial_index":199,"time_elapsed":2768092,"internal_node_id":"0.0-13.0-3.36","match_key":"l","participant_id":"cogs219_2020_39"},{"rt":null,"stimulus":"Sounds/car_label.wav","key_press":null,"block":1,"trial_type":"audio-keyboard-response","trial_index":200,"time_elapsed":2769178,"internal_node_id":"0.0-13.0-0.37","match_key":"l","participant_id":"cogs219_2020_39"},{"rt":null,"stimulus":"<p style=\"font-size: 48px;\">+</p>","key_press":null,"block":1,"trial_type":"html-keyboard-response","trial_index":201,"time_elapsed":2770170,"internal_node_id":"0.0-13.0-1.37","match_key":"l","participant_id":"cogs219_2020_39"},{"rt":535.7150000054389,"stimulus":"Images/car_cartoon.png","key_press":65,"stim_onset":1583250647308,"block":1,"match_type":"match","image_category":"car","sound_category":"car","audio_type":"label","phase":"test","trial_type":"image-keyboard-response","trial_index":202,"time_elapsed":2770706,"internal_node_id":"0.0-13.0-2.37","match_key":"l","participant_id":"cogs219_2020_39","correct":false},{"rt":null,"stimulus":"Sounds/incorrect.wav","key_press":null,"block":1,"trial_type":"audio-keyboard-response","trial_index":203,"time_elapsed":2772710,"internal_node_id":"0.0-13.0-3.37","match_key":"l","participant_id":"cogs219_2020_39"},{"rt":null,"stimulus":"Sounds/whistle_sound.wav","key_press":null,"block":1,"trial_type":"audio-keyboard-response","trial_index":204,"time_elapsed":2773398,"internal_node_id":"0.0-13.0-0.38","match_key":"l","participant_id":"cogs219_2020_39"},{"rt":null,"stimulus":"<p style=\"font-size: 48px;\">+</p>","key_press":null,"block":1,"trial_type":"html-keyboard-response","trial_index":205,"time_elapsed":2774386,"internal_node_id":"0.0-13.0-1.38","match_key":"l","participant_id":"cogs219_2020_39"},{"rt":799.2700000181794,"stimulus":"Images/whistle_3.png","key_press":76,"stim_onset":1583250651524,"block":1,"match_type":"match","image_category":"whistle","sound_category":"whistle","audio_type":"sound","phase":"test","trial_type":"image-keyboard-response","trial_index":206,"time_elapsed":2775187,"internal_node_id":"0.0-13.0-2.38","match_key":"l","participant_id":"cogs219_2020_39","correct":true},{"rt":null,"stimulus":"Sounds/correct.wav","key_press":null,"block":1,"trial_type":"audio-keyboard-response","trial_index":207,"time_elapsed":2777193,"internal_node_id":"0.0-13.0-3.38","match_key":"l","participant_id":"cogs219_2020_39"},{"rt":null,"stimulus":"Sounds/rooster_label.wav","key_press":null,"block":1,"trial_type":"audio-keyboard-response","trial_index":208,"time_elapsed":2777898,"internal_node_id":"0.0-13.0-0.39","match_key":"l","participant_id":"cogs219_2020_39"},{"rt":null,"stimulus":"<p style=\"font-size: 48px;\">+</p>","key_press":null,"block":1,"trial_type":"html-keyboard-response","trial_index":209,"time_elapsed":2778886,"internal_node_id":"0.0-13.0-1.39","match_key":"l","participant_id":"cogs219_2020_39"},{"rt":410.91000000573695,"stimulus":"Images/rooster_1.png","key_press":76,"stim_onset":1583250656025,"block":1,"match_type":"match","image_category":"rooster","sound_category":"rooster","audio_type":"label","phase":"test","trial_type":"image-keyboard-response","trial_index":210,"time_elapsed":2779298,"internal_node_id":"0.0-13.0-2.39","match_key":"l","participant_id":"cogs219_2020_39","correct":true},{"rt":null,"stimulus":"Sounds/correct.wav","key_press":null,"block":1,"trial_type":"audio-keyboard-response","trial_index":211,"time_elapsed":2781306,"internal_node_id":"0.0-13.0-3.39","match_key":"l","participant_id":"cogs219_2020_39"},{"rt":null,"stimulus":"Sounds/rooster_sound.wav","key_press":null,"block":1,"trial_type":"audio-keyboard-response","trial_index":212,"time_elapsed":2781998,"internal_node_id":"0.0-13.0-0.40","match_key":"l","participant_id":"cogs219_2020_39"},{"rt":null,"stimulus":"<p style=\"font-size: 48px;\">+</p>","key_press":null,"block":1,"trial_type":"html-keyboard-response","trial_index":213,"time_elapsed":2782986,"internal_node_id":"0.0-13.0-1.40","match_key":"l","participant_id":"cogs219_2020_39"},{"rt":630.8650000141934,"stimulus":"Images/whistle_orig.png","key_press":65,"stim_onset":1583250660125,"block":1,"match_type":"non-match","image_category":"whistle","sound_category":"rooster","audio_type":"sound","phase":"test","trial_type":"image-keyboard-response","trial_index":214,"time_elapsed":2783618,"internal_node_id":"0.0-13.0-2.40","match_key":"l","participant_id":"cogs219_2020_39","correct":true},{"rt":null,"stimulus":"Sounds/correct.wav","key_press":null,"block":1,"trial_type":"audio-keyboard-response","trial_index":215,"time_elapsed":2785625,"internal_node_id":"0.0-13.0-3.40","match_key":"l","participant_id":"cogs219_2020_39"},{"rt":null,"stimulus":"Sounds/car_label.wav","key_press":null,"block":1,"trial_type":"audio-keyboard-response","trial_index":216,"time_elapsed":2786678,"internal_node_id":"0.0-13.0-0.41","match_key":"l","participant_id":"cogs219_2020_39"},{"rt":null,"stimulus":"<p style=\"font-size: 48px;\">+</p>","key_press":null,"block":1,"trial_type":"html-keyboard-response","trial_index":217,"time_elapsed":2787670,"internal_node_id":"0.0-13.0-1.41","match_key":"l","participant_id":"cogs219_2020_39"},{"rt":523.7600000109524,"stimulus":"Images/cat_3.png","key_press":65,"stim_onset":1583250664808,"block":1,"match_type":"non-match","image_category":"cat","sound_category":"car","audio_type":"label","phase":"test","trial_type":"image-keyboard-response","trial_index":218,"time_elapsed":2788195,"internal_node_id":"0.0-13.0-2.41","match_key":"l","participant_id":"cogs219_2020_39","correct":true},{"rt":null,"stimulus":"Sounds/correct.wav","key_press":null,"block":1,"trial_type":"audio-keyboard-response","trial_index":219,"time_elapsed":2790206,"internal_node_id":"0.0-13.0-3.41","match_key":"l","participant_id":"cogs219_2020_39"},{"rt":null,"stimulus":"Sounds/frog_label.wav","key_press":null,"block":1,"trial_type":"audio-keyboard-response","trial_index":220,"time_elapsed":2791098,"internal_node_id":"0.0-13.0-0.42","match_key":"l","participant_id":"cogs219_2020_39"},{"rt":null,"stimulus":"<p style=\"font-size: 48px;\">+</p>","key_press":null,"block":1,"trial_type":"html-keyboard-response","trial_index":221,"time_elapsed":2792086,"internal_node_id":"0.0-13.0-1.42","match_key":"l","participant_id":"cogs219_2020_39"},{"rt":490.80999998841435,"stimulus":"Images/dog_2.png","key_press":65,"stim_onset":1583250669225,"block":1,"match_type":"non-match","image_category":"dog","sound_category":"frog","audio_type":"label","phase":"test","trial_type":"image-keyboard-response","trial_index":222,"time_elapsed":2792578,"internal_node_id":"0.0-13.0-2.42","match_key":"l","participant_id":"cogs219_2020_39","correct":true},{"rt":null,"stimulus":"Sounds/correct.wav","key_press":null,"block":1,"trial_type":"audio-keyboard-response","trial_index":223,"time_elapsed":2794589,"internal_node_id":"0.0-13.0-3.42","match_key":"l","participant_id":"cogs219_2020_39"},{"rt":null,"stimulus":"Sounds/train_label.wav","key_press":null,"block":1,"trial_type":"audio-keyboard-response","trial_index":224,"time_elapsed":2795858,"internal_node_id":"0.0-13.0-0.43","match_key":"l","participant_id":"cogs219_2020_39"},{"rt":null,"stimulus":"<p style=\"font-size: 48px;\">+</p>","key_press":null,"block":1,"trial_type":"html-keyboard-response","trial_index":225,"time_elapsed":2796853,"internal_node_id":"0.0-13.0-1.43","match_key":"l","participant_id":"cogs219_2020_39"},{"rt":828.0099999979138,"stimulus":"Images/train_orig.png","key_press":76,"stim_onset":1583250673991,"block":1,"match_type":"match","image_category":"train","sound_category":"train","audio_type":"label","phase":"test","trial_type":"image-keyboard-response","trial_index":226,"time_elapsed":2797682,"internal_node_id":"0.0-13.0-2.43","match_key":"l","participant_id":"cogs219_2020_39","correct":true},{"rt":null,"stimulus":"Sounds/correct.wav","key_press":null,"block":1,"trial_type":"audio-keyboard-response","trial_index":227,"time_elapsed":2799693,"internal_node_id":"0.0-13.0-3.43","match_key":"l","participant_id":"cogs219_2020_39"},{"rt":null,"stimulus":"Sounds/train_sound.wav","key_press":null,"block":1,"trial_type":"audio-keyboard-response","trial_index":228,"time_elapsed":2800998,"internal_node_id":"0.0-13.0-0.44","match_key":"l","participant_id":"cogs219_2020_39"},{"rt":null,"stimulus":"<p style=\"font-size: 48px;\">+</p>","key_press":null,"block":1,"trial_type":"html-keyboard-response","trial_index":229,"time_elapsed":2802003,"internal_node_id":"0.0-13.0-1.44","match_key":"l","participant_id":"cogs219_2020_39"},{"rt":782.0500000086613,"stimulus":"Images/train_1.png","key_press":76,"stim_onset":1583250679142,"block":1,"match_type":"match","image_category":"train","sound_category":"train","audio_type":"sound","phase":"test","trial_type":"image-keyboard-response","trial_index":230,"time_elapsed":2802786,"internal_node_id":"0.0-13.0-2.44","match_key":"l","participant_id":"cogs219_2020_39","correct":true},{"rt":null,"stimulus":"Sounds/correct.wav","key_press":null,"block":1,"trial_type":"audio-keyboard-response","trial_index":231,"time_elapsed":2804792,"internal_node_id":"0.0-13.0-3.44","match_key":"l","participant_id":"cogs219_2020_39"},{"rt":null,"stimulus":"Sounds/cow_label.wav","key_press":null,"block":1,"trial_type":"audio-keyboard-response","trial_index":232,"time_elapsed":2805818,"internal_node_id":"0.0-13.0-0.45","match_key":"l","participant_id":"cogs219_2020_39"},{"rt":null,"stimulus":"<p style=\"font-size: 48px;\">+</p>","key_press":null,"block":1,"trial_type":"html-keyboard-response","trial_index":233,"time_elapsed":2806820,"internal_node_id":"0.0-13.0-1.45","match_key":"l","participant_id":"cogs219_2020_39"},{"rt":429.3349999934435,"stimulus":"Images/cow_cartoon.png","key_press":76,"stim_onset":1583250683958,"block":1,"match_type":"match","image_category":"cow","sound_category":"cow","audio_type":"label","phase":"test","trial_type":"image-keyboard-response","trial_index":234,"time_elapsed":2807250,"internal_node_id":"0.0-13.0-2.45","match_key":"l","participant_id":"cogs219_2020_39","correct":true},{"rt":null,"stimulus":"Sounds/correct.wav","key_press":null,"block":1,"trial_type":"audio-keyboard-response","trial_index":235,"time_elapsed":2809261,"internal_node_id":"0.0-13.0-3.45","match_key":"l","participant_id":"cogs219_2020_39"},{"rt":null,"stimulus":"Sounds/gun_label.wav","key_press":null,"block":1,"trial_type":"audio-keyboard-response","trial_index":236,"time_elapsed":2809838,"internal_node_id":"0.0-13.0-0.46","match_key":"l","participant_id":"cogs219_2020_39"},{"rt":null,"stimulus":"<p style=\"font-size: 48px;\">+</p>","key_press":null,"block":1,"trial_type":"html-keyboard-response","trial_index":237,"time_elapsed":2810837,"internal_node_id":"0.0-13.0-1.46","match_key":"l","participant_id":"cogs219_2020_39"},{"rt":572.5899999961257,"stimulus":"Images/train_1.png","key_press":65,"stim_onset":1583250687975,"block":1,"match_type":"non-match","image_category":"train","sound_category":"gun","audio_type":"label","phase":"test","trial_type":"image-keyboard-response","trial_index":238,"time_elapsed":2811410,"internal_node_id":"0.0-13.0-2.46","match_key":"l","participant_id":"cogs219_2020_39","correct":true},{"rt":null,"stimulus":"Sounds/correct.wav","key_press":null,"block":1,"trial_type":"audio-keyboard-response","trial_index":239,"time_elapsed":2813425,"internal_node_id":"0.0-13.0-3.46","match_key":"l","participant_id":"cogs219_2020_39"},{"rt":null,"stimulus":"Sounds/dog_sound.wav","key_press":null,"block":1,"trial_type":"audio-keyboard-response","trial_index":240,"time_elapsed":2814138,"internal_node_id":"0.0-13.0-0.47","match_key":"l","participant_id":"cogs219_2020_39"},{"rt":null,"stimulus":"<p style=\"font-size: 48px;\">+</p>","key_press":null,"block":1,"trial_type":"html-keyboard-response","trial_index":241,"time_elapsed":2815137,"internal_node_id":"0.0-13.0-1.47","match_key":"l","participant_id":"cogs219_2020_39"},{"rt":416.8749999953434,"stimulus":"Images/dog_2.png","key_press":76,"stim_onset":1583250692275,"block":1,"match_type":"match","image_category":"dog","sound_category":"dog","audio_type":"sound","phase":"test","trial_type":"image-keyboard-response","trial_index":242,"time_elapsed":2815555,"internal_node_id":"0.0-13.0-2.47","match_key":"l","participant_id":"cogs219_2020_39","correct":true},{"rt":null,"stimulus":"Sounds/correct.wav","key_press":null,"block":1,"trial_type":"audio-keyboard-response","trial_index":243,"time_elapsed":2817559,"internal_node_id":"0.0-13.0-3.47","match_key":"l","participant_id":"cogs219_2020_39"},{"rt":null,"stimulus":"Sounds/cat_sound.wav","key_press":null,"block":1,"trial_type":"audio-keyboard-response","trial_index":244,"time_elapsed":2818398,"internal_node_id":"0.0-13.0-0.48","match_key":"l","participant_id":"cogs219_2020_39"},{"rt":null,"stimulus":"<p style=\"font-size: 48px;\">+</p>","key_press":null,"block":1,"trial_type":"html-keyboard-response","trial_index":245,"time_elapsed":2819387,"internal_node_id":"0.0-13.0-1.48","match_key":"l","participant_id":"cogs219_2020_39"},{"rt":406.4950000029057,"stimulus":"Images/cat_2.png","key_press":76,"stim_onset":1583250696525,"block":1,"match_type":"match","image_category":"cat","sound_category":"cat","audio_type":"sound","phase":"test","trial_type":"image-keyboard-response","trial_index":246,"time_elapsed":2819794,"internal_node_id":"0.0-13.0-2.48","match_key":"l","participant_id":"cogs219_2020_39","correct":true},{"rt":null,"stimulus":"Sounds/correct.wav","key_press":null,"block":1,"trial_type":"audio-keyboard-response","trial_index":247,"time_elapsed":2821808,"internal_node_id":"0.0-13.0-3.48","match_key":"l","participant_id":"cogs219_2020_39"},{"rt":null,"stimulus":"Sounds/whistle_label.wav","key_press":null,"block":1,"trial_type":"audio-keyboard-response","trial_index":248,"time_elapsed":2822498,"internal_node_id":"0.0-13.0-0.49","match_key":"l","participant_id":"cogs219_2020_39"},{"rt":null,"stimulus":"<p style=\"font-size: 48px;\">+</p>","key_press":null,"block":1,"trial_type":"html-keyboard-response","trial_index":249,"time_elapsed":2823487,"internal_node_id":"0.0-13.0-1.49","match_key":"l","participant_id":"cogs219_2020_39"},{"rt":562.5550000118092,"stimulus":"Images/whistle_1.png","key_press":76,"stim_onset":1583250700625,"block":1,"match_type":"match","image_category":"whistle","sound_category":"whistle","audio_type":"label","phase":"test","trial_type":"image-keyboard-response","trial_index":250,"time_elapsed":2824049,"internal_node_id":"0.0-13.0-2.49","match_key":"l","participant_id":"cogs219_2020_39","correct":true},{"rt":null,"stimulus":"Sounds/correct.wav","key_press":null,"block":1,"trial_type":"audio-keyboard-response","trial_index":251,"time_elapsed":2826058,"internal_node_id":"0.0-13.0-3.49","match_key":"l","participant_id":"cogs219_2020_39"},{"rt":null,"stimulus":"Sounds/cow_label.wav","key_press":null,"block":1,"trial_type":"audio-keyboard-response","trial_index":252,"time_elapsed":2827077,"internal_node_id":"0.0-13.0-0.50","match_key":"l","participant_id":"cogs219_2020_39"},{"rt":null,"stimulus":"<p style=\"font-size: 48px;\">+</p>","key_press":null,"block":1,"trial_type":"html-keyboard-response","trial_index":253,"time_elapsed":2828069,"internal_node_id":"0.0-13.0-1.50","match_key":"l","participant_id":"cogs219_2020_39"},{"rt":459.304999996908,"stimulus":"Images/gun_3.png","key_press":65,"stim_onset":1583250705207,"block":1,"match_type":"non-match","image_category":"gun","sound_category":"cow","audio_type":"label","phase":"test","trial_type":"image-keyboard-response","trial_index":254,"time_elapsed":2828529,"internal_node_id":"0.0-13.0-2.50","match_key":"l","participant_id":"cogs219_2020_39","correct":true},{"rt":null,"stimulus":"Sounds/correct.wav","key_press":null,"block":1,"trial_type":"audio-keyboard-response","trial_index":255,"time_elapsed":2830539,"internal_node_id":"0.0-13.0-3.50","match_key":"l","participant_id":"cogs219_2020_39"},{"rt":null,"stimulus":"Sounds/motorcycle_sound.wav","key_press":null,"block":1,"trial_type":"audio-keyboard-response","trial_index":256,"time_elapsed":2831657,"internal_node_id":"0.0-13.0-0.51","match_key":"l","participant_id":"cogs219_2020_39"},{"rt":null,"stimulus":"<p style=\"font-size: 48px;\">+</p>","key_press":null,"block":1,"trial_type":"html-keyboard-response","trial_index":257,"time_elapsed":2832652,"internal_node_id":"0.0-13.0-1.51","match_key":"l","participant_id":"cogs219_2020_39"},{"rt":371.87999999150634,"stimulus":"Images/motorcycle_3.png","key_press":76,"stim_onset":1583250709791,"block":1,"match_type":"match","image_category":"motorcycle","sound_category":"motorcycle","audio_type":"sound","phase":"test","trial_type":"image-keyboard-response","trial_index":258,"time_elapsed":2833025,"internal_node_id":"0.0-13.0-2.51","match_key":"l","participant_id":"cogs219_2020_39","correct":true},{"rt":null,"stimulus":"Sounds/correct.wav","key_press":null,"block":1,"trial_type":"audio-keyboard-response","trial_index":259,"time_elapsed":2835040,"internal_node_id":"0.0-13.0-3.51","match_key":"l","participant_id":"cogs219_2020_39"},{"rt":null,"stimulus":"Sounds/train_label.wav","key_press":null,"block":1,"trial_type":"audio-keyboard-response","trial_index":260,"time_elapsed":2836317,"internal_node_id":"0.0-13.0-0.52","match_key":"l","participant_id":"cogs219_2020_39"},{"rt":null,"stimulus":"<p style=\"font-size: 48px;\">+</p>","key_press":null,"block":1,"trial_type":"html-keyboard-response","trial_index":261,"time_elapsed":2837319,"internal_node_id":"0.0-13.0-1.52","match_key":"l","participant_id":"cogs219_2020_39"},{"rt":504.8850000021048,"stimulus":"Images/train_2.png","key_press":76,"stim_onset":1583250714457,"block":1,"match_type":"match","image_category":"train","sound_category":"train","audio_type":"label","phase":"test","trial_type":"image-keyboard-response","trial_index":262,"time_elapsed":2837825,"internal_node_id":"0.0-13.0-2.52","match_key":"l","participant_id":"cogs219_2020_39","correct":true},{"rt":null,"stimulus":"Sounds/correct.wav","key_press":null,"block":1,"trial_type":"audio-keyboard-response","trial_index":263,"time_elapsed":2839840,"internal_node_id":"0.0-13.0-3.52","match_key":"l","participant_id":"cogs219_2020_39"},{"rt":null,"stimulus":"Sounds/cat_label.wav","key_press":null,"block":1,"trial_type":"audio-keyboard-response","trial_index":264,"time_elapsed":2840677,"internal_node_id":"0.0-13.0-0.53","match_key":"l","participant_id":"cogs219_2020_39"},{"rt":null,"stimulus":"<p style=\"font-size: 48px;\">+</p>","key_press":null,"block":1,"trial_type":"html-keyboard-response","trial_index":265,"time_elapsed":2841669,"internal_node_id":"0.0-13.0-1.53","match_key":"l","participant_id":"cogs219_2020_39"},{"rt":475.1549999928102,"stimulus":"Images/cat_cartoon.png","key_press":76,"stim_onset":1583250718807,"block":1,"match_type":"match","image_category":"cat","sound_category":"cat","audio_type":"label","phase":"test","trial_type":"image-keyboard-response","trial_index":266,"time_elapsed":2842145,"internal_node_id":"0.0-13.0-2.53","match_key":"l","participant_id":"cogs219_2020_39","correct":true},{"rt":null,"stimulus":"Sounds/correct.wav","key_press":null,"block":1,"trial_type":"audio-keyboard-response","trial_index":267,"time_elapsed":2844163,"internal_node_id":"0.0-13.0-3.53","match_key":"l","participant_id":"cogs219_2020_39"},{"rt":null,"stimulus":"Sounds/cow_sound.wav","key_press":null,"block":1,"trial_type":"audio-keyboard-response","trial_index":268,"time_elapsed":2845177,"internal_node_id":"0.0-13.0-0.54","match_key":"l","participant_id":"cogs219_2020_39"},{"rt":null,"stimulus":"<p style=\"font-size: 48px;\">+</p>","key_press":null,"block":1,"trial_type":"html-keyboard-response","trial_index":269,"time_elapsed":2846169,"internal_node_id":"0.0-13.0-1.54","match_key":"l","participant_id":"cogs219_2020_39"},{"rt":566.7650000248104,"stimulus":"Images/cow_2.png","key_press":76,"stim_onset":1583250723308,"block":1,"match_type":"match","image_category":"cow","sound_category":"cow","audio_type":"sound","phase":"test","trial_type":"image-keyboard-response","trial_index":270,"time_elapsed":2846737,"internal_node_id":"0.0-13.0-2.54","match_key":"l","participant_id":"cogs219_2020_39","correct":true},{"rt":null,"stimulus":"Sounds/correct.wav","key_press":null,"block":1,"trial_type":"audio-keyboard-response","trial_index":271,"time_elapsed":2848741,"internal_node_id":"0.0-13.0-3.54","match_key":"l","participant_id":"cogs219_2020_39"},{"rt":null,"stimulus":"Sounds/cat_label.wav","key_press":null,"block":1,"trial_type":"audio-keyboard-response","trial_index":272,"time_elapsed":2849557,"internal_node_id":"0.0-13.0-0.55","match_key":"l","participant_id":"cogs219_2020_39"},{"rt":null,"stimulus":"<p style=\"font-size: 48px;\">+</p>","key_press":null,"block":1,"trial_type":"html-keyboard-response","trial_index":273,"time_elapsed":2850553,"internal_node_id":"0.0-13.0-1.55","match_key":"l","participant_id":"cogs219_2020_39"},{"rt":487.6900000087917,"stimulus":"Images/cat_1.png","key_press":76,"stim_onset":1583250727691,"block":1,"match_type":"match","image_category":"cat","sound_category":"cat","audio_type":"label","phase":"test","trial_type":"image-keyboard-response","trial_index":274,"time_elapsed":2851041,"internal_node_id":"0.0-13.0-2.55","match_key":"l","participant_id":"cogs219_2020_39","correct":true},{"rt":null,"stimulus":"Sounds/correct.wav","key_press":null,"block":1,"trial_type":"audio-keyboard-response","trial_index":275,"time_elapsed":2853058,"internal_node_id":"0.0-13.0-3.55","match_key":"l","participant_id":"cogs219_2020_39"},{"rt":null,"stimulus":"Sounds/rooster_label.wav","key_press":null,"block":1,"trial_type":"audio-keyboard-response","trial_index":276,"time_elapsed":2853757,"internal_node_id":"0.0-13.0-0.56","match_key":"l","participant_id":"cogs219_2020_39"},{"rt":null,"stimulus":"<p style=\"font-size: 48px;\">+</p>","key_press":null,"block":1,"trial_type":"html-keyboard-response","trial_index":277,"time_elapsed":2854753,"internal_node_id":"0.0-13.0-1.56","match_key":"l","participant_id":"cogs219_2020_39"},{"rt":447.56000000052154,"stimulus":"Images/rooster_orig.png","key_press":76,"stim_onset":1583250731891,"block":1,"match_type":"match","image_category":"rooster","sound_category":"rooster","audio_type":"label","phase":"test","trial_type":"image-keyboard-response","trial_index":278,"time_elapsed":2855201,"internal_node_id":"0.0-13.0-2.56","match_key":"l","participant_id":"cogs219_2020_39","correct":true},{"rt":null,"stimulus":"Sounds/correct.wav","key_press":null,"block":1,"trial_type":"audio-keyboard-response","trial_index":279,"time_elapsed":2857208,"internal_node_id":"0.0-13.0-3.56","match_key":"l","participant_id":"cogs219_2020_39"},{"rt":null,"stimulus":"Sounds/rooster_sound.wav","key_press":null,"block":1,"trial_type":"audio-keyboard-response","trial_index":280,"time_elapsed":2857897,"internal_node_id":"0.0-13.0-0.57","match_key":"l","participant_id":"cogs219_2020_39"},{"rt":null,"stimulus":"<p style=\"font-size: 48px;\">+</p>","key_press":null,"block":1,"trial_type":"html-keyboard-response","trial_index":281,"time_elapsed":2858886,"internal_node_id":"0.0-13.0-1.57","match_key":"l","participant_id":"cogs219_2020_39"},{"rt":474.07500000530854,"stimulus":"Images/train_3.png","key_press":65,"stim_onset":1583250736025,"block":1,"match_type":"non-match","image_category":"train","sound_category":"rooster","audio_type":"sound","phase":"test","trial_type":"image-keyboard-response","trial_index":282,"time_elapsed":2859361,"internal_node_id":"0.0-13.0-2.57","match_key":"l","participant_id":"cogs219_2020_39","correct":true},{"rt":null,"stimulus":"Sounds/correct.wav","key_press":null,"block":1,"trial_type":"audio-keyboard-response","trial_index":283,"time_elapsed":2861375,"internal_node_id":"0.0-13.0-3.57","match_key":"l","participant_id":"cogs219_2020_39"},{"rt":null,"stimulus":"Sounds/rooster_label.wav","key_press":null,"block":1,"trial_type":"audio-keyboard-response","trial_index":284,"time_elapsed":2862057,"internal_node_id":"0.0-13.0-0.58","match_key":"l","participant_id":"cogs219_2020_39"},{"rt":null,"stimulus":"<p style=\"font-size: 48px;\">+</p>","key_press":null,"block":1,"trial_type":"html-keyboard-response","trial_index":285,"time_elapsed":2863053,"internal_node_id":"0.0-13.0-1.58","match_key":"l","participant_id":"cogs219_2020_39"},{"rt":467.41500002052635,"stimulus":"Images/gun_2.png","key_press":65,"stim_onset":1583250740191,"block":1,"match_type":"non-match","image_category":"gun","sound_category":"rooster","audio_type":"label","phase":"test","trial_type":"image-keyboard-response","trial_index":286,"time_elapsed":2863521,"internal_node_id":"0.0-13.0-2.58","match_key":"l","participant_id":"cogs219_2020_39","correct":true},{"rt":null,"stimulus":"Sounds/correct.wav","key_press":null,"block":1,"trial_type":"audio-keyboard-response","trial_index":287,"time_elapsed":2865525,"internal_node_id":"0.0-13.0-3.58","match_key":"l","participant_id":"cogs219_2020_39"},{"rt":null,"stimulus":"Sounds/train_label.wav","key_press":null,"block":1,"trial_type":"audio-keyboard-response","trial_index":288,"time_elapsed":2866797,"internal_node_id":"0.0-13.0-0.59","match_key":"l","participant_id":"cogs219_2020_39"},{"rt":null,"stimulus":"<p style=\"font-size: 48px;\">+</p>","key_press":null,"block":1,"trial_type":"html-keyboard-response","trial_index":289,"time_elapsed":2867786,"internal_node_id":"0.0-13.0-1.59","match_key":"l","participant_id":"cogs219_2020_39"},{"rt":454.26500000758097,"stimulus":"Images/frog_3.png","key_press":65,"stim_onset":1583250744925,"block":1,"match_type":"non-match","image_category":"frog","sound_category":"train","audio_type":"label","phase":"test","trial_type":"image-keyboard-response","trial_index":290,"time_elapsed":2868242,"internal_node_id":"0.0-13.0-2.59","match_key":"l","participant_id":"cogs219_2020_39","correct":true},{"rt":null,"stimulus":"Sounds/correct.wav","key_press":null,"block":1,"trial_type":"audio-keyboard-response","trial_index":291,"time_elapsed":2870258,"internal_node_id":"0.0-13.0-3.59","match_key":"l","participant_id":"cogs219_2020_39"},{"rt":null,"stimulus":"Sounds/rooster_label.wav","key_press":null,"block":1,"trial_type":"audio-keyboard-response","trial_index":292,"time_elapsed":2870937,"internal_node_id":"0.0-13.0-0.60","match_key":"l","participant_id":"cogs219_2020_39"},{"rt":null,"stimulus":"<p style=\"font-size: 48px;\">+</p>","key_press":null,"block":1,"trial_type":"html-keyboard-response","trial_index":293,"time_elapsed":2871936,"internal_node_id":"0.0-13.0-1.60","match_key":"l","participant_id":"cogs219_2020_39"},{"rt":639.9500000118278,"stimulus":"Images/dog_cartoon.png","key_press":65,"stim_onset":1583250749074,"block":1,"match_type":"non-match","image_category":"dog","sound_category":"rooster","audio_type":"label","phase":"test","trial_type":"image-keyboard-response","trial_index":294,"time_elapsed":2872577,"internal_node_id":"0.0-13.0-2.60","match_key":"l","participant_id":"cogs219_2020_39","correct":true},{"rt":null,"stimulus":"Sounds/correct.wav","key_press":null,"block":1,"trial_type":"audio-keyboard-response","trial_index":295,"time_elapsed":2874585,"internal_node_id":"0.0-13.0-3.60","match_key":"l","participant_id":"cogs219_2020_39"},{"rt":null,"stimulus":"Sounds/rooster_sound.wav","key_press":null,"block":1,"trial_type":"audio-keyboard-response","trial_index":296,"time_elapsed":2875257,"internal_node_id":"0.0-13.0-0.61","match_key":"l","participant_id":"cogs219_2020_39"},{"rt":null,"stimulus":"<p style=\"font-size: 48px;\">+</p>","key_press":null,"block":1,"trial_type":"html-keyboard-response","trial_index":297,"time_elapsed":2876253,"internal_node_id":"0.0-13.0-1.61","match_key":"l","participant_id":"cogs219_2020_39"},{"rt":355.089999997057,"stimulus":"Images/rooster_2.png","key_press":76,"stim_onset":1583250753391,"block":1,"match_type":"match","image_category":"rooster","sound_category":"rooster","audio_type":"sound","phase":"test","trial_type":"image-keyboard-response","trial_index":298,"time_elapsed":2876609,"internal_node_id":"0.0-13.0-2.61","match_key":"l","participant_id":"cogs219_2020_39","correct":true},{"rt":null,"stimulus":"Sounds/correct.wav","key_press":null,"block":1,"trial_type":"audio-keyboard-response","trial_index":299,"time_elapsed":2878625,"internal_node_id":"0.0-13.0-3.61","match_key":"l","participant_id":"cogs219_2020_39"},{"rt":null,"stimulus":"Sounds/gun_label.wav","key_press":null,"block":1,"trial_type":"audio-keyboard-response","trial_index":300,"time_elapsed":2879197,"internal_node_id":"0.0-13.0-0.62","match_key":"l","participant_id":"cogs219_2020_39"},{"rt":null,"stimulus":"<p style=\"font-size: 48px;\">+</p>","key_press":null,"block":1,"trial_type":"html-keyboard-response","trial_index":301,"time_elapsed":2880186,"internal_node_id":"0.0-13.0-1.62","match_key":"l","participant_id":"cogs219_2020_39"},{"rt":502.05999999912456,"stimulus":"Images/motorcycle_cartoon.png","key_press":65,"stim_onset":1583250757325,"block":1,"match_type":"non-match","image_category":"motorcycle","sound_category":"gun","audio_type":"label","phase":"test","trial_type":"image-keyboard-response","trial_index":302,"time_elapsed":2880689,"internal_node_id":"0.0-13.0-2.62","match_key":"l","participant_id":"cogs219_2020_39","correct":true},{"rt":null,"stimulus":"Sounds/correct.wav","key_press":null,"block":1,"trial_type":"audio-keyboard-response","trial_index":303,"time_elapsed":2882707,"internal_node_id":"0.0-13.0-3.62","match_key":"l","participant_id":"cogs219_2020_39"},{"rt":null,"stimulus":"Sounds/frog_sound.wav","key_press":null,"block":1,"trial_type":"audio-keyboard-response","trial_index":304,"time_elapsed":2883617,"internal_node_id":"0.0-13.0-0.63","match_key":"l","participant_id":"cogs219_2020_39"},{"rt":null,"stimulus":"<p style=\"font-size: 48px;\">+</p>","key_press":null,"block":1,"trial_type":"html-keyboard-response","trial_index":305,"time_elapsed":2884619,"internal_node_id":"0.0-13.0-1.63","match_key":"l","participant_id":"cogs219_2020_39"},{"rt":500.67999999737367,"stimulus":"Images/frog_orig.png","key_press":76,"stim_onset":1583250761757,"block":1,"match_type":"match","image_category":"frog","sound_category":"frog","audio_type":"sound","phase":"test","trial_type":"image-keyboard-response","trial_index":306,"time_elapsed":2885121,"internal_node_id":"0.0-13.0-2.63","match_key":"l","participant_id":"cogs219_2020_39","correct":true},{"rt":null,"stimulus":"Sounds/correct.wav","key_press":null,"block":1,"trial_type":"audio-keyboard-response","trial_index":307,"time_elapsed":2887126,"internal_node_id":"0.0-13.0-3.63","match_key":"l","participant_id":"cogs219_2020_39"},{"rt":null,"stimulus":"Sounds/dog_sound.wav","key_press":null,"block":1,"trial_type":"audio-keyboard-response","trial_index":308,"time_elapsed":2887836,"internal_node_id":"0.0-13.0-0.64","match_key":"l","participant_id":"cogs219_2020_39"},{"rt":null,"stimulus":"<p style=\"font-size: 48px;\">+</p>","key_press":null,"block":1,"trial_type":"html-keyboard-response","trial_index":309,"time_elapsed":2888836,"internal_node_id":"0.0-13.0-1.64","match_key":"l","participant_id":"cogs219_2020_39"},{"rt":635.8649999895133,"stimulus":"Images/frog_orig.png","key_press":65,"stim_onset":1583250765974,"block":1,"match_type":"non-match","image_category":"frog","sound_category":"dog","audio_type":"sound","phase":"test","trial_type":"image-keyboard-response","trial_index":310,"time_elapsed":2889473,"internal_node_id":"0.0-13.0-2.64","match_key":"l","participant_id":"cogs219_2020_39","correct":true},{"rt":null,"stimulus":"Sounds/correct.wav","key_press":null,"block":1,"trial_type":"audio-keyboard-response","trial_index":311,"time_elapsed":2891490,"internal_node_id":"0.0-13.0-3.64","match_key":"l","participant_id":"cogs219_2020_39"},{"rt":null,"stimulus":"Sounds/cow_sound.wav","key_press":null,"block":1,"trial_type":"audio-keyboard-response","trial_index":312,"time_elapsed":2892516,"internal_node_id":"0.0-13.0-0.65","match_key":"l","participant_id":"cogs219_2020_39"},{"rt":null,"stimulus":"<p style=\"font-size: 48px;\">+</p>","key_press":null,"block":1,"trial_type":"html-keyboard-response","trial_index":313,"time_elapsed":2893519,"internal_node_id":"0.0-13.0-1.65","match_key":"l","participant_id":"cogs219_2020_39"},{"rt":384.5499999881722,"stimulus":"Images/cow_orig.png","key_press":76,"stim_onset":1583250770657,"block":1,"match_type":"match","image_category":"cow","sound_category":"cow","audio_type":"sound","phase":"test","trial_type":"image-keyboard-response","trial_index":314,"time_elapsed":2893905,"internal_node_id":"0.0-13.0-2.65","match_key":"l","participant_id":"cogs219_2020_39","correct":true},{"rt":null,"stimulus":"Sounds/correct.wav","key_press":null,"block":1,"trial_type":"audio-keyboard-response","trial_index":315,"time_elapsed":2895922,"internal_node_id":"0.0-13.0-3.65","match_key":"l","participant_id":"cogs219_2020_39"},{"rt":null,"stimulus":"Sounds/cow_sound.wav","key_press":null,"block":1,"trial_type":"audio-keyboard-response","trial_index":316,"time_elapsed":2896916,"internal_node_id":"0.0-13.0-0.66","match_key":"l","participant_id":"cogs219_2020_39"},{"rt":null,"stimulus":"<p style=\"font-size: 48px;\">+</p>","key_press":null,"block":1,"trial_type":"html-keyboard-response","trial_index":317,"time_elapsed":2897919,"internal_node_id":"0.0-13.0-1.66","match_key":"l","participant_id":"cogs219_2020_39"},{"rt":464.5149999996647,"stimulus":"Images/dog_3.png","key_press":65,"stim_onset":1583250775057,"block":1,"match_type":"non-match","image_category":"dog","sound_category":"cow","audio_type":"sound","phase":"test","trial_type":"image-keyboard-response","trial_index":318,"time_elapsed":2898385,"internal_node_id":"0.0-13.0-2.66","match_key":"l","participant_id":"cogs219_2020_39","correct":true},{"rt":null,"stimulus":"Sounds/correct.wav","key_press":null,"block":1,"trial_type":"audio-keyboard-response","trial_index":319,"time_elapsed":2900387,"internal_node_id":"0.0-13.0-3.66","match_key":"l","participant_id":"cogs219_2020_39"},{"rt":null,"stimulus":"Sounds/cat_label.wav","key_press":null,"block":1,"trial_type":"audio-keyboard-response","trial_index":320,"time_elapsed":2901216,"internal_node_id":"0.0-13.0-0.67","match_key":"l","participant_id":"cogs219_2020_39"},{"rt":null,"stimulus":"<p style=\"font-size: 48px;\">+</p>","key_press":null,"block":1,"trial_type":"html-keyboard-response","trial_index":321,"time_elapsed":2902219,"internal_node_id":"0.0-13.0-1.67","match_key":"l","participant_id":"cogs219_2020_39"},{"rt":627.940000005532,"stimulus":"Images/rooster_orig.png","key_press":65,"stim_onset":1583250779358,"block":1,"match_type":"non-match","image_category":"rooster","sound_category":"cat","audio_type":"label","phase":"test","trial_type":"image-keyboard-response","trial_index":322,"time_elapsed":2902849,"internal_node_id":"0.0-13.0-2.67","match_key":"l","participant_id":"cogs219_2020_39","correct":true},{"rt":null,"stimulus":"Sounds/correct.wav","key_press":null,"block":1,"trial_type":"audio-keyboard-response","trial_index":323,"time_elapsed":2904858,"internal_node_id":"0.0-13.0-3.67","match_key":"l","participant_id":"cogs219_2020_39"},{"rt":null,"stimulus":"Sounds/dog_sound.wav","key_press":null,"block":1,"trial_type":"audio-keyboard-response","trial_index":324,"time_elapsed":2905576,"internal_node_id":"0.0-13.0-0.68","match_key":"l","participant_id":"cogs219_2020_39"},{"rt":null,"stimulus":"<p style=\"font-size: 48px;\">+</p>","key_press":null,"block":1,"trial_type":"html-keyboard-response","trial_index":325,"time_elapsed":2906569,"internal_node_id":"0.0-13.0-1.68","match_key":"l","participant_id":"cogs219_2020_39"},{"rt":518.4099999894388,"stimulus":"Images/dog_orig.png","key_press":76,"stim_onset":1583250783708,"block":1,"match_type":"match","image_category":"dog","sound_category":"dog","audio_type":"sound","phase":"test","trial_type":"image-keyboard-response","trial_index":326,"time_elapsed":2907089,"internal_node_id":"0.0-13.0-2.68","match_key":"l","participant_id":"cogs219_2020_39","correct":true},{"rt":null,"stimulus":"Sounds/correct.wav","key_press":null,"block":1,"trial_type":"audio-keyboard-response","trial_index":327,"time_elapsed":2909095,"internal_node_id":"0.0-13.0-3.68","match_key":"l","participant_id":"cogs219_2020_39"},{"rt":null,"stimulus":"Sounds/car_sound.wav","key_press":null,"block":1,"trial_type":"audio-keyboard-response","trial_index":328,"time_elapsed":2910176,"internal_node_id":"0.0-13.0-0.69","match_key":"l","participant_id":"cogs219_2020_39"},{"rt":null,"stimulus":"<p style=\"font-size: 48px;\">+</p>","key_press":null,"block":1,"trial_type":"html-keyboard-response","trial_index":329,"time_elapsed":2911169,"internal_node_id":"0.0-13.0-1.69","match_key":"l","participant_id":"cogs219_2020_39"},{"rt":638.1950000068173,"stimulus":"Images/car_orig.png","key_press":76,"stim_onset":1583250788308,"block":1,"match_type":"match","image_category":"car","sound_category":"car","audio_type":"sound","phase":"test","trial_type":"image-keyboard-response","trial_index":330,"time_elapsed":2911809,"internal_node_id":"0.0-13.0-2.69","match_key":"l","participant_id":"cogs219_2020_39","correct":true},{"rt":null,"stimulus":"Sounds/correct.wav","key_press":null,"block":1,"trial_type":"audio-keyboard-response","trial_index":331,"time_elapsed":2913824,"internal_node_id":"0.0-13.0-3.69","match_key":"l","participant_id":"cogs219_2020_39"},{"rt":null,"stimulus":"Sounds/train_sound.wav","key_press":null,"block":1,"trial_type":"audio-keyboard-response","trial_index":332,"time_elapsed":2915116,"internal_node_id":"0.0-13.0-0.70","match_key":"l","participant_id":"cogs219_2020_39"},{"rt":null,"stimulus":"<p style=\"font-size: 48px;\">+</p>","key_press":null,"block":1,"trial_type":"html-keyboard-response","trial_index":333,"time_elapsed":2916119,"internal_node_id":"0.0-13.0-1.70","match_key":"l","participant_id":"cogs219_2020_39"},{"rt":488.1199999945238,"stimulus":"Images/train_3.png","key_press":76,"stim_onset":1583250793258,"block":1,"match_type":"match","image_category":"train","sound_category":"train","audio_type":"sound","phase":"test","trial_type":"image-keyboard-response","trial_index":334,"time_elapsed":2916609,"internal_node_id":"0.0-13.0-2.70","match_key":"l","participant_id":"cogs219_2020_39","correct":true},{"rt":null,"stimulus":"Sounds/correct.wav","key_press":null,"block":1,"trial_type":"audio-keyboard-response","trial_index":335,"time_elapsed":2918623,"internal_node_id":"0.0-13.0-3.70","match_key":"l","participant_id":"cogs219_2020_39"},{"rt":null,"stimulus":"Sounds/gun_label.wav","key_press":null,"block":1,"trial_type":"audio-keyboard-response","trial_index":336,"time_elapsed":2919196,"internal_node_id":"0.0-13.0-0.71","match_key":"l","participant_id":"cogs219_2020_39"},{"rt":null,"stimulus":"<p style=\"font-size: 48px;\">+</p>","key_press":null,"block":1,"trial_type":"html-keyboard-response","trial_index":337,"time_elapsed":2920186,"internal_node_id":"0.0-13.0-1.71","match_key":"l","participant_id":"cogs219_2020_39"},{"rt":421.72499999264255,"stimulus":"Images/gun_2.png","key_press":76,"stim_onset":1583250797324,"block":1,"match_type":"match","image_category":"gun","sound_category":"gun","audio_type":"label","phase":"test","trial_type":"image-keyboard-response","trial_index":338,"time_elapsed":2920609,"internal_node_id":"0.0-13.0-2.71","match_key":"l","participant_id":"cogs219_2020_39","correct":true},{"rt":null,"stimulus":"Sounds/correct.wav","key_press":null,"block":1,"trial_type":"audio-keyboard-response","trial_index":339,"time_elapsed":2922623,"internal_node_id":"0.0-13.0-3.71","match_key":"l","participant_id":"cogs219_2020_39"},{"rt":null,"stimulus":"Sounds/dog_label.wav","key_press":null,"block":1,"trial_type":"audio-keyboard-response","trial_index":340,"time_elapsed":2923276,"internal_node_id":"0.0-13.0-0.72","match_key":"l","participant_id":"cogs219_2020_39"},{"rt":null,"stimulus":"<p style=\"font-size: 48px;\">+</p>","key_press":null,"block":1,"trial_type":"html-keyboard-response","trial_index":341,"time_elapsed":2924270,"internal_node_id":"0.0-13.0-1.72","match_key":"l","participant_id":"cogs219_2020_39"},{"rt":658.1249999874271,"stimulus":"Images/car_cartoon.png","key_press":65,"stim_onset":1583250801408,"block":1,"match_type":"non-match","image_category":"car","sound_category":"dog","audio_type":"label","phase":"test","trial_type":"image-keyboard-response","trial_index":342,"time_elapsed":2924929,"internal_node_id":"0.0-13.0-2.72","match_key":"l","participant_id":"cogs219_2020_39","correct":true},{"rt":null,"stimulus":"Sounds/correct.wav","key_press":null,"block":1,"trial_type":"audio-keyboard-response","trial_index":343,"time_elapsed":2926940,"internal_node_id":"0.0-13.0-3.72","match_key":"l","participant_id":"cogs219_2020_39"},{"rt":null,"stimulus":"Sounds/car_label.wav","key_press":null,"block":1,"trial_type":"audio-keyboard-response","trial_index":344,"time_elapsed":2928016,"internal_node_id":"0.0-13.0-0.73","match_key":"l","participant_id":"cogs219_2020_39"},{"rt":null,"stimulus":"<p style=\"font-size: 48px;\">+</p>","key_press":null,"block":1,"trial_type":"html-keyboard-response","trial_index":345,"time_elapsed":2929020,"internal_node_id":"0.0-13.0-1.73","match_key":"l","participant_id":"cogs219_2020_39"},{"rt":516.0650000036694,"stimulus":"Images/cow_2.png","key_press":65,"stim_onset":1583250806158,"block":1,"match_type":"non-match","image_category":"cow","sound_category":"car","audio_type":"label","phase":"test","trial_type":"image-keyboard-response","trial_index":346,"time_elapsed":2929537,"internal_node_id":"0.0-13.0-2.73","match_key":"l","participant_id":"cogs219_2020_39","correct":true},{"rt":null,"stimulus":"Sounds/correct.wav","key_press":null,"block":1,"trial_type":"audio-keyboard-response","trial_index":347,"time_elapsed":2931542,"internal_node_id":"0.0-13.0-3.73","match_key":"l","participant_id":"cogs219_2020_39"},{"rt":null,"stimulus":"Sounds/train_sound.wav","key_press":null,"block":1,"trial_type":"audio-keyboard-response","trial_index":348,"time_elapsed":2932816,"internal_node_id":"0.0-13.0-0.74","match_key":"l","participant_id":"cogs219_2020_39"},{"rt":null,"stimulus":"<p style=\"font-size: 48px;\">+</p>"