[{"rt":18112.89000000005,"responses":"{\"Q0\":\"COGS_2020_17\"}","trial_type":"survey-text","trial_index":0,"time_elapsed":18144,"internal_node_id":"0.0-0.0","match_key":"l","participant_id":"COGS_2020_17"},{"rt":99942.23499999999,"stimulus":"<p>Use KEYBOARD 1 (match RIGHT)</p><p>Press MATCH to continue.</p>","key_press":76,"trial_type":"html-keyboard-response","trial_index":1,"time_elapsed":118187,"internal_node_id":"0.0-1.0","match_key":"l","participant_id":"COGS_2020_17"},{"rt":1746093.5500000003,"stimulus":"<p>Welcome to the experiment.</p>","key_press":32,"trial_type":"html-keyboard-response","trial_index":2,"time_elapsed":1864541,"internal_node_id":"0.0-2.0","match_key":"l","participant_id":"COGS_2020_17"},{"rt":9881.000000000233,"stimulus":"<p>Thank you for agreeing to participate in this study.</p><p>If during any part of the procedure you must stop for any reason, please inform the researcher that you do not wish to continue.</p>","key_press":32,"trial_type":"html-keyboard-response","trial_index":3,"time_elapsed":1874427,"internal_node_id":"0.0-3.0","match_key":"l","participant_id":"COGS_2020_17"},{"rt":15966.625,"stimulus":"<p>In this experiment, you will hear various words or sounds and see pictures of various animals and objects.</p><p>Most of the images will be of common everyday objects, such as cars, cats, cows, firearms, frogs, chickens, whistles, trains, motorcycles, and dogs.</p><p>Some of the images will be real-life stills, while others will be cartoons.</p>","key_press":32,"trial_type":"html-keyboard-response","trial_index":4,"time_elapsed":1890396,"internal_node_id":"0.0-4.0","match_key":"l","participant_id":"COGS_2020_17"},{"rt":13390.634999999544,"stimulus":"<p>Sometimes, the word/sound will match the picture, for example you'll hear a meowing sound and see a cat.</p><p>Other times, the picture will not match the sound or word.</p><p>Your task is to decide as quickly as possible if the word/sound matches the picture or not. </p>","key_press":32,"trial_type":"html-keyboard-response","trial_index":5,"time_elapsed":1903787,"internal_node_id":"0.0-5.0","match_key":"l","participant_id":"COGS_2020_17"},{"rt":15838.485000000102,"stimulus":"<p>For example, if you hear the word \"cat\" or hear a meowing sound, and then see a picture of a cat, you should press the MATCH key.</p><p> If the sound and image do not match, press the NOT-MATCH key to indicate that there is not a match.</p>","key_press":32,"trial_type":"html-keyboard-response","trial_index":6,"time_elapsed":1919627,"internal_node_id":"0.0-6.0","match_key":"l","participant_id":"COGS_2020_17"},{"rt":12447.054999999935,"stimulus":"<p>If you make a mistake, you will hear a buzzing sound instead of a more pleasant sound.</p><p> Try to respond as quickly as possible, while making as few errors as possible. If you are making mistakes, you are probably rushing.</p>","key_press":32,"trial_type":"html-keyboard-response","trial_index":7,"time_elapsed":1932066,"internal_node_id":"0.0-7.0","match_key":"l","participant_id":"COGS_2020_17"},{"rt":12574.390000000363,"stimulus":"<p>Please try to not move or blink your eyes during the presentation of the images. You can move and blink between images.</p><p>During the experiment there will be some breaks during which you can rest your eyes.</p>","key_press":32,"trial_type":"html-keyboard-response","trial_index":8,"time_elapsed":1944642,"internal_node_id":"0.0-8.0","match_key":"l","participant_id":"COGS_2020_17"},{"rt":91471.69999999949,"stimulus":"<p>We will begin with 10 practice trials. Please let the experimenter know if you have any questions.</p>","key_press":76,"trial_type":"html-keyboard-response","trial_index":9,"time_elapsed":2036131,"internal_node_id":"0.0-9.0","match_key":"l","participant_id":"COGS_2020_17"},{"rt":null,"stimulus":"Sounds/rooster_sound.wav","key_press":null,"block":0,"trial_type":"audio-keyboard-response","trial_index":10,"time_elapsed":2036918,"internal_node_id":"0.0-10.0-0.0","match_key":"l","participant_id":"COGS_2020_17"},{"rt":null,"stimulus":"<p style=\"font-size: 48px;\">+</p>","key_press":null,"block":0,"trial_type":"html-keyboard-response","trial_index":11,"time_elapsed":2037923,"internal_node_id":"0.0-10.0-1.0","match_key":"l","participant_id":"COGS_2020_17"},{"rt":1277.065000000177,"stimulus":"Images/rooster_orig.png","key_press":76,"stim_onset":1581968526724,"block":0,"match_type":"match","image_category":"rooster","sound_category":"rooster","audio_type":"sound","phase":"practice","trial_type":"image-keyboard-response","trial_index":12,"time_elapsed":2039202,"internal_node_id":"0.0-10.0-2.0","match_key":"l","participant_id":"COGS_2020_17","correct":true},{"rt":null,"stimulus":"Sounds/correct.wav","key_press":null,"block":0,"trial_type":"audio-keyboard-response","trial_index":13,"time_elapsed":2041216,"internal_node_id":"0.0-10.0-3.0","match_key":"l","participant_id":"COGS_2020_17"},{"rt":null,"stimulus":"Sounds/rooster_label.wav","key_press":null,"block":0,"trial_type":"audio-keyboard-response","trial_index":14,"time_elapsed":2041918,"internal_node_id":"0.0-10.0-0.1","match_key":"l","participant_id":"COGS_2020_17"},{"rt":null,"stimulus":"<p style=\"font-size: 48px;\">+</p>","key_press":null,"block":0,"trial_type":"html-keyboard-response","trial_index":15,"time_elapsed":2042906,"internal_node_id":"0.0-10.0-1.1","match_key":"l","participant_id":"COGS_2020_17"},{"rt":2342.4150000000373,"stimulus":"Images/gun_cartoon.png","key_press":65,"stim_onset":1581968531708,"block":0,"match_type":"non-match","image_category":"gun","sound_category":"rooster","audio_type":"label","phase":"practice","trial_type":"image-keyboard-response","trial_index":16,"time_elapsed":2045250,"internal_node_id":"0.0-10.0-2.1","match_key":"l","participant_id":"COGS_2020_17","correct":true},{"rt":null,"stimulus":"Sounds/correct.wav","key_press":null,"block":0,"trial_type":"audio-keyboard-response","trial_index":17,"time_elapsed":2047263,"internal_node_id":"0.0-10.0-3.1","match_key":"l","participant_id":"COGS_2020_17"},{"rt":null,"stimulus":"Sounds/motorcycle_sound.wav","key_press":null,"block":0,"trial_type":"audio-keyboard-response","trial_index":18,"time_elapsed":2048378,"internal_node_id":"0.0-10.0-0.2","match_key":"l","participant_id":"COGS_2020_17"},{"rt":null,"stimulus":"<p style=\"font-size: 48px;\">+</p>","key_press":null,"block":0,"trial_type":"html-keyboard-response","trial_index":19,"time_elapsed":2049373,"internal_node_id":"0.0-10.0-1.2","match_key":"l","participant_id":"COGS_2020_17"},{"rt":756.0900000003166,"stimulus":"Images/motorcycle_3.png","key_press":76,"stim_onset":1581968538174,"block":0,"match_type":"match","image_category":"motorcycle","sound_category":"motorcycle","audio_type":"sound","phase":"practice","trial_type":"image-keyboard-response","trial_index":20,"time_elapsed":2050130,"internal_node_id":"0.0-10.0-2.2","match_key":"l","participant_id":"COGS_2020_17","correct":true},{"rt":null,"stimulus":"Sounds/correct.wav","key_press":null,"block":0,"trial_type":"audio-keyboard-response","trial_index":21,"time_elapsed":2052143,"internal_node_id":"0.0-10.0-3.2","match_key":"l","participant_id":"COGS_2020_17"},{"rt":null,"stimulus":"Sounds/cow_sound.wav","key_press":null,"block":0,"trial_type":"audio-keyboard-response","trial_index":22,"time_elapsed":2053158,"internal_node_id":"0.0-10.0-0.3","match_key":"l","participant_id":"COGS_2020_17"},{"rt":null,"stimulus":"<p style=\"font-size: 48px;\">+</p>","key_press":null,"block":0,"trial_type":"html-keyboard-response","trial_index":23,"time_elapsed":2054159,"internal_node_id":"0.0-10.0-1.3","match_key":"l","participant_id":"COGS_2020_17"},{"rt":628.4899999999907,"stimulus":"Images/cat_2.png","key_press":65,"stim_onset":1581968542960,"block":0,"match_type":"non-match","image_category":"cat","sound_category":"cow","audio_type":"sound","phase":"practice","trial_type":"image-keyboard-response","trial_index":24,"time_elapsed":2054789,"internal_node_id":"0.0-10.0-2.3","match_key":"l","participant_id":"COGS_2020_17","correct":true},{"rt":null,"stimulus":"Sounds/correct.wav","key_press":null,"block":0,"trial_type":"audio-keyboard-response","trial_index":25,"time_elapsed":2056799,"internal_node_id":"0.0-10.0-3.3","match_key":"l","participant_id":"COGS_2020_17"},{"rt":null,"stimulus":"Sounds/frog_sound.wav","key_press":null,"block":0,"trial_type":"audio-keyboard-response","trial_index":26,"time_elapsed":2057701,"internal_node_id":"0.0-10.0-0.4","match_key":"l","participant_id":"COGS_2020_17"},{"rt":null,"stimulus":"<p style=\"font-size: 48px;\">+</p>","key_press":null,"block":0,"trial_type":"html-keyboard-response","trial_index":27,"time_elapsed":2058692,"internal_node_id":"0.0-10.0-1.4","match_key":"l","participant_id":"COGS_2020_17"},{"rt":623.1050000002142,"stimulus":"Images/train_3.png","key_press":65,"stim_onset":1581968547494,"block":0,"match_type":"non-match","image_category":"train","sound_category":"frog","audio_type":"sound","phase":"practice","trial_type":"image-keyboard-response","trial_index":28,"time_elapsed":2059317,"internal_node_id":"0.0-10.0-2.4","match_key":"l","participant_id":"COGS_2020_17","correct":true},{"rt":null,"stimulus":"Sounds/correct.wav","key_press":null,"block":0,"trial_type":"audio-keyboard-response","trial_index":29,"time_elapsed":2061330,"internal_node_id":"0.0-10.0-3.4","match_key":"l","participant_id":"COGS_2020_17"},{"rt":null,"stimulus":"Sounds/motorcycle_sound.wav","key_press":null,"block":0,"trial_type":"audio-keyboard-response","trial_index":30,"time_elapsed":2062420,"internal_node_id":"0.0-10.0-0.5","match_key":"l","participant_id":"COGS_2020_17"},{"rt":null,"stimulus":"<p style=\"font-size: 48px;\">+</p>","key_press":null,"block":0,"trial_type":"html-keyboard-response","trial_index":31,"time_elapsed":2063426,"internal_node_id":"0.0-10.0-1.5","match_key":"l","participant_id":"COGS_2020_17"},{"rt":625.5299999997951,"stimulus":"Images/frog_cartoon.png","key_press":65,"stim_onset":1581968552227,"block":0,"match_type":"non-match","image_category":"frog","sound_category":"motorcycle","audio_type":"sound","phase":"practice","trial_type":"image-keyboard-response","trial_index":32,"time_elapsed":2064053,"internal_node_id":"0.0-10.0-2.5","match_key":"l","participant_id":"COGS_2020_17","correct":true},{"rt":null,"stimulus":"Sounds/correct.wav","key_press":null,"block":0,"trial_type":"audio-keyboard-response","trial_index":33,"time_elapsed":2066063,"internal_node_id":"0.0-10.0-3.5","match_key":"l","participant_id":"COGS_2020_17"},{"rt":null,"stimulus":"Sounds/cat_sound.wav","key_press":null,"block":0,"trial_type":"audio-keyboard-response","trial_index":34,"time_elapsed":2066900,"internal_node_id":"0.0-10.0-0.6","match_key":"l","participant_id":"COGS_2020_17"},{"rt":null,"stimulus":"<p style=\"font-size: 48px;\">+</p>","key_press":null,"block":0,"trial_type":"html-keyboard-response","trial_index":35,"time_elapsed":2067893,"internal_node_id":"0.0-10.0-1.6","match_key":"l","participant_id":"COGS_2020_17"},{"rt":751.070000000298,"stimulus":"Images/cat_cartoon.png","key_press":76,"stim_onset":1581968556694,"block":0,"match_type":"match","image_category":"cat","sound_category":"cat","audio_type":"sound","phase":"practice","trial_type":"image-keyboard-response","trial_index":36,"time_elapsed":2068645,"internal_node_id":"0.0-10.0-2.6","match_key":"l","participant_id":"COGS_2020_17","correct":true},{"rt":null,"stimulus":"Sounds/correct.wav","key_press":null,"block":0,"trial_type":"audio-keyboard-response","trial_index":37,"time_elapsed":2070649,"internal_node_id":"0.0-10.0-3.6","match_key":"l","participant_id":"COGS_2020_17"},{"rt":null,"stimulus":"Sounds/rooster_sound.wav","key_press":null,"block":0,"trial_type":"audio-keyboard-response","trial_index":38,"time_elapsed":2071340,"internal_node_id":"0.0-10.0-0.7","match_key":"l","participant_id":"COGS_2020_17"},{"rt":null,"stimulus":"<p style=\"font-size: 48px;\">+</p>","key_press":null,"block":0,"trial_type":"html-keyboard-response","trial_index":39,"time_elapsed":2072343,"internal_node_id":"0.0-10.0-1.7","match_key":"l","participant_id":"COGS_2020_17"},{"rt":620.8699999998789,"stimulus":"Images/motorcycle_orig.png","key_press":65,"stim_onset":1581968561144,"block":0,"match_type":"non-match","image_category":"motorcycle","sound_category":"rooster","audio_type":"sound","phase":"practice","trial_type":"image-keyboard-response","trial_index":40,"time_elapsed":2072965,"internal_node_id":"0.0-10.0-2.7","match_key":"l","participant_id":"COGS_2020_17","correct":true},{"rt":null,"stimulus":"Sounds/correct.wav","key_press":null,"block":0,"trial_type":"audio-keyboard-response","trial_index":41,"time_elapsed":2074981,"internal_node_id":"0.0-10.0-3.7","match_key":"l","participant_id":"COGS_2020_17"},{"rt":null,"stimulus":"Sounds/car_sound.wav","key_press":null,"block":0,"trial_type":"audio-keyboard-response","trial_index":42,"time_elapsed":2076060,"internal_node_id":"0.0-10.0-0.8","match_key":"l","participant_id":"COGS_2020_17"},{"rt":null,"stimulus":"<p style=\"font-size: 48px;\">+</p>","key_press":null,"block":0,"trial_type":"html-keyboard-response","trial_index":43,"time_elapsed":2077059,"internal_node_id":"0.0-10.0-1.8","match_key":"l","participant_id":"COGS_2020_17"},{"rt":720.4949999998789,"stimulus":"Images/cow_orig.png","key_press":65,"stim_onset":1581968565860,"block":0,"match_type":"non-match","image_category":"cow","sound_category":"car","audio_type":"sound","phase":"practice","trial_type":"image-keyboard-response","trial_index":44,"time_elapsed":2077781,"internal_node_id":"0.0-10.0-2.8","match_key":"l","participant_id":"COGS_2020_17","correct":true},{"rt":null,"stimulus":"Sounds/correct.wav","key_press":null,"block":0,"trial_type":"audio-keyboard-response","trial_index":45,"time_elapsed":2079797,"internal_node_id":"0.0-10.0-3.8","match_key":"l","participant_id":"COGS_2020_17"},{"rt":null,"stimulus":"Sounds/frog_label.wav","key_press":null,"block":0,"trial_type":"audio-keyboard-response","trial_index":46,"time_elapsed":2080700,"internal_node_id":"0.0-10.0-0.9","match_key":"l","participant_id":"COGS_2020_17"},{"rt":null,"stimulus":"<p style=\"font-size: 48px;\">+</p>","key_press":null,"block":0,"trial_type":"html-keyboard-response","trial_index":47,"time_elapsed":2081693,"internal_node_id":"0.0-10.0-1.9","match_key":"l","participant_id":"COGS_2020_17"},{"rt":534.7699999997858,"stimulus":"Images/frog_cartoon.png","key_press":76,"stim_onset":1581968570494,"block":0,"match_type":"match","image_category":"frog","sound_category":"frog","audio_type":"label","phase":"practice","trial_type":"image-keyboard-response","trial_index":48,"time_elapsed":2082228,"internal_node_id":"0.0-10.0-2.9","match_key":"l","participant_id":"COGS_2020_17","correct":true},{"rt":null,"stimulus":"Sounds/correct.wav","key_press":null,"block":0,"trial_type":"audio-keyboard-response","trial_index":49,"time_elapsed":2084246,"internal_node_id":"0.0-10.0-3.9","match_key":"l","participant_id":"COGS_2020_17"},{"rt":27197.519999999786,"stimulus":"<p>The rest of the experiment is divided into five blocks with 100 trials in each block. It will take about 45 minutes to complete.</p><p>The experimenter will be in the outer room and you can communicate with them through the monitor if you have any questions or wish to stop the experiment.</p>","key_press":13,"trial_type":"html-keyboard-response","trial_index":50,"time_elapsed":2111445,"internal_node_id":"0.0-11.0","match_key":"l","participant_id":"COGS_2020_17"},{"rt":34255.46500000032,"stimulus":"<p>Remember, please try not to move or blink your eyes during the presentation of the images. </p><p>At the end of the experiment, we will show you your scores on the task so you can see how you did.</p><p>The experiment will start on the next screen.</p>","key_press":76,"trial_type":"html-keyboard-response","trial_index":51,"time_elapsed":2145701,"internal_node_id":"0.0-12.0","match_key":"l","participant_id":"COGS_2020_17"},{"rt":null,"stimulus":"Sounds/rooster_label.wav","key_press":null,"block":1,"trial_type":"audio-keyboard-response","trial_index":52,"time_elapsed":2148420,"internal_node_id":"0.0-13.0-0.0","match_key":"l","participant_id":"COGS_2020_17"},{"rt":null,"stimulus":"<p style=\"font-size: 48px;\">+</p>","key_press":null,"block":1,"trial_type":"html-keyboard-response","trial_index":53,"time_elapsed":2149411,"internal_node_id":"0.0-13.0-1.0","match_key":"l","participant_id":"COGS_2020_17"},{"rt":1281.5200000000186,"stimulus":"Images/rooster_cartoon.png","key_press":76,"stim_onset":1581968638212,"block":1,"match_type":"match","image_category":"rooster","sound_category":"rooster","audio_type":"label","phase":"test","trial_type":"image-keyboard-response","trial_index":54,"time_elapsed":2150693,"internal_node_id":"0.0-13.0-2.0","match_key":"l","participant_id":"COGS_2020_17","correct":true},{"rt":null,"stimulus":"Sounds/correct.wav","key_press":null,"block":1,"trial_type":"audio-keyboard-response","trial_index":55,"time_elapsed":2152701,"internal_node_id":"0.0-13.0-3.0","match_key":"l","participant_id":"COGS_2020_17"},{"rt":null,"stimulus":"Sounds/car_sound.wav","key_press":null,"block":1,"trial_type":"audio-keyboard-response","trial_index":56,"time_elapsed":2153781,"internal_node_id":"0.0-13.0-0.1","match_key":"l","participant_id":"COGS_2020_17"},{"rt":null,"stimulus":"<p style=\"font-size: 48px;\">+</p>","key_press":null,"block":1,"trial_type":"html-keyboard-response","trial_index":57,"time_elapsed":2154777,"internal_node_id":"0.0-13.0-1.1","match_key":"l","participant_id":"COGS_2020_17"},{"rt":3818.975000000093,"stimulus":"Images/car_cartoon.png","key_press":76,"stim_onset":1581968643578,"block":1,"match_type":"match","image_category":"car","sound_category":"car","audio_type":"sound","phase":"test","trial_type":"image-keyboard-response","trial_index":58,"time_elapsed":2158597,"internal_node_id":"0.0-13.0-2.1","match_key":"l","participant_id":"COGS_2020_17","correct":true},{"rt":null,"stimulus":"Sounds/correct.wav","key_press":null,"block":1,"trial_type":"audio-keyboard-response","trial_index":59,"time_elapsed":2160603,"internal_node_id":"0.0-13.0-3.1","match_key":"l","participant_id":"COGS_2020_17"},{"rt":null,"stimulus":"Sounds/gun_label.wav","key_press":null,"block":1,"trial_type":"audio-keyboard-response","trial_index":60,"time_elapsed":2161180,"internal_node_id":"0.0-13.0-0.2","match_key":"l","participant_id":"COGS_2020_17"},{"rt":null,"stimulus":"<p style=\"font-size: 48px;\">+</p>","key_press":null,"block":1,"trial_type":"html-keyboard-response","trial_index":61,"time_elapsed":2162177,"internal_node_id":"0.0-13.0-1.2","match_key":"l","participant_id":"COGS_2020_17"},{"rt":578.6850000000559,"stimulus":"Images/gun_cartoon.png","key_press":76,"stim_onset":1581968650979,"block":1,"match_type":"match","image_category":"gun","sound_category":"gun","audio_type":"label","phase":"test","trial_type":"image-keyboard-response","trial_index":62,"time_elapsed":2162757,"internal_node_id":"0.0-13.0-2.2","match_key":"l","participant_id":"COGS_2020_17","correct":true},{"rt":null,"stimulus":"Sounds/correct.wav","key_press":null,"block":1,"trial_type":"audio-keyboard-response","trial_index":63,"time_elapsed":2164769,"internal_node_id":"0.0-13.0-3.2","match_key":"l","participant_id":"COGS_2020_17"},{"rt":null,"stimulus":"Sounds/cow_label.wav","key_press":null,"block":1,"trial_type":"audio-keyboard-response","trial_index":64,"time_elapsed":2165780,"internal_node_id":"0.0-13.0-0.3","match_key":"l","participant_id":"COGS_2020_17"},{"rt":null,"stimulus":"<p style=\"font-size: 48px;\">+</p>","key_press":null,"block":1,"trial_type":"html-keyboard-response","trial_index":65,"time_elapsed":2166777,"internal_node_id":"0.0-13.0-1.3","match_key":"l","participant_id":"COGS_2020_17"},{"rt":1370.554999999702,"stimulus":"Images/cat_cartoon.png","key_press":65,"stim_onset":1581968655578,"block":1,"match_type":"non-match","image_category":"cat","sound_category":"cow","audio_type":"label","phase":"test","trial_type":"image-keyboard-response","trial_index":66,"time_elapsed":2168149,"internal_node_id":"0.0-13.0-2.3","match_key":"l","participant_id":"COGS_2020_17","correct":true},{"rt":null,"stimulus":"Sounds/correct.wav","key_press":null,"block":1,"trial_type":"audio-keyboard-response","trial_index":67,"time_elapsed":2170152,"internal_node_id":"0.0-13.0-3.3","match_key":"l","participant_id":"COGS_2020_17"},{"rt":null,"stimulus":"Sounds/dog_label.wav","key_press":null,"block":1,"trial_type":"audio-keyboard-response","trial_index":68,"time_elapsed":2170820,"internal_node_id":"0.0-13.0-0.4","match_key":"l","participant_id":"COGS_2020_17"},{"rt":null,"stimulus":"<p style=\"font-size: 48px;\">+</p>","key_press":null,"block":1,"trial_type":"html-keyboard-response","trial_index":69,"time_elapsed":2171828,"internal_node_id":"0.0-13.0-1.4","match_key":"l","participant_id":"COGS_2020_17"},{"rt":640.2450000001118,"stimulus":"Images/gun_2.png","key_press":65,"stim_onset":1581968660629,"block":1,"match_type":"non-match","image_category":"gun","sound_category":"dog","audio_type":"label","phase":"test","trial_type":"image-keyboard-response","trial_index":70,"time_elapsed":2172469,"internal_node_id":"0.0-13.0-2.4","match_key":"l","participant_id":"COGS_2020_17","correct":true},{"rt":null,"stimulus":"Sounds/correct.wav","key_press":null,"block":1,"trial_type":"audio-keyboard-response","trial_index":71,"time_elapsed":2174482,"internal_node_id":"0.0-13.0-3.4","match_key":"l","participant_id":"COGS_2020_17"},{"rt":null,"stimulus":"Sounds/motorcycle_label.wav","key_press":null,"block":1,"trial_type":"audio-keyboard-response","trial_index":72,"time_elapsed":2175620,"internal_node_id":"0.0-13.0-0.5","match_key":"l","participant_id":"COGS_2020_17"},{"rt":null,"stimulus":"<p style=\"font-size: 48px;\">+</p>","key_press":null,"block":1,"trial_type":"html-keyboard-response","trial_index":73,"time_elapsed":2176611,"internal_node_id":"0.0-13.0-1.5","match_key":"l","participant_id":"COGS_2020_17"},{"rt":609.089999999851,"stimulus":"Images/whistle_cartoon.png","key_press":65,"stim_onset":1581968665412,"block":1,"match_type":"non-match","image_category":"whistle","sound_category":"motorcycle","audio_type":"label","phase":"test","trial_type":"image-keyboard-response","trial_index":74,"time_elapsed":2177221,"internal_node_id":"0.0-13.0-2.5","match_key":"l","participant_id":"COGS_2020_17","correct":true},{"rt":null,"stimulus":"Sounds/correct.wav","key_press":null,"block":1,"trial_type":"audio-keyboard-response","trial_index":75,"time_elapsed":2179232,"internal_node_id":"0.0-13.0-3.5","match_key":"l","participant_id":"COGS_2020_17"},{"rt":null,"stimulus":"Sounds/car_sound.wav","key_press":null,"block":1,"trial_type":"audio-keyboard-response","trial_index":76,"time_elapsed":2180301,"internal_node_id":"0.0-13.0-0.6","match_key":"l","participant_id":"COGS_2020_17"},{"rt":null,"stimulus":"<p style=\"font-size: 48px;\">+</p>","key_press":null,"block":1,"trial_type":"html-keyboard-response","trial_index":77,"time_elapsed":2181295,"internal_node_id":"0.0-13.0-1.6","match_key":"l","participant_id":"COGS_2020_17"},{"rt":1157.8100000000559,"stimulus":"Images/car_orig.png","key_press":76,"stim_onset":1581968670096,"block":1,"match_type":"match","image_category":"car","sound_category":"car","audio_type":"sound","phase":"test","trial_type":"image-keyboard-response","trial_index":78,"time_elapsed":2182454,"internal_node_id":"0.0-13.0-2.6","match_key":"l","participant_id":"COGS_2020_17","correct":true},{"rt":null,"stimulus":"Sounds/correct.wav","key_press":null,"block":1,"trial_type":"audio-keyboard-response","trial_index":79,"time_elapsed":2184465,"internal_node_id":"0.0-13.0-3.6","match_key":"l","participant_id":"COGS_2020_17"},{"rt":null,"stimulus":"Sounds/whistle_sound.wav","key_press":null,"block":1,"trial_type":"audio-keyboard-response","trial_index":80,"time_elapsed":2185161,"internal_node_id":"0.0-13.0-0.7","match_key":"l","participant_id":"COGS_2020_17"},{"rt":null,"stimulus":"<p style=\"font-size: 48px;\">+</p>","key_press":null,"block":1,"trial_type":"html-keyboard-response","trial_index":81,"time_elapsed":2186178,"internal_node_id":"0.0-13.0-1.7","match_key":"l","participant_id":"COGS_2020_17"},{"rt":530.6850000000559,"stimulus":"Images/whistle_orig.png","key_press":76,"stim_onset":1581968674980,"block":1,"match_type":"match","image_category":"whistle","sound_category":"whistle","audio_type":"sound","phase":"test","trial_type":"image-keyboard-response","trial_index":82,"time_elapsed":2186710,"internal_node_id":"0.0-13.0-2.7","match_key":"l","participant_id":"COGS_2020_17","correct":true},{"rt":null,"stimulus":"Sounds/correct.wav","key_press":null,"block":1,"trial_type":"audio-keyboard-response","trial_index":83,"time_elapsed":2188717,"internal_node_id":"0.0-13.0-3.7","match_key":"l","participant_id":"COGS_2020_17"},{"rt":null,"stimulus":"Sounds/dog_sound.wav","key_press":null,"block":1,"trial_type":"audio-keyboard-response","trial_index":84,"time_elapsed":2189421,"internal_node_id":"0.0-13.0-0.8","match_key":"l","participant_id":"COGS_2020_17"},{"rt":null,"stimulus":"<p style=\"font-size: 48px;\">+</p>","key_press":null,"block":1,"trial_type":"html-keyboard-response","trial_index":85,"time_elapsed":2190412,"internal_node_id":"0.0-13.0-1.8","match_key":"l","participant_id":"COGS_2020_17"},{"rt":1369.0750000001863,"stimulus":"Images/rooster_orig.png","key_press":65,"stim_onset":1581968679213,"block":1,"match_type":"non-match","image_category":"rooster","sound_category":"dog","audio_type":"sound","phase":"test","trial_type":"image-keyboard-response","trial_index":86,"time_elapsed":2191782,"internal_node_id":"0.0-13.0-2.8","match_key":"l","participant_id":"COGS_2020_17","correct":true},{"rt":null,"stimulus":"Sounds/correct.wav","key_press":null,"block":1,"trial_type":"audio-keyboard-response","trial_index":87,"time_elapsed":2193788,"internal_node_id":"0.0-13.0-3.8","match_key":"l","participant_id":"COGS_2020_17"},{"rt":null,"stimulus":"Sounds/motorcycle_sound.wav","key_press":null,"block":1,"trial_type":"audio-keyboard-response","trial_index":88,"time_elapsed":2194901,"internal_node_id":"0.0-13.0-0.9","match_key":"l","participant_id":"COGS_2020_17"},{"rt":null,"stimulus":"<p style=\"font-size: 48px;\">+</p>","key_press":null,"block":1,"trial_type":"html-keyboard-response","trial_index":89,"time_elapsed":2195895,"internal_node_id":"0.0-13.0-1.9","match_key":"l","participant_id":"COGS_2020_17"},{"rt":2621.880000000354,"stimulus":"Images/car_2.png","key_press":76,"stim_onset":1581968684696,"block":1,"match_type":"non-match","image_category":"car","sound_category":"motorcycle","audio_type":"sound","phase":"test","trial_type":"image-keyboard-response","trial_index":90,"time_elapsed":2198518,"internal_node_id":"0.0-13.0-2.9","match_key":"l","participant_id":"COGS_2020_17","correct":false},{"rt":null,"stimulus":"Sounds/incorrect.wav","key_press":null,"block":1,"trial_type":"audio-keyboard-response","trial_index":91,"time_elapsed":2200535,"internal_node_id":"0.0-13.0-3.9","match_key":"l","participant_id":"COGS_2020_17"},{"rt":null,"stimulus":"Sounds/rooster_label.wav","key_press":null,"block":1,"trial_type":"audio-keyboard-response","trial_index":92,"time_elapsed":2201241,"internal_node_id":"0.0-13.0-0.10","match_key":"l","participant_id":"COGS_2020_17"},{"rt":null,"stimulus":"<p style=\"font-size: 48px;\">+</p>","key_press":null,"block":1,"trial_type":"html-keyboard-response","trial_index":93,"time_elapsed":2202245,"internal_node_id":"0.0-13.0-1.10","match_key":"l","participant_id":"COGS_2020_17"},{"rt":559.4799999999814,"stimulus":"Images/whistle_1.png","key_press":65,"stim_onset":1581968691046,"block":1,"match_type":"non-match","image_category":"whistle","sound_category":"rooster","audio_type":"label","phase":"test","trial_type":"image-keyboard-response","trial_index":94,"time_elapsed":2202806,"internal_node_id":"0.0-13.0-2.10","match_key":"l","participant_id":"COGS_2020_17","correct":true},{"rt":null,"stimulus":"Sounds/correct.wav","key_press":null,"block":1,"trial_type":"audio-keyboard-response","trial_index":95,"time_elapsed":2204817,"internal_node_id":"0.0-13.0-3.10","match_key":"l","participant_id":"COGS_2020_17"},{"rt":null,"stimulus":"Sounds/gun_label.wav","key_press":null,"block":1,"trial_type":"audio-keyboard-response","trial_index":96,"time_elapsed":2205401,"internal_node_id":"0.0-13.0-0.11","match_key":"l","participant_id":"COGS_2020_17"},{"rt":null,"stimulus":"<p style=\"font-size: 48px;\">+</p>","key_press":null,"block":1,"trial_type":"html-keyboard-response","trial_index":97,"time_elapsed":2206395,"internal_node_id":"0.0-13.0-1.11","match_key":"l","participant_id":"COGS_2020_17"},{"rt":521.5249999999069,"stimulus":"Images/car_1.png","key_press":65,"stim_onset":1581968695197,"block":1,"match_type":"non-match","image_category":"car","sound_category":"gun","audio_type":"label","phase":"test","trial_type":"image-keyboard-response","trial_index":98,"time_elapsed":2206918,"internal_node_id":"0.0-13.0-2.11","match_key":"l","participant_id":"COGS_2020_17","correct":true},{"rt":null,"stimulus":"Sounds/correct.wav","key_press":null,"block":1,"trial_type":"audio-keyboard-response","trial_index":99,"time_elapsed":2208933,"internal_node_id":"0.0-13.0-3.11","match_key":"l","participant_id":"COGS_2020_17"},{"rt":null,"stimulus":"Sounds/cow_label.wav","key_press":null,"block":1,"trial_type":"audio-keyboard-response","trial_index":100,"time_elapsed":2209961,"internal_node_id":"0.0-13.0-0.12","match_key":"l","participant_id":"COGS_2020_17"},{"rt":null,"stimulus":"<p style=\"font-size: 48px;\">+</p>","key_press":null,"block":1,"trial_type":"html-keyboard-response","trial_index":101,"time_elapsed":2210979,"internal_node_id":"0.0-13.0-1.12","match_key":"l","participant_id":"COGS_2020_17"},{"rt":610.445000000298,"stimulus":"Images/cow_1.png","key_press":76,"stim_onset":1581968699780,"block":1,"match_type":"match","image_category":"cow","sound_category":"cow","audio_type":"label","phase":"test","trial_type":"image-keyboard-response","trial_index":102,"time_elapsed":2211590,"internal_node_id":"0.0-13.0-2.12","match_key":"l","participant_id":"COGS_2020_17","correct":true},{"rt":null,"stimulus":"Sounds/correct.wav","key_press":null,"block":1,"trial_type":"audio-keyboard-response","trial_index":103,"time_elapsed":2213599,"internal_node_id":"0.0-13.0-3.12","match_key":"l","participant_id":"COGS_2020_17"},{"rt":null,"stimulus":"Sounds/rooster_sound.wav","key_press":null,"block":1,"trial_type":"audio-keyboard-response","trial_index":104,"time_elapsed":2214301,"internal_node_id":"0.0-13.0-0.13","match_key":"l","participant_id":"COGS_2020_17"},{"rt":null,"stimulus":"<p style=\"font-size: 48px;\">+</p>","key_press":null,"block":1,"trial_type":"html-keyboard-response","trial_index":105,"time_elapsed":2215295,"internal_node_id":"0.0-13.0-1.13","match_key":"l","participant_id":"COGS_2020_17"},{"rt":565.6200000001118,"stimulus":"Images/cat_2.png","key_press":65,"stim_onset":1581968704097,"block":1,"match_type":"non-match","image_category":"cat","sound_category":"rooster","audio_type":"sound","phase":"test","trial_type":"image-keyboard-response","trial_index":106,"time_elapsed":2215862,"internal_node_id":"0.0-13.0-2.13","match_key":"l","participant_id":"COGS_2020_17","correct":true},{"rt":null,"stimulus":"Sounds/correct.wav","key_press":null,"block":1,"trial_type":"audio-keyboard-response","trial_index":107,"time_elapsed":2217868,"internal_node_id":"0.0-13.0-3.13","match_key":"l","participant_id":"COGS_2020_17"},{"rt":null,"stimulus":"Sounds/cat_sound.wav","key_press":null,"block":1,"trial_type":"audio-keyboard-response","trial_index":108,"time_elapsed":2218701,"internal_node_id":"0.0-13.0-0.14","match_key":"l","participant_id":"COGS_2020_17"},{"rt":null,"stimulus":"<p style=\"font-size: 48px;\">+</p>","key_press":null,"block":1,"trial_type":"html-keyboard-response","trial_index":109,"time_elapsed":2219695,"internal_node_id":"0.0-13.0-1.14","match_key":"l","participant_id":"COGS_2020_17"},{"rt":645.4950000001118,"stimulus":"Images/cow_3.png","key_press":65,"stim_onset":1581968708497,"block":1,"match_type":"non-match","image_category":"cow","sound_category":"cat","audio_type":"sound","phase":"test","trial_type":"image-keyboard-response","trial_index":110,"time_elapsed":2220342,"internal_node_id":"0.0-13.0-2.14","match_key":"l","participant_id":"COGS_2020_17","correct":true},{"rt":null,"stimulus":"Sounds/correct.wav","key_press":null,"block":1,"trial_type":"audio-keyboard-response","trial_index":111,"time_elapsed":2222352,"internal_node_id":"0.0-13.0-3.14","match_key":"l","participant_id":"COGS_2020_17"},{"rt":null,"stimulus":"Sounds/cow_label.wav","key_press":null,"block":1,"trial_type":"audio-keyboard-response","trial_index":112,"time_elapsed":2223341,"internal_node_id":"0.0-13.0-0.15","match_key":"l","participant_id":"COGS_2020_17"},{"rt":null,"stimulus":"<p style=\"font-size: 48px;\">+</p>","key_press":null,"block":1,"trial_type":"html-keyboard-response","trial_index":113,"time_elapsed":2224346,"internal_node_id":"0.0-13.0-1.15","match_key":"l","participant_id":"COGS_2020_17"},{"rt":635.5,"stimulus":"Images/cow_cartoon.png","key_press":76,"stim_onset":1581968713147,"block":1,"match_type":"match","image_category":"cow","sound_category":"cow","audio_type":"label","phase":"test","trial_type":"image-keyboard-response","trial_index":114,"time_elapsed":2224982,"internal_node_id":"0.0-13.0-2.15","match_key":"l","participant_id":"COGS_2020_17","correct":true},{"rt":null,"stimulus":"Sounds/correct.wav","key_press":null,"block":1,"trial_type":"audio-keyboard-response","trial_index":115,"time_elapsed":2227000,"internal_node_id":"0.0-13.0-3.15","match_key":"l","participant_id":"COGS_2020_17"},{"rt":null,"stimulus":"Sounds/car_label.wav","key_press":null,"block":1,"trial_type":"audio-keyboard-response","trial_index":116,"time_elapsed":2228081,"internal_node_id":"0.0-13.0-0.16","match_key":"l","participant_id":"COGS_2020_17"},{"rt":null,"stimulus":"<p style=\"font-size: 48px;\">+</p>","key_press":null,"block":1,"trial_type":"html-keyboard-response","trial_index":117,"time_elapsed":2229079,"internal_node_id":"0.0-13.0-1.16","match_key":"l","participant_id":"COGS_2020_17"},{"rt":590.1200000005774,"stimulus":"Images/cow_orig.png","key_press":65,"stim_onset":1581968717880,"block":1,"match_type":"non-match","image_category":"cow","sound_category":"car","audio_type":"label","phase":"test","trial_type":"image-keyboard-response","trial_index":118,"time_elapsed":2229670,"internal_node_id":"0.0-13.0-2.16","match_key":"l","participant_id":"COGS_2020_17","correct":true},{"rt":null,"stimulus":"Sounds/correct.wav","key_press":null,"block":1,"trial_type":"audio-keyboard-response","trial_index":119,"time_elapsed":2231684,"internal_node_id":"0.0-13.0-3.16","match_key":"l","participant_id":"COGS_2020_17"},{"rt":null,"stimulus":"Sounds/gun_label.wav","key_press":null,"block":1,"trial_type":"audio-keyboard-response","trial_index":120,"time_elapsed":2232261,"internal_node_id":"0.0-13.0-0.17","match_key":"l","participant_id":"COGS_2020_17"},{"rt":null,"stimulus":"<p style=\"font-size: 48px;\">+</p>","key_press":null,"block":1,"trial_type":"html-keyboard-response","trial_index":121,"time_elapsed":2233279,"internal_node_id":"0.0-13.0-1.17","match_key":"l","participant_id":"COGS_2020_17"},{"rt":645.9049999997951,"stimulus":"Images/train_2.png","key_press":65,"stim_onset":1581968722080,"block":1,"match_type":"non-match","image_category":"train","sound_category":"gun","audio_type":"label","phase":"test","trial_type":"image-keyboard-response","trial_index":122,"time_elapsed":2233926,"internal_node_id":"0.0-13.0-2.17","match_key":"l","participant_id":"COGS_2020_17","correct":true},{"rt":null,"stimulus":"Sounds/correct.wav","key_press":null,"block":1,"trial_type":"audio-keyboard-response","trial_index":123,"time_elapsed":2235934,"internal_node_id":"0.0-13.0-3.17","match_key":"l","participant_id":"COGS_2020_17"},{"rt":null,"stimulus":"Sounds/motorcycle_sound.wav","key_press":null,"block":1,"trial_type":"audio-keyboard-response","trial_index":124,"time_elapsed":2237061,"internal_node_id":"0.0-13.0-0.18","match_key":"l","participant_id":"COGS_2020_17"},{"rt":null,"stimulus":"<p style=\"font-size: 48px;\">+</p>","key_press":null,"block":1,"trial_type":"html-keyboard-response","trial_index":125,"time_elapsed":2238079,"internal_node_id":"0.0-13.0-1.18","match_key":"l","participant_id":"COGS_2020_17"},{"rt":1221.6800000001676,"stimulus":"Images/motorcycle_cartoon.png","key_press":76,"stim_onset":1581968726880,"block":1,"match_type":"match","image_category":"motorcycle","sound_category":"motorcycle","audio_type":"sound","phase":"test","trial_type":"image-keyboard-response","trial_index":126,"time_elapsed":2239303,"internal_node_id":"0.0-13.0-2.18","match_key":"l","participant_id":"COGS_2020_17","correct":true},{"rt":null,"stimulus":"Sounds/correct.wav","key_press":null,"block":1,"trial_type":"audio-keyboard-response","trial_index":127,"time_elapsed":2241305,"internal_node_id":"0.0-13.0-3.18","match_key":"l","participant_id":"COGS_2020_17"},{"rt":null,"stimulus":"Sounds/cow_sound.wav","key_press":null,"block":1,"trial_type":"audio-keyboard-response","trial_index":128,"time_elapsed":2242322,"internal_node_id":"0.0-13.0-0.19","match_key":"l","participant_id":"COGS_2020_17"},{"rt":null,"stimulus":"<p style=\"font-size: 48px;\">+</p>","key_press":null,"block":1,"trial_type":"html-keyboard-response","trial_index":129,"time_elapsed":2243313,"internal_node_id":"0.0-13.0-1.19","match_key":"l","participant_id":"COGS_2020_17"},{"rt":1492.714999999851,"stimulus":"Images/cow_3.png","key_press":65,"stim_onset":1581968732114,"block":1,"match_type":"match","image_category":"cow","sound_category":"cow","audio_type":"sound","phase":"test","trial_type":"image-keyboard-response","trial_index":130,"time_elapsed":2244807,"internal_node_id":"0.0-13.0-2.19","match_key":"l","participant_id":"COGS_2020_17","correct":false},{"rt":null,"stimulus":"Sounds/incorrect.wav","key_press":null,"block":1,"trial_type":"audio-keyboard-response","trial_index":131,"time_elapsed":2246821,"internal_node_id":"0.0-13.0-3.19","match_key":"l","participant_id":"COGS_2020_17"},{"rt":null,"stimulus":"Sounds/frog_sound.wav","key_press":null,"block":1,"trial_type":"audio-keyboard-response","trial_index":132,"time_elapsed":2247722,"internal_node_id":"0.0-13.0-0.20","match_key":"l","participant_id":"COGS_2020_17"},{"rt":null,"stimulus":"<p style=\"font-size: 48px;\">+</p>","key_press":null,"block":1,"trial_type":"html-keyboard-response","trial_index":133,"time_elapsed":2248713,"internal_node_id":"0.0-13.0-1.20","match_key":"l","participant_id":"COGS_2020_17"},{"rt":636.6699999994598,"stimulus":"Images/motorcycle_cartoon.png","key_press":65,"stim_onset":1581968737514,"block":1,"match_type":"non-match","image_category":"motorcycle","sound_category":"frog","audio_type":"sound","phase":"test","trial_type":"image-keyboard-response","trial_index":134,"time_elapsed":2249351,"internal_node_id":"0.0-13.0-2.20","match_key":"l","participant_id":"COGS_2020_17","correct":true},{"rt":null,"stimulus":"Sounds/correct.wav","key_press":null,"block":1,"trial_type":"audio-keyboard-response","trial_index":135,"time_elapsed":2251353,"internal_node_id":"0.0-13.0-3.20","match_key":"l","participant_id":"COGS_2020_17"},{"rt":null,"stimulus":"Sounds/cat_sound.wav","key_press":null,"block":1,"trial_type":"audio-keyboard-response","trial_index":136,"time_elapsed":2252202,"internal_node_id":"0.0-13.0-0.21","match_key":"l","participant_id":"COGS_2020_17"},{"rt":null,"stimulus":"<p style=\"font-size: 48px;\">+</p>","key_press":null,"block":1,"trial_type":"html-keyboard-response","trial_index":137,"time_elapsed":2253197,"internal_node_id":"0.0-13.0-1.21","match_key":"l","participant_id":"COGS_2020_17"},{"rt":585.2799999997951,"stimulus":"Images/motorcycle_1.png","key_press":65,"stim_onset":1581968741998,"block":1,"match_type":"non-match","image_category":"motorcycle","sound_category":"cat","audio_type":"sound","phase":"test","trial_type":"image-keyboard-response","trial_index":138,"time_elapsed":2253783,"internal_node_id":"0.0-13.0-2.21","match_key":"l","participant_id":"COGS_2020_17","correct":true},{"rt":null,"stimulus":"Sounds/correct.wav","key_press":null,"block":1,"trial_type":"audio-keyboard-response","trial_index":139,"time_elapsed":2255787,"internal_node_id":"0.0-13.0-3.21","match_key":"l","participant_id":"COGS_2020_17"},{"rt":null,"stimulus":"Sounds/whistle_label.wav","key_press":null,"block":1,"trial_type":"audio-keyboard-response","trial_index":140,"time_elapsed":2256482,"internal_node_id":"0.0-13.0-0.22","match_key":"l","participant_id":"COGS_2020_17"},{"rt":null,"stimulus":"<p style=\"font-size: 48px;\">+</p>","key_press":null,"block":1,"trial_type":"html-keyboard-response","trial_index":141,"time_elapsed":2257480,"internal_node_id":"0.0-13.0-1.22","match_key":"l","participant_id":"COGS_2020_17"},{"rt":509.6699999999255,"stimulus":"Images/dog_2.png","key_press":65,"stim_onset":1581968746281,"block":1,"match_type":"non-match","image_category":"dog","sound_category":"whistle","audio_type":"label","phase":"test","trial_type":"image-keyboard-response","trial_index":142,"time_elapsed":2257991,"internal_node_id":"0.0-13.0-2.22","match_key":"l","participant_id":"COGS_2020_17","correct":true},{"rt":null,"stimulus":"Sounds/correct.wav","key_press":null,"block":1,"trial_type":"audio-keyboard-response","trial_index":143,"time_elapsed":2260000,"internal_node_id":"0.0-13.0-3.22","match_key":"l","participant_id":"COGS_2020_17"},{"rt":null,"stimulus":"Sounds/gun_label.wav","key_press":null,"block":1,"trial_type":"audio-keyboard-response","trial_index":144,"time_elapsed":2260582,"internal_node_id":"0.0-13.0-0.23","match_key":"l","participant_id":"COGS_2020_17"},{"rt":null,"stimulus":"<p style=\"font-size: 48px;\">+</p>","key_press":null,"block":1,"trial_type":"html-keyboard-response","trial_index":145,"time_elapsed":2261580,"internal_node_id":"0.0-13.0-1.23","match_key":"l","participant_id":"COGS_2020_17"},{"rt":841.9449999998324,"stimulus":"Images/whistle_3.png","key_press":65,"stim_onset":1581968750381,"block":1,"match_type":"non-match","image_category":"whistle","sound_category":"gun","audio_type":"label","phase":"test","trial_type":"image-keyboard-response","trial_index":146,"time_elapsed":2262423,"internal_node_id":"0.0-13.0-2.23","match_key":"l","participant_id":"COGS_2020_17","correct":true},{"rt":null,"stimulus":"Sounds/correct.wav","key_press":null,"block":1,"trial_type":"audio-keyboard-response","trial_index":147,"time_elapsed":2264433,"internal_node_id":"0.0-13.0-3.23","match_key":"l","participant_id":"COGS_2020_17"},{"rt":null,"stimulus":"Sounds/whistle_sound.wav","key_press":null,"block":1,"trial_type":"audio-keyboard-response","trial_index":148,"time_elapsed":2265122,"internal_node_id":"0.0-13.0-0.24","match_key":"l","participant_id":"COGS_2020_17"},{"rt":null,"stimulus":"<p style=\"font-size: 48px;\">+</p>","key_press":null,"block":1,"trial_type":"html-keyboard-response","trial_index":149,"time_elapsed":2266113,"internal_node_id":"0.0-13.0-1.24","match_key":"l","participant_id":"COGS_2020_17"},{"rt":516.3999999999069,"stimulus":"Images/whistle_cartoon.png","key_press":76,"stim_onset":1581968754915,"block":1,"match_type":"match","image_category":"whistle","sound_category":"whistle","audio_type":"sound","phase":"test","trial_type":"image-keyboard-response","trial_index":150,"time_elapsed":2266631,"internal_node_id":"0.0-13.0-2.24","match_key":"l","participant_id":"COGS_2020_17","correct":true},{"rt":null,"stimulus":"Sounds/correct.wav","key_press":null,"block":1,"trial_type":"audio-keyboard-response","trial_index":151,"time_elapsed":2268635,"internal_node_id":"0.0-13.0-3.24","match_key":"l","participant_id":"COGS_2020_17"},{"rt":null,"stimulus":"Sounds/rooster_label.wav","key_press":null,"block":1,"trial_type":"audio-keyboard-response","trial_index":152,"time_elapsed":2269342,"internal_node_id":"0.0-13.0-0.25","match_key":"l","participant_id":"COGS_2020_17"},{"rt":null,"stimulus":"<p style=\"font-size: 48px;\">+</p>","key_press":null,"block":1,"trial_type":"html-keyboard-response","trial_index":153,"time_elapsed":2270330,"internal_node_id":"0.0-13.0-1.25","match_key":"l","participant_id":"COGS_2020_17"},{"rt":587.5750000001863,"stimulus":"Images/rooster_orig.png","key_press":76,"stim_onset":1581968759131,"block":1,"match_type":"match","image_category":"rooster","sound_category":"rooster","audio_type":"label","phase":"test","trial_type":"image-keyboard-response","trial_index":154,"time_elapsed":2270919,"internal_node_id":"0.0-13.0-2.25","match_key":"l","participant_id":"COGS_2020_17","correct":true},{"rt":null,"stimulus":"Sounds/correct.wav","key_press":null,"block":1,"trial_type":"audio-keyboard-response","trial_index":155,"time_elapsed":2272935,"internal_node_id":"0.0-13.0-3.25","match_key":"l","participant_id":"COGS_2020_17"},{"rt":null,"stimulus":"Sounds/cow_label.wav","key_press":null,"block":1,"trial_type":"audio-keyboard-response","trial_index":156,"time_elapsed":2273962,"internal_node_id":"0.0-13.0-0.26","match_key":"l","participant_id":"COGS_2020_17"},{"rt":null,"stimulus":"<p style=\"font-size: 48px;\">+</p>","key_press":null,"block":1,"trial_type":"html-keyboard-response","trial_index":157,"time_elapsed":2274964,"internal_node_id":"0.0-13.0-1.26","match_key":"l","participant_id":"COGS_2020_17"},{"rt":578.2799999997951,"stimulus":"Images/gun_1.png","key_press":65,"stim_onset":1581968763765,"block":1,"match_type":"non-match","image_category":"gun","sound_category":"cow","audio_type":"label","phase":"test","trial_type":"image-keyboard-response","trial_index":158,"time_elapsed":2275543,"internal_node_id":"0.0-13.0-2.26","match_key":"l","participant_id":"COGS_2020_17","correct":true},{"rt":null,"stimulus":"Sounds/correct.wav","key_press":null,"block":1,"trial_type":"audio-keyboard-response","trial_index":159,"time_elapsed":2277552,"internal_node_id":"0.0-13.0-3.26","match_key":"l","participant_id":"COGS_2020_17"},{"rt":null,"stimulus":"Sounds/gun_sound.wav","key_press":null,"block":1,"trial_type":"audio-keyboard-response","trial_index":160,"time_elapsed":2278122,"internal_node_id":"0.0-13.0-0.27","match_key":"l","participant_id":"COGS_2020_17"},{"rt":null,"stimulus":"<p style=\"font-size: 48px;\">+</p>","key_press":null,"block":1,"trial_type":"html-keyboard-response","trial_index":161,"time_elapsed":2279114,"internal_node_id":"0.0-13.0-1.27","match_key":"l","participant_id":"COGS_2020_17"},{"rt":1372.0900000003166,"stimulus":"Images/motorcycle_3.png","key_press":65,"stim_onset":1581968767915,"block":1,"match_type":"non-match","image_category":"motorcycle","sound_category":"gun","audio_type":"sound","phase":"test","trial_type":"image-keyboard-response","trial_index":162,"time_elapsed":2280487,"internal_node_id":"0.0-13.0-2.27","match_key":"l","participant_id":"COGS_2020_17","correct":true},{"rt":null,"stimulus":"Sounds/correct.wav","key_press":null,"block":1,"trial_type":"audio-keyboard-response","trial_index":163,"time_elapsed":2282492,"internal_node_id":"0.0-13.0-3.27","match_key":"l","participant_id":"COGS_2020_17"},{"rt":null,"stimulus":"Sounds/car_label.wav","key_press":null,"block":1,"trial_type":"audio-keyboard-response","trial_index":164,"time_elapsed":2283562,"internal_node_id":"0.0-13.0-0.28","match_key":"l","participant_id":"COGS_2020_17"},{"rt":null,"stimulus":"<p style=\"font-size: 48px;\">+</p>","key_press":null,"block":1,"trial_type":"html-keyboard-response","trial_index":165,"time_elapsed":2284564,"internal_node_id":"0.0-13.0-1.28","match_key":"l","participant_id":"COGS_2020_17"},{"rt":626.1299999998882,"stimulus":"Images/cat_orig.png","key_press":65,"stim_onset":1581968773365,"block":1,"match_type":"non-match","image_category":"cat","sound_category":"car","audio_type":"label","phase":"test","trial_type":"image-keyboard-response","trial_index":166,"time_elapsed":2285191,"internal_node_id":"0.0-13.0-2.28","match_key":"l","participant_id":"COGS_2020_17","correct":true},{"rt":null,"stimulus":"Sounds/correct.wav","key_press":null,"block":1,"trial_type":"audio-keyboard-response","trial_index":167,"time_elapsed":2287200,"internal_node_id":"0.0-13.0-3.28","match_key":"l","participant_id":"COGS_2020_17"},{"rt":null,"stimulus":"Sounds/motorcycle_label.wav","key_press":null,"block":1,"trial_type":"audio-keyboard-response","trial_index":168,"time_elapsed":2288342,"internal_node_id":"0.0-13.0-0.29","match_key":"l","participant_id":"COGS_2020_17"},{"rt":null,"stimulus":"<p style=\"font-size: 48px;\">+</p>","key_press":null,"block":1,"trial_type":"html-keyboard-response","trial_index":169,"time_elapsed":2289347,"internal_node_id":"0.0-13.0-1.29","match_key":"l","participant_id":"COGS_2020_17"},{"rt":626.8500000000931,"stimulus":"Images/dog_3.png","key_press":65,"stim_onset":1581968778148,"block":1,"match_type":"non-match","image_category":"dog","sound_category":"motorcycle","audio_type":"label","phase":"test","trial_type":"image-keyboard-response","trial_index":170,"time_elapsed":2289975,"internal_node_id":"0.0-13.0-2.29","match_key":"l","participant_id":"COGS_2020_17","correct":true},{"rt":null,"stimulus":"Sounds/correct.wav","key_press":null,"block":1,"trial_type":"audio-keyboard-response","trial_index":171,"time_elapsed":2291987,"internal_node_id":"0.0-13.0-3.29","match_key":"l","participant_id":"COGS_2020_17"},{"rt":null,"stimulus":"Sounds/frog_label.wav","key_press":null,"block":1,"trial_type":"audio-keyboard-response","trial_index":172,"time_elapsed":2292882,"internal_node_id":"0.0-13.0-0.30","match_key":"l","participant_id":"COGS_2020_17"},{"rt":null,"stimulus":"<p style=\"font-size: 48px;\">+</p>","key_press":null,"block":1,"trial_type":"html-keyboard-response","trial_index":173,"time_elapsed":2293880,"internal_node_id":"0.0-13.0-1.30","match_key":"l","participant_id":"COGS_2020_17"},{"rt":493.37000000011176,"stimulus":"Images/cat_3.png","key_press":65,"stim_onset":1581968782681,"block":1,"match_type":"non-match","image_category":"cat","sound_category":"frog","audio_type":"label","phase":"test","trial_type":"image-keyboard-response","trial_index":174,"time_elapsed":2294375,"internal_node_id":"0.0-13.0-2.30","match_key":"l","participant_id":"COGS_2020_17","correct":true},{"rt":null,"stimulus":"Sounds/correct.wav","key_press":null,"block":1,"trial_type":"audio-keyboard-response","trial_index":175,"time_elapsed":2296383,"internal_node_id":"0.0-13.0-3.30","match_key":"l","participant_id":"COGS_2020_17"},{"rt":null,"stimulus":"Sounds/whistle_label.wav","key_press":null,"block":1,"trial_type":"audio-keyboard-response","trial_index":176,"time_elapsed":2297082,"internal_node_id":"0.0-13.0-0.31","match_key":"l","participant_id":"COGS_2020_17"},{"rt":null,"stimulus":"<p style=\"font-size: 48px;\">+</p>","key_press":null,"block":1,"trial_type":"html-keyboard-response","trial_index":177,"time_elapsed":2298080,"internal_node_id":"0.0-13.0-1.31","match_key":"l","participant_id":"COGS_2020_17"},{"rt":549.4900000006892,"stimulus":"Images/whistle_2.png","key_press":76,"stim_onset":1581968786882,"block":1,"match_type":"match","image_category":"whistle","sound_category":"whistle","audio_type":"label","phase":"test","trial_type":"image-keyboard-response","trial_index":178,"time_elapsed":2298631,"internal_node_id":"0.0-13.0-2.31","match_key":"l","participant_id":"COGS_2020_17","correct":true},{"rt":null,"stimulus":"Sounds/correct.wav","key_press":null,"block":1,"trial_type":"audio-keyboard-response","trial_index":179,"time_elapsed":2300637,"internal_node_id":"0.0-13.0-3.31","match_key":"l","participant_id":"COGS_2020_17"},{"rt":null,"stimulus":"Sounds/frog_sound.wav","key_press":null,"block":1,"trial_type":"audio-keyboard-response","trial_index":180,"time_elapsed":2301542,"internal_node_id":"0.0-13.0-0.32","match_key":"l","participant_id":"COGS_2020_17"},{"rt":null,"stimulus":"<p style=\"font-size: 48px;\">+</p>","key_press":null,"block":1,"trial_type":"html-keyboard-response","trial_index":181,"time_elapsed":2302531,"internal_node_id":"0.0-13.0-1.32","match_key":"l","participant_id":"COGS_2020_17"},{"rt":483.42499999981374,"stimulus":"Images/frog_2.png","key_press":76,"stim_onset":1581968791332,"block":1,"match_type":"match","image_category":"frog","sound_category":"frog","audio_type":"sound","phase":"test","trial_type":"image-keyboard-response","trial_index":182,"time_elapsed":2303016,"internal_node_id":"0.0-13.0-2.32","match_key":"l","participant_id":"COGS_2020_17","correct":true},{"rt":null,"stimulus":"Sounds/correct.wav","key_press":null,"block":1,"trial_type":"audio-keyboard-response","trial_index":183,"time_elapsed":2305020,"internal_node_id":"0.0-13.0-3.32","match_key":"l","participant_id":"COGS_2020_17"},{"rt":null,"stimulus":"Sounds/train_sound.wav","key_press":null,"block":1,"trial_type":"audio-keyboard-response","trial_index":184,"time_elapsed":2306322,"internal_node_id":"0.0-13.0-0.33","match_key":"l","participant_id":"COGS_2020_17"},{"rt":null,"stimulus":"<p style=\"font-size: 48px;\">+</p>","key_press":null,"block":1,"trial_type":"html-keyboard-response","trial_index":185,"time_elapsed":2307315,"internal_node_id":"0.0-13.0-1.33","match_key":"l","participant_id":"COGS_2020_17"},{"rt":659.8600000003353,"stimulus":"Images/train_cartoon.png","key_press":76,"stim_onset":1581968796116,"block":1,"match_type":"match","image_category":"train","sound_category":"train","audio_type":"sound","phase":"test","trial_type":"image-keyboard-response","trial_index":186,"time_elapsed":2307975,"internal_node_id":"0.0-13.0-2.33","match_key":"l","participant_id":"COGS_2020_17","correct":true},{"rt":null,"stimulus":"Sounds/correct.wav","key_press":null,"block":1,"trial_type":"audio-keyboard-response","trial_index":187,"time_elapsed":2309986,"internal_node_id":"0.0-13.0-3.33","match_key":"l","participant_id":"COGS_2020_17"},{"rt":null,"stimulus":"Sounds/car_sound.wav","key_press":null,"block":1,"trial_type":"audio-keyboard-response","trial_index":188,"time_elapsed":2311063,"internal_node_id":"0.0-13.0-0.34","match_key":"l","participant_id":"COGS_2020_17"},{"rt":null,"stimulus":"<p style=\"font-size: 48px;\">+</p>","key_press":null,"block":1,"trial_type":"html-keyboard-response","trial_index":189,"time_elapsed":2312065,"internal_node_id":"0.0-13.0-1.34","match_key":"l","participant_id":"COGS_2020_17"},{"rt":1029.7800000002608,"stimulus":"Images/car_3.png","key_press":76,"stim_onset":1581968800866,"block":1,"match_type":"match","image_category":"car","sound_category":"car","audio_type":"sound","phase":"test","trial_type":"image-keyboard-response","trial_index":190,"time_elapsed":2313095,"internal_node_id":"0.0-13.0-2.34","match_key":"l","participant_id":"COGS_2020_17","correct":true},{"rt":null,"stimulus":"Sounds/correct.wav","key_press":null,"block":1,"trial_type":"audio-keyboard-response","trial_index":191,"time_elapsed":2315104,"internal_node_id":"0.0-13.0-3.34","match_key":"l","participant_id":"COGS_2020_17"},{"rt":null,"stimulus":"Sounds/motorcycle_label.wav","key_press":null,"block":1,"trial_type":"audio-keyboard-response","trial_index":192,"time_elapsed":2316243,"internal_node_id":"0.0-13.0-0.35","match_key":"l","participant_id":"COGS_2020_17"},{"rt":null,"stimulus":"<p style=\"font-size: 48px;\">+</p>","key_press":null,"block":1,"trial_type":"html-keyboard-response","trial_index":193,"time_elapsed":2317248,"internal_node_id":"0.0-13.0-1.35","match_key":"l","participant_id":"COGS_2020_17"},{"rt":726.3849999997765,"stimulus":"Images/motorcycle_orig.png","key_press":76,"stim_onset":1581968806049,"block":1,"match_type":"match","image_category":"motorcycle","sound_category":"motorcycle","audio_type":"label","phase":"test","trial_type":"image-keyboard-response","trial_index":194,"time_elapsed":2317976,"internal_node_id":"0.0-13.0-2.35","match_key":"l","participant_id":"COGS_2020_17","correct":true},{"rt":null,"stimulus":"Sounds/correct.wav","key_press":null,"block":1,"trial_type":"audio-keyboard-response","trial_index":195,"time_elapsed":2319986,"internal_node_id":"0.0-13.0-3.35","match_key":"l","participant_id":"COGS_2020_17"},{"rt":null,"stimulus":"Sounds/dog_label.wav","key_press":null,"block":1,"trial_type":"audio-keyboard-response","trial_index":196,"time_elapsed":2320643,"internal_node_id":"0.0-13.0-0.36","match_key":"l","participant_id":"COGS_2020_17"},{"rt":null,"stimulus":"<p style=\"font-size: 48px;\">+</p>","key_press":null,"block":1,"trial_type":"html-keyboard-response","trial_index":197,"time_elapsed":2321632,"internal_node_id":"0.0-13.0-1.36","match_key":"l","participant_id":"COGS_2020_17"},{"rt":582.8250000001863,"stimulus":"Images/dog_orig.png","key_press":76,"stim_onset":1581968810432,"block":1,"match_type":"match","image_category":"dog","sound_category":"dog","audio_type":"label","phase":"test","trial_type":"image-keyboard-response","trial_index":198,"time_elapsed":2322215,"internal_node_id":"0.0-13.0-2.36","match_key":"l","participant_id":"COGS_2020_17","correct":true},{"rt":null,"stimulus":"Sounds/correct.wav","key_press":null,"block":1,"trial_type":"audio-keyboard-response","trial_index":199,"time_elapsed":2324221,"internal_node_id":"0.0-13.0-3.36","match_key":"l","participant_id":"COGS_2020_17"},{"rt":null,"stimulus":"Sounds/rooster_sound.wav","key_press":null,"block":1,"trial_type":"audio-keyboard-response","trial_index":200,"time_elapsed":2324922,"internal_node_id":"0.0-13.0-0.37","match_key":"l","participant_id":"COGS_2020_17"},{"rt":null,"stimulus":"<p style=\"font-size: 48px;\">+</p>","key_press":null,"block":1,"trial_type":"html-keyboard-response","trial_index":201,"time_elapsed":2325915,"internal_node_id":"0.0-13.0-1.37","match_key":"l","participant_id":"COGS_2020_17"},{"rt":491.76000000024214,"stimulus":"Images/rooster_2.png","key_press":76,"stim_onset":1581968814716,"block":1,"match_type":"match","image_category":"rooster","sound_category":"rooster","audio_type":"sound","phase":"test","trial_type":"image-keyboard-response","trial_index":202,"time_elapsed":2326408,"internal_node_id":"0.0-13.0-2.37","match_key":"l","participant_id":"COGS_2020_17","correct":true},{"rt":null,"stimulus":"Sounds/correct.wav","key_press":null,"block":1,"trial_type":"audio-keyboard-response","trial_index":203,"time_elapsed":2328420,"internal_node_id":"0.0-13.0-3.37","match_key":"l","participant_id":"COGS_2020_17"},{"rt":null,"stimulus":"Sounds/frog_sound.wav","key_press":null,"block":1,"trial_type":"audio-keyboard-response","trial_index":204,"time_elapsed":2329323,"internal_node_id":"0.0-13.0-0.38","match_key":"l","participant_id":"COGS_2020_17"},{"rt":null,"stimulus":"<p style=\"font-size: 48px;\">+</p>","key_press":null,"block":1,"trial_type":"html-keyboard-response","trial_index":205,"time_elapsed":2330315,"internal_node_id":"0.0-13.0-1.38","match_key":"l","participant_id":"COGS_2020_17"},{"rt":603.5600000000559,"stimulus":"Images/frog_1.png","key_press":76,"stim_onset":1581968819116,"block":1,"match_type":"match","image_category":"frog","sound_category":"frog","audio_type":"sound","phase":"test","trial_type":"image-keyboard-response","trial_index":206,"time_elapsed":2330919,"internal_node_id":"0.0-13.0-2.38","match_key":"l","participant_id":"COGS_2020_17","correct":true},{"rt":null,"stimulus":"Sounds/correct.wav","key_press":null,"block":1,"trial_type":"audio-keyboard-response","trial_index":207,"time_elapsed":2332935,"internal_node_id":"0.0-13.0-3.38","match_key":"l","participant_id":"COGS_2020_17"},{"rt":null,"stimulus":"Sounds/dog_sound.wav","key_press":null,"block":1,"trial_type":"audio-keyboard-response","trial_index":208,"time_elapsed":2333643,"internal_node_id":"0.0-13.0-0.39","match_key":"l","participant_id":"COGS_2020_17"},{"rt":null,"stimulus":"<p style=\"font-size: 48px;\">+</p>","key_press":null,"block":1,"trial_type":"html-keyboard-response","trial_index":209,"time_elapsed":2334632,"internal_node_id":"0.0-13.0-1.39","match_key":"l","participant_id":"COGS_2020_17"},{"rt":878.7649999996647,"stimulus":"Images/cat_1.png","key_press":65,"stim_onset":1581968823433,"block":1,"match_type":"non-match","image_category":"cat","sound_category":"dog","audio_type":"sound","phase":"test","trial_type":"image-keyboard-response","trial_index":210,"time_elapsed":2335511,"internal_node_id":"0.0-13.0-2.39","match_key":"l","participant_id":"COGS_2020_17","correct":true},{"rt":null,"stimulus":"Sounds/correct.wav","key_press":null,"block":1,"trial_type":"audio-keyboard-response","trial_index":211,"time_elapsed":2337520,"internal_node_id":"0.0-13.0-3.39","match_key":"l","participant_id":"COGS_2020_17"},{"rt":null,"stimulus":"Sounds/frog_label.wav","key_press":null,"block":1,"trial_type":"audio-keyboard-response","trial_index":212,"time_elapsed":2338423,"internal_node_id":"0.0-13.0-0.40","match_key":"l","participant_id":"COGS_2020_17"},{"rt":null,"stimulus":"<p style=\"font-size: 48px;\">+</p>","key_press":null,"block":1,"trial_type":"html-keyboard-response","trial_index":213,"time_elapsed":2339415,"internal_node_id":"0.0-13.0-1.40","match_key":"l","participant_id":"COGS_2020_17"},{"rt":479.8450000002049,"stimulus":"Images/gun_3.png","key_press":65,"stim_onset":1581968828216,"block":1,"match_type":"non-match","image_category":"gun","sound_category":"frog","audio_type":"label","phase":"test","trial_type":"image-keyboard-response","trial_index":214,"time_elapsed":2339896,"internal_node_id":"0.0-13.0-2.40","match_key":"l","participant_id":"COGS_2020_17","correct":true},{"rt":null,"stimulus":"Sounds/correct.wav","key_press":null,"block":1,"trial_type":"audio-keyboard-response","trial_index":215,"time_elapsed":2341903,"internal_node_id":"0.0-13.0-3.40","match_key":"l","participant_id":"COGS_2020_17"},{"rt":null,"stimulus":"Sounds/cat_sound.wav","key_press":null,"block":1,"trial_type":"audio-keyboard-response","trial_index":216,"time_elapsed":2342743,"internal_node_id":"0.0-13.0-0.41","match_key":"l","participant_id":"COGS_2020_17"},{"rt":null,"stimulus":"<p style=\"font-size: 48px;\">+</p>","key_press":null,"block":1,"trial_type":"html-keyboard-response","trial_index":217,"time_elapsed":2343732,"internal_node_id":"0.0-13.0-1.41","match_key":"l","participant_id":"COGS_2020_17"},{"rt":530.8199999998324,"stimulus":"Images/cat_orig.png","key_press":76,"stim_onset":1581968832533,"block":1,"match_type":"match","image_category":"cat","sound_category":"cat","audio_type":"sound","phase":"test","trial_type":"image-keyboard-response","trial_index":218,"time_elapsed":2344263,"internal_node_id":"0.0-13.0-2.41","match_key":"l","participant_id":"COGS_2020_17","correct":true},{"rt":null,"stimulus":"Sounds/correct.wav","key_press":null,"block":1,"trial_type":"audio-keyboard-response","trial_index":219,"time_elapsed":2346271,"internal_node_id":"0.0-13.0-3.41","match_key":"l","participant_id":"COGS_2020_17"},{"rt":null,"stimulus":"Sounds/frog_label.wav","key_press":null,"block":1,"trial_type":"audio-keyboard-response","trial_index":220,"time_elapsed":2347143,"internal_node_id":"0.0-13.0-0.42","match_key":"l","participant_id":"COGS_2020_17"},{"rt":null,"stimulus":"<p style=\"font-size: 48px;\">+</p>","key_press":null,"block":1,"trial_type":"html-keyboard-response","trial_index":221,"time_elapsed":2348132,"internal_node_id":"0.0-13.0-1.42","match_key":"l","participant_id":"COGS_2020_17"},{"rt":434.75000000046566,"stimulus":"Images/frog_cartoon.png","key_press":76,"stim_onset":1581968836933,"block":1,"match_type":"match","image_category":"frog","sound_category":"frog","audio_type":"label","phase":"test","trial_type":"image-keyboard-response","trial_index":222,"time_elapsed":2348567,"internal_node_id":"0.0-13.0-2.42","match_key":"l","participant_id":"COGS_2020_17","correct":true},{"rt":null,"stimulus":"Sounds/correct.wav","key_press":null,"block":1,"trial_type":"audio-keyboard-response","trial_index":223,"time_elapsed":2350570,"internal_node_id":"0.0-13.0-3.42","match_key":"l","participant_id":"COGS_2020_17"},{"rt":null,"stimulus":"Sounds/cow_sound.wav","key_press":null,"block":1,"trial_type":"audio-keyboard-response","trial_index":224,"time_elapsed":2351583,"internal_node_id":"0.0-13.0-0.43","match_key":"l","participant_id":"COGS_2020_17"},{"rt":null,"stimulus":"<p style=\"font-size: 48px;\">+</p>","key_press":null,"block":1,"trial_type":"html-keyboard-response","trial_index":225,"time_elapsed":2352582,"internal_node_id":"0.0-13.0-1.43","match_key":"l","participant_id":"COGS_2020_17"},{"rt":496.9049999997951,"stimulus":"Images/car_cartoon.png","key_press":65,"stim_onset":1581968841383,"block":1,"match_type":"non-match","image_category":"car","sound_category":"cow","audio_type":"sound","phase":"test","trial_type":"image-keyboard-response","trial_index":226,"time_elapsed":2353080,"internal_node_id":"0.0-13.0-2.43","match_key":"l","participant_id":"COGS_2020_17","correct":true},{"rt":null,"stimulus":"Sounds/correct.wav","key_press":null,"block":1,"trial_type":"audio-keyboard-response","trial_index":227,"time_elapsed":2355087,"internal_node_id":"0.0-13.0-3.43","match_key":"l","participant_id":"COGS_2020_17"},{"rt":null,"stimulus":"Sounds/train_sound.wav","key_press":null,"block":1,"trial_type":"audio-keyboard-response","trial_index":228,"time_elapsed":2356382,"internal_node_id":"0.0-13.0-0.44","match_key":"l","participant_id":"COGS_2020_17"},{"rt":null,"stimulus":"<p style=\"font-size: 48px;\">+</p>","key_press":null,"block":1,"trial_type":"html-keyboard-response","trial_index":229,"time_elapsed":2357382,"internal_node_id":"0.0-13.0-1.44","match_key":"l","participant_id":"COGS_2020_17"},{"rt":720.089999999851,"stimulus":"Images/frog_3.png","key_press":65,"stim_onset":1581968846183,"block":1,"match_type":"non-match","image_category":"frog","sound_category":"train","audio_type":"sound","phase":"test","trial_type":"image-keyboard-response","trial_index":230,"time_elapsed":2358104,"internal_node_id":"0.0-13.0-2.44","match_key":"l","participant_id":"COGS_2020_17","correct":true},{"rt":null,"stimulus":"Sounds/correct.wav","key_press":null,"block":1,"trial_type":"audio-keyboard-response","trial_index":231,"time_elapsed":2360106,"internal_node_id":"0.0-13.0-3.44","match_key":"l","participant_id":"COGS_2020_17"},{"rt":null,"stimulus":"Sounds/rooster_sound.wav","key_press":null,"block":1,"trial_type":"audio-keyboard-response","trial_index":232,"time_elapsed":2360803,"internal_node_id":"0.0-13.0-0.45","match_key":"l","participant_id":"COGS_2020_17"},{"rt":null,"stimulus":"<p style=\"font-size: 48px;\">+</p>","key_press":null,"block":1,"trial_type":"html-keyboard-response","trial_index":233,"time_elapsed":2361799,"internal_node_id":"0.0-13.0-1.45","match_key":"l","participant_id":"COGS_2020_17"},{"rt":495.910000000149,"stimulus":"Images/rooster_1.png","key_press":76,"stim_onset":1581968850600,"block":1,"match_type":"match","image_category":"rooster","sound_category":"rooster","audio_type":"sound","phase":"test","trial_type":"image-keyboard-response","trial_index":234,"time_elapsed":2362295,"internal_node_id":"0.0-13.0-2.45","match_key":"l","participant_id":"COGS_2020_17","correct":true},{"rt":null,"stimulus":"Sounds/correct.wav","key_press":null,"block":1,"trial_type":"audio-keyboard-response","trial_index":235,"time_elapsed":2364304,"internal_node_id":"0.0-13.0-3.45","match_key":"l","participant_id":"COGS_2020_17"},{"rt":null,"stimulus":"Sounds/cat_label.wav","key_press":null,"block":1,"trial_type":"audio-keyboard-response","trial_index":236,"time_elapsed":2365143,"internal_node_id":"0.0-13.0-0.46","match_key":"l","participant_id":"COGS_2020_17"},{"rt":null,"stimulus":"<p style=\"font-size: 48px;\">+</p>","key_press":null,"block":1,"trial_type":"html-keyboard-response","trial_index":237,"time_elapsed":2366132,"internal_node_id":"0.0-13.0-1.46","match_key":"l","participant_id":"COGS_2020_17"},{"rt":514.820000000298,"stimulus":"Images/frog_1.png","key_press":65,"stim_onset":1581968854933,"block":1,"match_type":"non-match","image_category":"frog","sound_category":"cat","audio_type":"label","phase":"test","trial_type":"image-keyboard-response","trial_index":238,"time_elapsed":2366648,"internal_node_id":"0.0-13.0-2.46","match_key":"l","participant_id":"COGS_2020_17","correct":true},{"rt":null,"stimulus":"Sounds/correct.wav","key_press":null,"block":1,"trial_type":"audio-keyboard-response","trial_index":239,"time_elapsed":2368656,"internal_node_id":"0.0-13.0-3.46","match_key":"l","participant_id":"COGS_2020_17"},{"rt":null,"stimulus":"Sounds/cat_label.wav","key_press":null,"block":1,"trial_type":"audio-keyboard-response","trial_index":240,"time_elapsed":2369463,"internal_node_id":"0.0-13.0-0.47","match_key":"l","participant_id":"COGS_2020_17"},{"rt":null,"stimulus":"<p style=\"font-size: 48px;\">+</p>","key_press":null,"block":1,"trial_type":"html-keyboard-response","trial_index":241,"time_elapsed":2370465,"internal_node_id":"0.0-13.0-1.47","match_key":"l","participant_id":"COGS_2020_17"},{"rt":677.6450000000186,"stimulus":"Images/cat_2.png","key_press":76,"stim_onset":1581968859266,"block":1,"match_type":"match","image_category":"cat","sound_category":"cat","audio_type":"label","phase":"test","trial_type":"image-keyboard-response","trial_index":242,"time_elapsed":2371144,"internal_node_id":"0.0-13.0-2.47","match_key":"l","participant_id":"COGS_2020_17","correct":true},{"rt":null,"stimulus":"Sounds/correct.wav","key_press":null,"block":1,"trial_type":"audio-keyboard-response","trial_index":243,"time_elapsed":2373152,"internal_node_id":"0.0-13.0-3.47","match_key":"l","participant_id":"COGS_2020_17"},{"rt":null,"stimulus":"Sounds/train_label.wav","key_press":null,"block":1,"trial_type":"audio-keyboard-response","trial_index":244,"time_elapsed":2374423,"internal_node_id":"0.0-13.0-0.48","match_key":"l","participant_id":"COGS_2020_17"},{"rt":null,"stimulus":"<p style=\"font-size: 48px;\">+</p>","key_press":null,"block":1,"trial_type":"html-keyboard-response","trial_index":245,"time_elapsed":2375415,"internal_node_id":"0.0-13.0-1.48","match_key":"l","participant_id":"COGS_2020_17"},{"rt":1742.644999999553,"stimulus":"Images/train_1.png","key_press":65,"stim_onset":1581968864216,"block":1,"match_type":"match","image_category":"train","sound_category":"train","audio_type":"label","phase":"test","trial_type":"image-keyboard-response","trial_index":246,"time_elapsed":2377160,"internal_node_id":"0.0-13.0-2.48","match_key":"l","participant_id":"COGS_2020_17","correct":false},{"rt":null,"stimulus":"Sounds/incorrect.wav","key_press":null,"block":1,"trial_type":"audio-keyboard-response","trial_index":247,"time_elapsed":2379175,"internal_node_id":"0.0-13.0-3.48","match_key":"l","participant_id":"COGS_2020_17"},{"rt":null,"stimulus":"Sounds/gun_label.wav","key_press":null,"block":1,"trial_type":"audio-keyboard-response","trial_index":248,"time_elapsed":2379763,"internal_node_id":"0.0-13.0-0.49","match_key":"l","participant_id":"COGS_2020_17"},{"rt":null,"stimulus":"<p style=\"font-size: 48px;\">+</p>","key_press":null,"block":1,"trial_type":"html-keyboard-response","trial_index":249,"time_elapsed":2380765,"internal_node_id":"0.0-13.0-1.49","match_key":"l","participant_id":"COGS_2020_17"},{"rt":825.0250000003725,"stimulus":"Images/gun_3.png","key_press":76,"stim_onset":1581968869566,"block":1,"match_type":"match","image_category":"gun","sound_category":"gun","audio_type":"label","phase":"test","trial_type":"image-keyboard-response","trial_index":250,"time_elapsed":2381591,"internal_node_id":"0.0-13.0-2.49","match_key":"l","participant_id":"COGS_2020_17","correct":true},{"rt":null,"stimulus":"Sounds/correct.wav","key_press":null,"block":1,"trial_type":"audio-keyboard-response","trial_index":251,"time_elapsed":2383603,"internal_node_id":"0.0-13.0-3.49","match_key":"l","participant_id":"COGS_2020_17"},{"rt":null,"stimulus":"Sounds/dog_sound.wav","key_press":null,"block":1,"trial_type":"audio-keyboard-response","trial_index":252,"time_elapsed":2384323,"internal_node_id":"0.0-13.0-0.50","match_key":"l","participant_id":"COGS_2020_17"},{"rt":null,"stimulus":"<p style=\"font-size: 48px;\">+</p>","key_press":null,"block":1,"trial_type":"html-keyboard-response","trial_index":253,"time_elapsed":2385315,"internal_node_id":"0.0-13.0-1.50","match_key":"l","participant_id":"COGS_2020_17"},{"rt":611.1649999995716,"stimulus":"Images/motorcycle_orig.png","key_press":65,"stim_onset":1581968874117,"block":1,"match_type":"non-match","image_category":"motorcycle","sound_category":"dog","audio_type":"sound","phase":"test","trial_type":"image-keyboard-response","trial_index":254,"time_elapsed":2385928,"internal_node_id":"0.0-13.0-2.50","match_key":"l","participant_id":"COGS_2020_17","correct":true},{"rt":null,"stimulus":"Sounds/correct.wav","key_press":null,"block":1,"trial_type":"audio-keyboard-response","trial_index":255,"time_elapsed":2387938,"internal_node_id":"0.0-13.0-3.50","match_key":"l","participant_id":"COGS_2020_17"},{"rt":null,"stimulus":"Sounds/car_label.wav","key_press":null,"block":1,"trial_type":"audio-keyboard-response","trial_index":256,"time_elapsed":2389023,"internal_node_id":"0.0-13.0-0.51","match_key":"l","participant_id":"COGS_2020_17"},{"rt":null,"stimulus":"<p style=\"font-size: 48px;\">+</p>","key_press":null,"block":1,"trial_type":"html-keyboard-response","trial_index":257,"time_elapsed":2390016,"internal_node_id":"0.0-13.0-1.51","match_key":"l","participant_id":"COGS_2020_17"},{"rt":631.4350000000559,"stimulus":"Images/frog_orig.png","key_press":65,"stim_onset":1581968878817,"block":1,"match_type":"non-match","image_category":"frog","sound_category":"car","audio_type":"label","phase":"test","trial_type":"image-keyboard-response","trial_index":258,"time_elapsed":2390648,"internal_node_id":"0.0-13.0-2.51","match_key":"l","participant_id":"COGS_2020_17","correct":true},{"rt":null,"stimulus":"Sounds/correct.wav","key_press":null,"block":1,"trial_type":"audio-keyboard-response","trial_index":259,"time_elapsed":2392657,"internal_node_id":"0.0-13.0-3.51","match_key":"l","participant_id":"COGS_2020_17"},{"rt":null,"stimulus":"Sounds/motorcycle_label.wav","key_press":null,"block":1,"trial_type":"audio-keyboard-response","trial_index":260,"time_elapsed":2393803,"internal_node_id":"0.0-13.0-0.52","match_key":"l","participant_id":"COGS_2020_17"},{"rt":null,"stimulus":"<p style=\"font-size: 48px;\">+</p>","key_press":null,"block":1,"trial_type":"html-keyboard-response","trial_index":261,"time_elapsed":2394799,"internal_node_id":"0.0-13.0-1.52","match_key":"l","participant_id":"COGS_2020_17"},{"rt":615.4950000001118,"stimulus":"Images/gun_cartoon.png","key_press":65,"stim_onset":1581968883600,"block":1,"match_type":"non-match","image_category":"gun","sound_category":"motorcycle","audio_type":"label","phase":"test","trial_type":"image-keyboard-response","trial_index":262,"time_elapsed":2395415,"internal_node_id":"0.0-13.0-2.52","match_key":"l","participant_id":"COGS_2020_17","correct":true},{"rt":null,"stimulus":"Sounds/correct.wav","key_press":null,"block":1,"trial_type":"audio-keyboard-response","trial_index":263,"time_elapsed":2397422,"internal_node_id":"0.0-13.0-3.52","match_key":"l","participant_id":"COGS_2020_17"},{"rt":null,"stimulus":"Sounds/cat_sound.wav","key_press":null,"block":1,"trial_type":"audio-keyboard-response","trial_index":264,"time_elapsed":2398263,"internal_node_id":"0.0-13.0-0.53","match_key":"l","participant_id":"COGS_2020_17"},{"rt":null,"stimulus":"<p style=\"font-size: 48px;\">+</p>","key_press":null,"block":1,"trial_type":"html-keyboard-response","trial_index":265,"time_elapsed":2399266,"internal_node_id":"0.0-13.0-1.53","match_key":"l","participant_id":"COGS_2020_17"},{"rt":708.6749999998137,"stimulus":"Images/cat_3.png","key_press":76,"stim_onset":1581968888067,"block":1,"match_type":"match","image_category":"cat","sound_category":"cat","audio_type":"sound","phase":"test","trial_type":"image-keyboard-response","trial_index":266,"time_elapsed":2399975,"internal_node_id":"0.0-13.0-2.53","match_key":"l","participant_id":"COGS_2020_17","correct":true},{"rt":null,"stimulus":"Sounds/correct.wav","key_press":null,"block":1,"trial_type":"audio-keyboard-response","trial_index":267,"time_elapsed":2401988,"internal_node_id":"0.0-13.0-3.53","match_key":"l","participant_id":"COGS_2020_17"},{"rt":null,"stimulus":"Sounds/car_label.wav","key_press":null,"block":1,"trial_type":"audio-keyboard-response","trial_index":268,"time_elapsed":2403043,"internal_node_id":"0.0-13.0-0.54","match_key":"l","participant_id":"COGS_2020_17"},{"rt":null,"stimulus":"<p style=\"font-size: 48px;\">+</p>","key_press":null,"block":1,"trial_type":"html-keyboard-response","trial_index":269,"time_elapsed":2404032,"internal_node_id":"0.0-13.0-1.54","match_key":"l","participant_id":"COGS_2020_17"},{"rt":662.5200000000186,"stimulus":"Images/car_1.png","key_press":76,"stim_onset":1581968892833,"block":1,"match_type":"match","image_category":"car","sound_category":"car","audio_type":"label","phase":"test","trial_type":"image-keyboard-response","trial_index":270,"time_elapsed":2404696,"internal_node_id":"0.0-13.0-2.54","match_key":"l","participant_id":"COGS_2020_17","correct":true},{"rt":null,"stimulus":"Sounds/correct.wav","key_press":null,"block":1,"trial_type":"audio-keyboard-response","trial_index":271,"time_elapsed":2406704,"internal_node_id":"0.0-13.0-3.54","match_key":"l","participant_id":"COGS_2020_17"},{"rt":null,"stimulus":"Sounds/cat_label.wav","key_press":null,"block":1,"trial_type":"audio-keyboard-response","trial_index":272,"time_elapsed":2407543,"internal_node_id":"0.0-13.0-0.55","match_key":"l","participant_id":"COGS_2020_17"},{"rt":null,"stimulus":"<p style=\"font-size: 48px;\">+</p>","key_press":null,"block":1,"trial_type":"html-keyboard-response","trial_index":273,"time_elapsed":2408532,"internal_node_id":"0.0-13.0-1.55","match_key":"l","participant_id":"COGS_2020_17"},{"rt":801.9550000000745,"stimulus":"Images/dog_1.png","key_press":65,"stim_onset":1581968897333,"block":1,"match_type":"non-match","image_category":"dog","sound_category":"cat","audio_type":"label","phase":"test","trial_type":"image-keyboard-response","trial_index":274,"time_elapsed":2409335,"internal_node_id":"0.0-13.0-2.55","match_key":"l","participant_id":"COGS_2020_17","correct":true},{"rt":null,"stimulus":"Sounds/correct.wav","key_press":null,"block":1,"trial_type":"audio-keyboard-response","trial_index":275,"time_elapsed":2411338,"internal_node_id":"0.0-13.0-3.55","match_key":"l","participant_id":"COGS_2020_17"},{"rt":null,"stimulus":"Sounds/gun_label.wav","key_press":null,"block":1,"trial_type":"audio-keyboard-response","trial_index":276,"time_elapsed":2411923,"internal_node_id":"0.0-13.0-0.56","match_key":"l","participant_id":"COGS_2020_17"},{"rt":null,"stimulus":"<p style=\"font-size: 48px;\">+</p>","key_press":null,"block":1,"trial_type":"html-keyboard-response","trial_index":277,"time_elapsed":2412916,"internal_node_id":"0.0-13.0-1.56","match_key":"l","participant_id":"COGS_2020_17"},{"rt":562.7000000001863,"stimulus":"Images/gun_2.png","key_press":76,"stim_onset":1581968901717,"block":1,"match_type":"match","image_category":"gun","sound_category":"gun","audio_type":"label","phase":"test","trial_type":"image-keyboard-response","trial_index":278,"time_elapsed":2413479,"internal_node_id":"0.0-13.0-2.56","match_key":"l","participant_id":"COGS_2020_17","correct":true},{"rt":null,"stimulus":"Sounds/correct.wav","key_press":null,"block":1,"trial_type":"audio-keyboard-response","trial_index":279,"time_elapsed":2415488,"internal_node_id":"0.0-13.0-3.56","match_key":"l","participant_id":"COGS_2020_17"},{"rt":null,"stimulus":"Sounds/frog_sound.wav","key_press":null,"block":1,"trial_type":"audio-keyboard-response","trial_index":280,"time_elapsed":2416403,"internal_node_id":"0.0-13.0-0.57","match_key":"l","participant_id":"COGS_2020_17"},{"rt":null,"stimulus":"<p style=\"font-size: 48px;\">+</p>","key_press":null,"block":1,"trial_type":"html-keyboard-response","trial_index":281,"time_elapsed":2417399,"internal_node_id":"0.0-13.0-1.57","match_key":"l","participant_id":"COGS_2020_17"},{"rt":895.5800000000745,"stimulus":"Images/rooster_2.png","key_press":65,"stim_onset":1581968906200,"block":1,"match_type":"non-match","image_category":"rooster","sound_category":"frog","audio_type":"sound","phase":"test","trial_type":"image-keyboard-response","trial_index":282,"time_elapsed":2418296,"internal_node_id":"0.0-13.0-2.57","match_key":"l","participant_id":"COGS_2020_17","correct":true},{"rt":null,"stimulus":"Sounds/correct.wav","key_press":null,"block":1,"trial_type":"audio-keyboard-response","trial_index":283,"time_elapsed":2420306,"internal_node_id":"0.0-13.0-3.57","match_key":"l","participant_id":"COGS_2020_17"},{"rt":null,"stimulus":"Sounds/motorcycle_sound.wav","key_press":null,"block":1,"trial_type":"audio-keyboard-response","trial_index":284,"time_elapsed":2421423,"internal_node_id":"0.0-13.0-0.58","match_key":"l","participant_id":"COGS_2020_17"},{"rt":null,"stimulus":"<p style=\"font-size: 48px;\">+</p>","key_press":null,"block":1,"trial_type":"html-keyboard-response","trial_index":285,"time_elapsed":2422416,"internal_node_id":"0.0-13.0-1.58","match_key":"l","participant_id":"COGS_2020_17"},{"rt":758.7050000000745,"stimulus":"Images/train_3.png","key_press":65,"stim_onset":1581968911217,"block":1,"match_type":"non-match","image_category":"train","sound_category":"motorcycle","audio_type":"sound","phase":"test","trial_type":"image-keyboard-response","trial_index":286,"time_elapsed":2423176,"internal_node_id":"0.0-13.0-2.58","match_key":"l","participant_id":"COGS_2020_17","correct":true},{"rt":null,"stimulus":"Sounds/correct.wav","key_press":null,"block":1,"trial_type":"audio-keyboard-response","trial_index":287,"time_elapsed":2425186,"internal_node_id":"0.0-13.0-3.58","match_key":"l","participant_id":"COGS_2020_17"},{"rt":null,"stimulus":"Sounds/gun_label.wav","key_press":null,"block":1,"trial_type":"audio-keyboard-response","trial_index":288,"time_elapsed":2425743,"internal_node_id":"0.0-13.0-0.59","match_key":"l","participant_id":"COGS_2020_17"},{"rt":null,"stimulus":"<p style=\"font-size: 48px;\">+</p>","key_press":null,"block":1,"trial_type":"html-keyboard-response","trial_index":289,"time_elapsed":2426733,"internal_node_id":"0.0-13.0-1.59","match_key":"l","participant_id":"COGS_2020_17"},{"rt":617.8299999996088,"stimulus":"Images/gun_orig.png","key_press":76,"stim_onset":1581968915534,"block":1,"match_type":"match","image_category":"gun","sound_category":"gun","audio_type":"label","phase":"test","trial_type":"image-keyboard-response","trial_index":290,"time_elapsed":2427352,"internal_node_id":"0.0-13.0-2.59","match_key":"l","participant_id":"COGS_2020_17","correct":true},{"rt":null,"stimulus":"Sounds/correct.wav","key_press":null,"block":1,"trial_type":"audio-keyboard-response","trial_index":291,"time_elapsed":2429355,"internal_node_id":"0.0-13.0-3.59","match_key":"l","participant_id":"COGS_2020_17"},{"rt":null,"stimulus":"Sounds/cat_sound.wav","key_press":null,"block":1,"trial_type":"audio-keyboard-response","trial_index":292,"time_elapsed":2430203,"internal_node_id":"0.0-13.0-0.60","match_key":"l","participant_id":"COGS_2020_17"},{"rt":null,"stimulus":"<p style=\"font-size: 48px;\">+</p>","key_press":null,"block":1,"trial_type":"html-keyboard-response","trial_index":293,"time_elapsed":2431199,"internal_node_id":"0.0-13.0-1.60","match_key":"l","participant_id":"COGS_2020_17"},{"rt":823.5600000000559,"stimulus":"Images/rooster_3.png","key_press":65,"stim_onset":1581968920000,"block":1,"match_type":"non-match","image_category":"rooster","sound_category":"cat","audio_type":"sound","phase":"test","trial_type":"image-keyboard-response","trial_index":294,"time_elapsed":2432024,"internal_node_id":"0.0-13.0-2.60","match_key":"l","participant_id":"COGS_2020_17","correct":true},{"rt":null,"stimulus":"Sounds/correct.wav","key_press":null,"block":1,"trial_type":"audio-keyboard-response","trial_index":295,"time_elapsed":2434037,"internal_node_id":"0.0-13.0-3.60","match_key":"l","participant_id":"COGS_2020_17"},{"rt":null,"stimulus":"Sounds/gun_sound.wav","key_press":null,"block":1,"trial_type":"audio-keyboard-response","trial_index":296,"time_elapsed":2434623,"internal_node_id":"0.0-13.0-0.61","match_key":"l","participant_id":"COGS_2020_17"},{"rt":null,"stimulus":"<p style=\"font-size: 48px;\">+</p>","key_press":null,"block":1,"trial_type":"html-keyboard-response","trial_index":297,"time_elapsed":2435616,"internal_node_id":"0.0-13.0-1.61","match_key":"l","participant_id":"COGS_2020_17"},{"rt":758.5250000003725,"stimulus":"Images/gun_1.png","key_press":76,"stim_onset":1581968924417,"block":1,"match_type":"match","image_category":"gun","sound_category":"gun","audio_type":"sound","phase":"test","trial_type":"image-keyboard-response","trial_index":298,"time_elapsed":2436376,"internal_node_id":"0.0-13.0-2.61","match_key":"l","participant_id":"COGS_2020_17","correct":true},{"rt":null,"stimulus":"Sounds/correct.wav","key_press":null,"block":1,"trial_type":"audio-keyboard-response","trial_index":299,"time_elapsed":2438386,"internal_node_id":"0.0-13.0-3.61","match_key":"l","participant_id":"COGS_2020_17"},{"rt":null,"stimulus":"Sounds/whistle_label.wav","key_press":null,"block":1,"trial_type":"audio-keyboard-response","trial_index":300,"time_elapsed":2439083,"internal_node_id":"0.0-13.0-0.62","match_key":"l","participant_id":"COGS_2020_17"},{"rt":null,"stimulus":"<p style=\"font-size: 48px;\">+</p>","key_press":null,"block":1,"trial_type":"html-keyboard-response","trial_index":301,"time_elapsed":2440083,"internal_node_id":"0.0-13.0-1.62","match_key":"l","participant_id":"COGS_2020_17"},{"rt":435.73000000044703,"stimulus":"Images/whistle_1.png","key_press":76,"stim_onset":1581968928884,"block":1,"match_type":"match","image_category":"whistle","sound_category":"whistle","audio_type":"label","phase":"test","trial_type":"image-keyboard-response","trial_index":302,"time_elapsed":2440520,"internal_node_id":"0.0-13.0-2.62","match_key":"l","participant_id":"COGS_2020_17","correct":true},{"rt":null,"stimulus":"Sounds/correct.wav","key_press":null,"block":1,"trial_type":"audio-keyboard-response","trial_index":303,"time_elapsed":2442537,"internal_node_id":"0.0-13.0-3.62","match_key":"l","participant_id":"COGS_2020_17"},{"rt":null,"stimulus":"Sounds/train_label.wav","key_press":null,"block":1,"trial_type":"audio-keyboard-response","trial_index":304,"time_elapsed":2443823,"internal_node_id":"0.0-13.0-0.63","match_key":"l","participant_id":"COGS_2020_17"},{"rt":null,"stimulus":"<p style=\"font-size: 48px;\">+</p>","key_press":null,"block":1,"trial_type":"html-keyboard-response","trial_index":305,"time_elapsed":2444816,"internal_node_id":"0.0-13.0-1.63","match_key":"l","participant_id":"COGS_2020_17"},{"rt":1190.6750000002794,"stimulus":"Images/rooster_cartoon.png","key_press":65,"stim_onset":1581968933618,"block":1,"match_type":"non-match","image_category":"rooster","sound_category":"train","audio_type":"label","phase":"test","trial_type":"image-keyboard-response","trial_index":306,"time_elapsed":2446008,"internal_node_id":"0.0-13.0-2.63","match_key":"l","participant_id":"COGS_2020_17","correct":true},{"rt":null,"stimulus":"Sounds/correct.wav","key_press":null,"block":1,"trial_type":"audio-keyboard-response","trial_index":307,"time_elapsed":2448022,"internal_node_id":"0.0-13.0-3.63","match_key":"l","participant_id":"COGS_2020_17"},{"rt":null,"stimulus":"Sounds/cat_label.wav","key_press":null,"block":1,"trial_type":"audio-keyboard-response","trial_index":308,"time_elapsed":2448863,"internal_node_id":"0.0-13.0-0.64","match_key":"l","participant_id":"COGS_2020_17"},{"rt":null,"stimulus":"<p style=\"font-size: 48px;\">+</p>","key_press":null,"block":1,"trial_type":"html-keyboard-response","trial_index":309,"time_elapsed":2449866,"internal_node_id":"0.0-13.0-1.64","match_key":"l","participant_id":"COGS_2020_17"},{"rt":476.07500000018626,"stimulus":"Images/cat_1.png","key_press":76,"stim_onset":1581968938668,"block":1,"match_type":"match","image_category":"cat","sound_category":"cat","audio_type":"label","phase":"test","trial_type":"image-keyboard-response","trial_index":310,"time_elapsed":2450344,"internal_node_id":"0.0-13.0-2.64","match_key":"l","participant_id":"COGS_2020_17","correct":true},{"rt":null,"stimulus":"Sounds/correct.wav","key_press":null,"block":1,"trial_type":"audio-keyboard-response","trial_index":311,"time_elapsed":2452353,"internal_node_id":"0.0-13.0-3.64","match_key":"l","participant_id":"COGS_2020_17"},{"rt":null,"stimulus":"Sounds/dog_label.wav","key_press":null,"block":1,"trial_type":"audio-keyboard-response","trial_index":312,"time_elapsed":2453003,"internal_node_id":"0.0-13.0-0.65","match_key":"l","participant_id":"COGS_2020_17"},{"rt":null,"stimulus":"<p style=\"font-size: 48px;\">+</p>","key_press":null,"block":1,"trial_type":"html-keyboard-response","trial_index":313,"time_elapsed":2454000,"internal_node_id":"0.0-13.0-1.65","match_key":"l","participant_id":"COGS_2020_17"},{"rt":775.0450000003912,"stimulus":"Images/dog_3.png","key_press":76,"stim_onset":1581968942801,"block":1,"match_type":"match","image_category":"dog","sound_category":"dog","audio_type":"label","phase":"test","trial_type":"image-keyboard-response","trial_index":314,"time_elapsed":2454776,"internal_node_id":"0.0-13.0-2.65","match_key":"l","participant_id":"COGS_2020_17","correct":true},{"rt":null,"stimulus":"Sounds/correct.wav","key_press":null,"block":1,"trial_type":"audio-keyboard-response","trial_index":315,"time_elapsed":2456787,"internal_node_id":"0.0-13.0-3.65","match_key":"l","participant_id":"COGS_2020_17"},{"rt":null,"stimulus":"Sounds/dog_sound.wav","key_press":null,"block":1,"trial_type":"audio-keyboard-response","trial_index":316,"time_elapsed":2457503,"internal_node_id":"0.0-13.0-0.66","match_key":"l","participant_id":"COGS_2020_17"},{"rt":null,"stimulus":"<p style=\"font-size: 48px;\">+</p>","key_press":null,"block":1,"trial_type":"html-keyboard-response","trial_index":317,"time_elapsed":2458500,"internal_node_id":"0.0-13.0-1.66","match_key":"l","participant_id":"COGS_2020_17"},{"rt":739.0950000002049,"stimulus":"Images/dog_2.png","key_press":76,"stim_onset":1581968947301,"block":1,"match_type":"match","image_category":"dog","sound_category":"dog","audio_type":"sound","phase":"test","trial_type":"image-keyboard-response","trial_index":318,"time_elapsed":2459240,"internal_node_id":"0.0-13.0-2.66","match_key":"l","participant_id":"COGS_2020_17","correct":true},{"rt":null,"stimulus":"Sounds/correct.wav","key_press":null,"block":1,"trial_type":"audio-keyboard-response","trial_index":319,"time_elapsed":2461254,"internal_node_id":"0.0-13.0-3.66","match_key":"l","participant_id":"COGS_2020_17"},{"rt":null,"stimulus":"Sounds/whistle_sound.wav","key_press":null,"block":1,"trial_type":"audio-keyboard-response","trial_index":320,"time_elapsed":2461963,"internal_node_id":"0.0-13.0-0.67","match_key":"l","participant_id":"COGS_2020_17"},{"rt":null,"stimulus":"<p style=\"font-size: 48px;\">+</p>","key_press":null,"block":1,"trial_type":"html-keyboard-response","trial_index":321,"time_elapsed":2462967,"internal_node_id":"0.0-13.0-1.67","match_key":"l","participant_id":"COGS_2020_17"},{"rt":527.8600000003353,"stimulus":"Images/car_3.png","key_press":65,"stim_onset":1581968951768,"block":1,"match_type":"non-match","image_category":"car","sound_category":"whistle","audio_type":"sound","phase":"test","trial_type":"image-keyboard-response","trial_index":322,"time_elapsed":2463496,"internal_node_id":"0.0-13.0-2.67","match_key":"l","participant_id":"COGS_2020_17","correct":true},{"rt":null,"stimulus":"Sounds/correct.wav","key_press":null,"block":1,"trial_type":"audio-keyboard-response","trial_index":323,"time_elapsed":2465505,"internal_node_id":"0.0-13.0-3.67","match_key":"l","participant_id":"COGS_2020_17"},{"rt":null,"stimulus":"Sounds/whistle_sound.wav","key_press":null,"block":1,"trial_type":"audio-keyboard-response","trial_index":324,"time_elapsed":2466183,"internal_node_id":"0.0-13.0-0.68","match_key":"l","participant_id":"COGS_2020_17"},{"rt":null,"stimulus":"<p style=\"font-size: 48px;\">+</p>","key_press":null,"block":1,"trial_type":"html-keyboard-response","trial_index":325,"time_elapsed":2467183,"internal_node_id":"0.0-13.0-1.68","match_key":"l","participant_id":"COGS_2020_17"},{"rt":647.5849999999627,"stimulus":"Images/whistle_3.png","key_press":76,"stim_onset":1581968955984,"block":1,"match_type":"match","image_category":"whistle","sound_category":"whistle","audio_type":"sound","phase":"test","trial_type":"image-keyboard-response","trial_index":326,"time_elapsed":2467832,"internal_node_id":"0.0-13.0-2.68","match_key":"l","participant_id":"COGS_2020_17","correct":true},{"rt":null,"stimulus":"Sounds/correct.wav","key_press":null,"block":1,"trial_type":"audio-keyboard-response","trial_index":327,"time_elapsed":2469842,"internal_node_id":"0.0-13.0-3.68","match_key":"l","participant_id":"COGS_2020_17"},{"rt":null,"stimulus":"Sounds/car_sound.wav","key_press":null,"block":1,"trial_type":"audio-keyboard-response","trial_index":328,"time_elapsed":2470923,"internal_node_id":"0.0-13.0-0.69","match_key":"l","participant_id":"COGS_2020_17"},{"rt":null,"stimulus":"<p style=\"font-size: 48px;\">+</p>","key_press":null,"block":1,"trial_type":"html-keyboard-response","trial_index":329,"time_elapsed":2471916,"internal_node_id":"0.0-13.0-1.69","match_key":"l","participant_id":"COGS_2020_17"},{"rt":602.3849999997765,"stimulus":"Images/train_1.png","key_press":65,"stim_onset":1581968960718,"block":1,"match_type":"non-match","image_category":"train","sound_category":"car","audio_type":"sound","phase":"test","trial_type":"image-keyboard-response","trial_index":330,"time_elapsed":2472520,"internal_node_id":"0.0-13.0-2.69","match_key":"l","participant_id":"COGS_2020_17","correct":true},{"rt":null,"stimulus":"Sounds/correct.wav","key_press":null,"block":1,"trial_type":"audio-keyboard-response","trial_index":331,"time_elapsed":2474522,"internal_node_id":"0.0-13.0-3.69","match_key":"l","participant_id":"COGS_2020_17"},{"rt":null,"stimulus":"Sounds/cow_label.wav","key_press":null,"block":1,"trial_type":"audio-keyboard-response","trial_index":332,"time_elapsed":2475543,"internal_node_id":"0.0-13.0-0.70","match_key":"l","participant_id":"COGS_2020_17"},{"rt":null,"stimulus":"<p style=\"font-size: 48px;\">+</p>","key_press":null,"block":1,"trial_type":"html-keyboard-response","trial_index":333,"time_elapsed":2476533,"internal_node_id":"0.0-13.0-1.70","match_key":"l","participant_id":"COGS_2020_17"},{"rt":721.4550000000745,"stimulus":"Images/rooster_1.png","key_press":65,"stim_onset":1581968965334,"block":1,"match_type":"non-match","image_category":"rooster","sound_category":"cow","audio_type":"label","phase":"test","trial_type":"image-keyboard-response","trial_index":334,"time_elapsed":2477256,"internal_node_id":"0.0-13.0-2.70","match_key":"l","participant_id":"COGS_2020_17","correct":true},{"rt":null,"stimulus":"Sounds/correct.wav","key_press":null,"block":1,"trial_type":"audio-keyboard-response","trial_index":335,"time_elapsed":2479271,"internal_node_id":"0.0-13.0-3.70","match_key":"l","participant_id":"COGS_2020_17"},{"rt":null,"stimulus":"Sounds/dog_label.wav","key_press":null,"block":1,"trial_type":"audio-keyboard-response","trial_index":336,"time_elapsed":2479923,"internal_node_id":"0.0-13.0-0.71","match_key":"l","participant_id":"COGS_2020_17"},{"rt":null,"stimulus":"<p style=\"font-size: 48px;\">+</p>","key_press":null,"block":1,"trial_type":"html-keyboard-response","trial_index":337,"time_elapsed":2480917,"internal_node_id":"0.0-13.0-1.71","match_key":"l","participant_id":"COGS_2020_17"},{"rt":545.8800000003539,"stimulus":"Images/dog_1.png","key_press":76,"stim_onset":1581968969718,"block":1,"match_type":"match","image_category":"dog","sound_category":"dog","audio_type":"label","phase":"test","trial_type":"image-keyboard-response","trial_index":338,"time_elapsed":2481463,"internal_node_id":"0.0-13.0-2.71","match_key":"l","participant_id":"COGS_2020_17","correct":true},{"rt":null,"stimulus":"Sounds/correct.wav","key_press":null,"block":1,"trial_type":"audio-keyboard-response","trial_index":339,"time_elapsed":2483472,"internal_node_id":"0.0-13.0-3.71","match_key":"l","participant_id":"COGS_2020_17"},{"rt":null,"stimulus":"Sounds/dog_sound.wav","key_press":null,"block":1,"trial_type":"audio-keyboard-response","trial_index":340,"time_elapsed":2484183,"internal_node_id":"0.0-13.0-0.72","match_key":"l","participant_id":"COGS_2020_17"},{"rt":null,"stimulus":"<p style=\"font-size: 48px;\">+</p>","key_press":null,"block":1,"trial_type":"html-keyboard-response","trial_index":341,"time_elapsed":2485183,"internal_node_id":"0.0-13.0-1.72","match_key":"l","participant_id":"COGS_2020_17"},{"rt":647.589999999851,"stimulus":"Images/dog_cartoon.png","key_press":76,"stim_onset":1581968973984,"block":1,"match_type":"match","image_category":"dog","sound_category":"dog","audio_type":"sound","phase":"test","trial_type":"image-keyboard-response","trial_index":342,"time_elapsed":2485832,"internal_node_id":"0.0-13.0-2.72","match_key":"l","participant_id":"COGS_2020_17","correct":true},{"rt":null,"stimulus":"Sounds/correct.wav","key_press":null,"block":1,"trial_type":"audio-keyboard-response","trial_index":343,"time_elapsed":2487840,"internal_node_id":"0.0-13.0-3.72","match_key":"l","participant_id":"COGS_2020_17"},{"rt":null,"stimulus":"Sounds/cow_label.wav","key_press":null,"block":1,"trial_type":"audio-keyboard-response","trial_index":344,"time_elapsed":2488823,"internal_node_id":"0.0-13.0-0.73","match_key":"l","participant_id":"COGS_2020_17"},{"rt":null,"stimulus":"<p style=\"font-size: 48px;\">+</p>","key_press":null,"block":1,"trial_type":"html-keyboard-response","trial_index":345,"time_elapsed":2489817,"internal_node_id":"0.0-13.0-1.73","match_key":"l","participant_id":"COGS_2020_17"},{"rt":541.8450000002049,"stimulus":"Images/cow_2.png","key_press":76,"stim_onset":1581968978618,"block":1,"match_type":"match","image_category":"cow","sound_category":"cow","audio_type":"label","phase":"test","trial_type":"image-keyboard-response","trial_index":346,"time_elapsed":2490360,"internal_node_id":"0.0-13.0-2.73","match_key":"l","participant_id":"COGS_2020_17","correct":true},{"rt":null,"stimulus":"Sounds/correct.wav","key_press":null,"block":1,"trial_type":"audio-keyboard-response","trial_index":347,"time_elapsed":2492371,"internal_node_id":"0.0-13.0-3.73","match_key":"l","participant_id":"COGS_2020_17"},{"rt":null,"stimulus":"Sounds/rooster_sound.wav","key_press":null,"block":1,"trial_type":"audio-keyboard-response","trial_index":348,"time_elapsed":2493063,"internal_node_id":"0.0-13.0-0.74","match_key":"l","participant_id":"COGS_2020_17"},{"rt":null,"stimulus":"<p style=\"font-size: 48px;\">+</p>","key_press":null,"block":1,"trial_type":"html-keyboard-response","trial_index":349,"time_elapsed":2494067,"internal_node_id":"0.0-13.0-1.74","match_key":"l","participant_id":"COGS_2020_17"},{"rt":563.7050000000745,"stimulus":"Images/train_orig.png","key_press":65,"stim_onset":1581968982868,"block":1,"match_type":"non-match","image_category":"train","sound_category":"rooster","audio_type":"sound","phase":"test","trial_type":"image-keyboard-response","trial_index":350,"time_elapsed":2494632,"internal_node_id":"0.0-13.0-2.74","match_key":"l","participant_id":"COGS_2020_17","correct":true},{"rt":null,"stimulus":"Sounds/correct.wav","key_press":null,"block":1,"trial_type":"audio-keyboard-response","trial_index":351,"time_elapsed":2496640,"internal_node_id":"0.0-13.0-3.74","match_key":"l","participant_id":"COGS_2020_17"},{"rt":null,"stimulus":"Sounds/train_label.wav","key_press":null,"block":1,"trial_type":"audio-keyboard-response","trial_index":352,"time_elapsed":2497923,"internal_node_id":"0.0-13.0-0.75","match_key":"l","participant_id":"COGS_2020_17"},{"rt":null,