"rt","responses","trial_type","trial_index","time_elapsed","internal_node_id","match_key","participant_id","stimulus","key_press","block","stim_onset","match_type","image_category","sound_category","audio_type","phase","correct"
"29583.510000025854","{""Q0"":""COGS219_2020_01""}","survey-text","0","29639","0.0-0.0","l","COGS219_2020_01","","","","","","","","","",""
"59726.46500001429","","html-keyboard-response","1","89376","0.0-1.0","l","COGS219_2020_01","<p>Use KEYBOARD 1 (match RIGHT)</p><p>Press MATCH to continue.</p>","76","","","","","","","",""
"2166862.3249999946","","html-keyboard-response","2","2255568","0.0-2.0","l","COGS219_2020_01","<p>Welcome to the experiment.</p>","32","","","","","","","",""
"16361.169999989215","","html-keyboard-response","3","2271935","0.0-3.0","l","COGS219_2020_01","<p>Thank you for agreeing to participate in this study.</p><p>If during any part of the procedure you must stop for any reason, please inform the researcher that you do not wish to continue.</p>","32","","","","","","","",""
"21662.874999979977","","html-keyboard-response","4","2293599","0.0-4.0","l","COGS219_2020_01","<p>In this experiment, you will hear various words or sounds and see pictures of various animals and objects.</p><p>Most of the images will be of common everyday objects, such as cars, cats, cows, firearms, frogs, chickens, whistles, trains, motorcycles, and dogs.</p><p>Some of the images will be real-life stills, while others will be cartoons.</p>","32","","","","","","","",""
"20814.560000027996","","html-keyboard-response","5","2314415","0.0-5.0","l","COGS219_2020_01","<p>Sometimes, the word/sound will match the picture, for example you'll hear a meowing sound and see a cat.</p><p>Other times, the picture will not match the sound or word.</p><p>Your task is to decide as quickly as possible if the word/sound matches the picture or not. </p>","32","","","","","","","",""
"16990.684999967925","","html-keyboard-response","6","2331406","0.0-6.0","l","COGS219_2020_01","<p>For example, if you hear the word ""cat"" or hear a meowing sound, and then see a picture of a cat, you should press the MATCH key.</p><p> If the sound and image do not match, press the NOT-MATCH key to indicate that there is not a match.</p>","32","","","","","","","",""
"17551.344999985304","","html-keyboard-response","7","2348958","0.0-7.0","l","COGS219_2020_01","<p>If you make a mistake, you will hear a buzzing sound instead of a more pleasant sound.</p><p> Try to respond as quickly as possible, while making as few errors as possible. If you are making mistakes, you are probably rushing.</p>","32","","","","","","","",""
"13918.440000037663","","html-keyboard-response","8","2362878","0.0-8.0","l","COGS219_2020_01","<p>Please try to not move or blink your eyes during the presentation of the images. You can move and blink between images.</p><p>During the experiment there will be some breaks during which you can rest your eyes.</p>","32","","","","","","","",""
"13919.01000001235","","html-keyboard-response","9","2376798","0.0-9.0","l","COGS219_2020_01","<p>We will begin with 10 practice trials. Please let the experimenter know if you have any questions.</p>","32","","","","","","","",""
"null","","audio-keyboard-response","10","2377790","0.0-10.0-0.0","l","COGS219_2020_01","Sounds/frog_sound.wav","null","0","","","","","","",""
"null","","html-keyboard-response","11","2378780","0.0-10.0-1.0","l","COGS219_2020_01","<p style=""font-size: 48px;"">+</p>","null","0","","","","","","",""
"1102.7999999932945","","image-keyboard-response","12","2379885","0.0-10.0-2.0","l","COGS219_2020_01","Images/frog_cartoon.png","76","0","1581180235366","match","frog","frog","sound","practice","true"
"null","","audio-keyboard-response","13","2381898","0.0-10.0-3.0","l","COGS219_2020_01","Sounds/correct.wav","null","0","","","","","","",""
"null","","audio-keyboard-response","14","2382930","0.0-10.0-0.1","l","COGS219_2020_01","Sounds/cow_label.wav","null","0","","","","","","",""
"null","","html-keyboard-response","15","2383930","0.0-10.0-1.1","l","COGS219_2020_01","<p style=""font-size: 48px;"">+</p>","null","0","","","","","","",""
"1073.4250000095926","","image-keyboard-response","16","2385005","0.0-10.0-2.1","l","COGS219_2020_01","Images/cow_1.png","76","0","1581180240515","match","cow","cow","label","practice","true"
"null","","audio-keyboard-response","17","2387009","0.0-10.0-3.1","l","COGS219_2020_01","Sounds/correct.wav","null","0","","","","","","",""
"null","","audio-keyboard-response","18","2387710","0.0-10.0-0.2","l","COGS219_2020_01","Sounds/whistle_sound.wav","null","0","","","","","","",""
"null","","html-keyboard-response","19","2388714","0.0-10.0-1.2","l","COGS219_2020_01","<p style=""font-size: 48px;"">+</p>","null","0","","","","","","",""
"1106.2950000050478","","image-keyboard-response","20","2389821","0.0-10.0-2.2","l","COGS219_2020_01","Images/car_cartoon.png","65","0","1581180245299","non-match","car","whistle","sound","practice","true"
"null","","audio-keyboard-response","21","2391829","0.0-10.0-3.2","l","COGS219_2020_01","Sounds/correct.wav","null","0","","","","","","",""
"null","","audio-keyboard-response","22","2392949","0.0-10.0-0.3","l","COGS219_2020_01","Sounds/motorcycle_sound.wav","null","0","","","","","","",""
"null","","html-keyboard-response","23","2393947","0.0-10.0-1.3","l","COGS219_2020_01","<p style=""font-size: 48px;"">+</p>","null","0","","","","","","",""
"1024.7850000159815","","image-keyboard-response","24","2394973","0.0-10.0-2.3","l","COGS219_2020_01","Images/car_orig.png","76","0","1581180250532","non-match","car","motorcycle","sound","practice","false"
"null","","audio-keyboard-response","25","2396986","0.0-10.0-3.3","l","COGS219_2020_01","Sounds/incorrect.wav","null","0","","","","","","",""
"null","","audio-keyboard-response","26","2398069","0.0-10.0-0.4","l","COGS219_2020_01","Sounds/car_sound.wav","null","0","","","","","","",""
"null","","html-keyboard-response","27","2399063","0.0-10.0-1.4","l","COGS219_2020_01","<p style=""font-size: 48px;"">+</p>","null","0","","","","","","",""
"900.4450000356883","","image-keyboard-response","28","2399965","0.0-10.0-2.4","l","COGS219_2020_01","Images/car_1.png","76","0","1581180255649","match","car","car","sound","practice","true"
"null","","audio-keyboard-response","29","2401969","0.0-10.0-3.4","l","COGS219_2020_01","Sounds/correct.wav","null","0","","","","","","",""
"null","","audio-keyboard-response","30","2403030","0.0-10.0-0.5","l","COGS219_2020_01","Sounds/car_sound.wav","null","0","","","","","","",""
"null","","html-keyboard-response","31","2404047","0.0-10.0-1.5","l","COGS219_2020_01","<p style=""font-size: 48px;"">+</p>","null","0","","","","","","",""
"732.6349999639206","","image-keyboard-response","32","2404781","0.0-10.0-2.5","l","COGS219_2020_01","Images/frog_orig.png","65","0","1581180260632","non-match","frog","car","sound","practice","true"
"null","","audio-keyboard-response","33","2406789","0.0-10.0-3.5","l","COGS219_2020_01","Sounds/correct.wav","null","0","","","","","","",""
"null","","audio-keyboard-response","34","2407629","0.0-10.0-0.6","l","COGS219_2020_01","Sounds/cat_sound.wav","null","0","","","","","","",""
"null","","html-keyboard-response","35","2408647","0.0-10.0-1.6","l","COGS219_2020_01","<p style=""font-size: 48px;"">+</p>","null","0","","","","","","",""
"740.60499999905","","image-keyboard-response","36","2409389","0.0-10.0-2.6","l","COGS219_2020_01","Images/cat_3.png","76","0","1581180265232","match","cat","cat","sound","practice","true"
"null","","audio-keyboard-response","37","2411405","0.0-10.0-3.6","l","COGS219_2020_01","Sounds/correct.wav","null","0","","","","","","",""
"null","","audio-keyboard-response","38","2412069","0.0-10.0-0.7","l","COGS219_2020_01","Sounds/dog_label.wav","null","0","","","","","","",""
"null","","html-keyboard-response","39","2413063","0.0-10.0-1.7","l","COGS219_2020_01","<p style=""font-size: 48px;"">+</p>","null","0","","","","","","",""
"772.5050000008196","","image-keyboard-response","40","2413837","0.0-10.0-2.7","l","COGS219_2020_01","Images/dog_cartoon.png","76","0","1581180269649","match","dog","dog","label","practice","true"
"null","","audio-keyboard-response","41","2415841","0.0-10.0-3.7","l","COGS219_2020_01","Sounds/correct.wav","null","0","","","","","","",""
"null","","audio-keyboard-response","42","2417129","0.0-10.0-0.8","l","COGS219_2020_01","Sounds/train_label.wav","null","0","","","","","","",""
"null","","html-keyboard-response","43","2418147","0.0-10.0-1.8","l","COGS219_2020_01","<p style=""font-size: 48px;"">+</p>","null","0","","","","","","",""
"616.6550000198185","","image-keyboard-response","44","2418765","0.0-10.0-2.8","l","COGS219_2020_01","Images/frog_1.png","65","0","1581180274732","non-match","frog","train","label","practice","true"
"null","","audio-keyboard-response","45","2420781","0.0-10.0-3.8","l","COGS219_2020_01","Sounds/correct.wav","null","0","","","","","","",""
"null","","audio-keyboard-response","46","2421789","0.0-10.0-0.9","l","COGS219_2020_01","Sounds/cow_label.wav","null","0","","","","","","",""
"null","","html-keyboard-response","47","2422780","0.0-10.0-1.9","l","COGS219_2020_01","<p style=""font-size: 48px;"">+</p>","null","0","","","","","","",""
"2143.575000052806","","image-keyboard-response","48","2424925","0.0-10.0-2.9","l","COGS219_2020_01","Images/cow_orig.png","76","0","1581180279365","match","cow","cow","label","practice","true"
"null","","audio-keyboard-response","49","2426941","0.0-10.0-3.9","l","COGS219_2020_01","Sounds/correct.wav","null","0","","","","","","",""
"31711.375000013504","","html-keyboard-response","50","2458652","0.0-11.0","l","COGS219_2020_01","<p>The rest of the experiment is divided into five blocks with 100 trials in each block. It will take about 45 minutes to complete.</p><p>The experimenter will be in the outer room and you can communicate with them through the monitor if you have any questions or wish to stop the experiment.</p>","32","","","","","","","",""
"9614.6300000255","","html-keyboard-response","51","2468268","0.0-12.0","l","COGS219_2020_01","<p>Remember, please try not to move or blink your eyes during the presentation of the images. </p><p>At the end of the experiment, we will show you your scores on the task so you can see how you did.</p><p>The experiment will start on the next screen.</p>","32","","","","","","","",""
"null","","audio-keyboard-response","52","2471320","0.0-13.0-0.0","l","COGS219_2020_01","Sounds/cow_sound.wav","null","1","","","","","","",""
"null","","html-keyboard-response","53","2472313","0.0-13.0-1.0","l","COGS219_2020_01","<p style=""font-size: 48px;"">+</p>","null","1","","","","","","",""
"1137.4850000138395","","image-keyboard-response","54","2473452","0.0-13.0-2.0","l","COGS219_2020_01","Images/cow_cartoon.png","76","1","1581180328898","match","cow","cow","sound","test","true"
"null","","audio-keyboard-response","55","2475460","0.0-13.0-3.0","l","COGS219_2020_01","Sounds/correct.wav","null","1","","","","","","",""
"null","","audio-keyboard-response","56","2476302","0.0-13.0-0.1","l","COGS219_2020_01","Sounds/cat_sound.wav","null","1","","","","","","",""
"null","","html-keyboard-response","57","2477296","0.0-13.0-1.1","l","COGS219_2020_01","<p style=""font-size: 48px;"">+</p>","null","1","","","","","","",""
"650.2500000060536","","image-keyboard-response","58","2477948","0.0-13.0-2.1","l","COGS219_2020_01","Images/cow_cartoon.png","65","1","1581180333881","non-match","cow","cat","sound","test","true"
"null","","audio-keyboard-response","59","2479953","0.0-13.0-3.1","l","COGS219_2020_01","Sounds/correct.wav","null","1","","","","","","",""
"null","","audio-keyboard-response","60","2480660","0.0-13.0-0.2","l","COGS219_2020_01","Sounds/rooster_sound.wav","null","1","","","","","","",""
"null","","html-keyboard-response","61","2481663","0.0-13.0-1.2","l","COGS219_2020_01","<p style=""font-size: 48px;"">+</p>","null","1","","","","","","",""
"635.4900000151247","","image-keyboard-response","62","2482300","0.0-13.0-2.2","l","COGS219_2020_01","Images/rooster_1.png","76","1","1581180338248","match","rooster","rooster","sound","test","true"
"null","","audio-keyboard-response","63","2484303","0.0-13.0-3.2","l","COGS219_2020_01","Sounds/correct.wav","null","1","","","","","","",""
"null","","audio-keyboard-response","64","2485300","0.0-13.0-0.3","l","COGS219_2020_01","Sounds/cow_sound.wav","null","1","","","","","","",""
"null","","html-keyboard-response","65","2486297","0.0-13.0-1.3","l","COGS219_2020_01","<p style=""font-size: 48px;"">+</p>","null","1","","","","","","",""
"1201.9950000103563","","image-keyboard-response","66","2487500","0.0-13.0-2.3","l","COGS219_2020_01","Images/cow_3.png","65","1","1581180342882","match","cow","cow","sound","test","false"
"null","","audio-keyboard-response","67","2489505","0.0-13.0-3.3","l","COGS219_2020_01","Sounds/incorrect.wav","null","1","","","","","","",""
"null","","audio-keyboard-response","68","2490320","0.0-13.0-0.4","l","COGS219_2020_01","Sounds/cat_sound.wav","null","1","","","","","","",""
"null","","html-keyboard-response","69","2491313","0.0-13.0-1.4","l","COGS219_2020_01","<p style=""font-size: 48px;"">+</p>","null","1","","","","","","",""
"553.4850000403821","","image-keyboard-response","70","2491868","0.0-13.0-2.4","l","COGS219_2020_01","Images/dog_1.png","65","1","1581180347898","non-match","dog","cat","sound","test","true"
"null","","audio-keyboard-response","71","2493873","0.0-13.0-3.4","l","COGS219_2020_01","Sounds/correct.wav","null","1","","","","","","",""
"null","","audio-keyboard-response","72","2494460","0.0-13.0-0.5","l","COGS219_2020_01","Sounds/gun_sound.wav","null","1","","","","","","",""
"null","","html-keyboard-response","73","2495463","0.0-13.0-1.5","l","COGS219_2020_01","<p style=""font-size: 48px;"">+</p>","null","1","","","","","","",""
"1523.2400000095367","","image-keyboard-response","74","2496988","0.0-13.0-2.5","l","COGS219_2020_01","Images/motorcycle_2.png","65","1","1581180352048","non-match","motorcycle","gun","sound","test","true"
"null","","audio-keyboard-response","75","2499003","0.0-13.0-3.5","l","COGS219_2020_01","Sounds/correct.wav","null","1","","","","","","",""
"null","","audio-keyboard-response","76","2499700","0.0-13.0-0.6","l","COGS219_2020_01","Sounds/rooster_sound.wav","null","1","","","","","","",""
"null","","html-keyboard-response","77","2500697","0.0-13.0-1.6","l","COGS219_2020_01","<p style=""font-size: 48px;"">+</p>","null","1","","","","","","",""
"834.3099999474362","","image-keyboard-response","78","2501532","0.0-13.0-2.6","l","COGS219_2020_01","Images/rooster_2.png","76","1","1581180357282","match","rooster","rooster","sound","test","true"
"null","","audio-keyboard-response","79","2503535","0.0-13.0-3.6","l","COGS219_2020_01","Sounds/correct.wav","null","1","","","","","","",""
"null","","audio-keyboard-response","80","2504340","0.0-13.0-0.7","l","COGS219_2020_01","Sounds/cat_sound.wav","null","1","","","","","","",""
"null","","html-keyboard-response","81","2505330","0.0-13.0-1.7","l","COGS219_2020_01","<p style=""font-size: 48px;"">+</p>","null","1","","","","","","",""
"888.5400000144728","","image-keyboard-response","82","2506220","0.0-13.0-2.7","l","COGS219_2020_01","Images/cat_1.png","76","1","1581180361915","match","cat","cat","sound","test","true"
"null","","audio-keyboard-response","83","2508234","0.0-13.0-3.7","l","COGS219_2020_01","Sounds/correct.wav","null","1","","","","","","",""
"null","","audio-keyboard-response","84","2508940","0.0-13.0-0.8","l","COGS219_2020_01","Sounds/dog_sound.wav","null","1","","","","","","",""
"null","","html-keyboard-response","85","2509930","0.0-13.0-1.8","l","COGS219_2020_01","<p style=""font-size: 48px;"">+</p>","null","1","","","","","","",""
"896.5650000027381","","image-keyboard-response","86","2510828","0.0-13.0-2.8","l","COGS219_2020_01","Images/frog_3.png","65","1","1581180366515","non-match","frog","dog","sound","test","true"
"null","","audio-keyboard-response","87","2512835","0.0-13.0-3.8","l","COGS219_2020_01","Sounds/correct.wav","null","1","","","","","","",""
"null","","audio-keyboard-response","88","2513980","0.0-13.0-0.9","l","COGS219_2020_01","Sounds/motorcycle_label.wav","null","1","","","","","","",""
"null","","html-keyboard-response","89","2514980","0.0-13.0-1.9","l","COGS219_2020_01","<p style=""font-size: 48px;"">+</p>","null","1","","","","","","",""
"854.6649999916553","","image-keyboard-response","90","2515836","0.0-13.0-2.9","l","COGS219_2020_01","Images/motorcycle_3.png","76","1","1581180371565","match","motorcycle","motorcycle","label","test","true"
"null","","audio-keyboard-response","91","2517853","0.0-13.0-3.9","l","COGS219_2020_01","Sounds/correct.wav","null","1","","","","","","",""
"null","","audio-keyboard-response","92","2518520","0.0-13.0-0.10","l","COGS219_2020_01","Sounds/dog_label.wav","null","1","","","","","","",""
"null","","html-keyboard-response","93","2519513","0.0-13.0-1.10","l","COGS219_2020_01","<p style=""font-size: 48px;"">+</p>","null","1","","","","","","",""
"705.1800000481308","","image-keyboard-response","94","2520219","0.0-13.0-2.10","l","COGS219_2020_01","Images/motorcycle_cartoon.png","65","1","1581180376099","non-match","motorcycle","dog","label","test","true"
"null","","audio-keyboard-response","95","2522234","0.0-13.0-3.10","l","COGS219_2020_01","Sounds/correct.wav","null","1","","","","","","",""
"null","","audio-keyboard-response","96","2522920","0.0-13.0-0.11","l","COGS219_2020_01","Sounds/dog_sound.wav","null","1","","","","","","",""
"null","","html-keyboard-response","97","2523913","0.0-13.0-1.11","l","COGS219_2020_01","<p style=""font-size: 48px;"">+</p>","null","1","","","","","","",""
"625.034999975469","","image-keyboard-response","98","2524539","0.0-13.0-2.11","l","COGS219_2020_01","Images/car_2.png","65","1","1581180380499","non-match","car","dog","sound","test","true"
"null","","audio-keyboard-response","99","2526551","0.0-13.0-3.11","l","COGS219_2020_01","Sounds/correct.wav","null","1","","","","","","",""
"null","","audio-keyboard-response","100","2527640","0.0-13.0-0.12","l","COGS219_2020_01","Sounds/car_label.wav","null","1","","","","","","",""
"null","","html-keyboard-response","101","2528630","0.0-13.0-1.12","l","COGS219_2020_01","<p style=""font-size: 48px;"">+</p>","null","1","","","","","","",""
"868.625000002794","","image-keyboard-response","102","2529500","0.0-13.0-2.12","l","COGS219_2020_01","Images/car_cartoon.png","76","1","1581180385215","match","car","car","label","test","true"
"null","","audio-keyboard-response","103","2531505","0.0-13.0-3.12","l","COGS219_2020_01","Sounds/correct.wav","null","1","","","","","","",""
"null","","audio-keyboard-response","104","2532200","0.0-13.0-0.13","l","COGS219_2020_01","Sounds/dog_sound.wav","null","1","","","","","","",""
"null","","html-keyboard-response","105","2533197","0.0-13.0-1.13","l","COGS219_2020_01","<p style=""font-size: 48px;"">+</p>","null","1","","","","","","",""
"861.3499999628402","","image-keyboard-response","106","2534059","0.0-13.0-2.13","l","COGS219_2020_01","Images/dog_2.png","76","1","1581180389782","match","dog","dog","sound","test","true"
"null","","audio-keyboard-response","107","2536070","0.0-13.0-3.13","l","COGS219_2020_01","Sounds/correct.wav","null","1","","","","","","",""
"null","","audio-keyboard-response","108","2536980","0.0-13.0-0.14","l","COGS219_2020_01","Sounds/frog_sound.wav","null","1","","","","","","",""
"null","","html-keyboard-response","109","2537980","0.0-13.0-1.14","l","COGS219_2020_01","<p style=""font-size: 48px;"">+</p>","null","1","","","","","","",""
"494.03499998152256","","image-keyboard-response","110","2538475","0.0-13.0-2.14","l","COGS219_2020_01","Images/frog_orig.png","76","1","1581180394565","match","frog","frog","sound","test","true"
"null","","audio-keyboard-response","111","2540483","0.0-13.0-3.14","l","COGS219_2020_01","Sounds/correct.wav","null","1","","","","","","",""
"null","","audio-keyboard-response","112","2541500","0.0-13.0-0.15","l","COGS219_2020_01","Sounds/cow_sound.wav","null","1","","","","","","",""
"null","","html-keyboard-response","113","2542497","0.0-13.0-1.15","l","COGS219_2020_01","<p style=""font-size: 48px;"">+</p>","null","1","","","","","","",""
"569.6900000330061","","image-keyboard-response","114","2543068","0.0-13.0-2.15","l","COGS219_2020_01","Images/rooster_orig.png","65","1","1581180399082","non-match","rooster","cow","sound","test","true"
"null","","audio-keyboard-response","115","2545070","0.0-13.0-3.15","l","COGS219_2020_01","Sounds/correct.wav","null","1","","","","","","",""
"null","","audio-keyboard-response","116","2545900","0.0-13.0-0.16","l","COGS219_2020_01","Sounds/cat_sound.wav","null","1","","","","","","",""
"null","","html-keyboard-response","117","2546897","0.0-13.0-1.16","l","COGS219_2020_01","<p style=""font-size: 48px;"">+</p>","null","1","","","","","","",""
"457.50000001862645","","image-keyboard-response","118","2547355","0.0-13.0-2.16","l","COGS219_2020_01","Images/motorcycle_3.png","65","1","1581180403482","non-match","motorcycle","cat","sound","test","true"
"null","","audio-keyboard-response","119","2549368","0.0-13.0-3.16","l","COGS219_2020_01","Sounds/correct.wav","null","1","","","","","","",""
"null","","audio-keyboard-response","120","2550260","0.0-13.0-0.17","l","COGS219_2020_01","Sounds/frog_sound.wav","null","1","","","","","","",""
"null","","html-keyboard-response","121","2551264","0.0-13.0-1.17","l","COGS219_2020_01","<p style=""font-size: 48px;"">+</p>","null","1","","","","","","",""
"714.6349999820814","","image-keyboard-response","122","2551980","0.0-13.0-2.17","l","COGS219_2020_01","Images/frog_2.png","76","1","1581180407849","match","frog","frog","sound","test","true"
"null","","audio-keyboard-response","123","2553987","0.0-13.0-3.17","l","COGS219_2020_01","Sounds/correct.wav","null","1","","","","","","",""
"null","","audio-keyboard-response","124","2554680","0.0-13.0-0.18","l","COGS219_2020_01","Sounds/rooster_sound.wav","null","1","","","","","","",""
"null","","html-keyboard-response","125","2555680","0.0-13.0-1.18","l","COGS219_2020_01","<p style=""font-size: 48px;"">+</p>","null","1","","","","","","",""
"1130.3049999987707","","image-keyboard-response","126","2556812","0.0-13.0-2.18","l","COGS219_2020_01","Images/whistle_cartoon.png","65","1","1581180412266","non-match","whistle","rooster","sound","test","true"
"null","","audio-keyboard-response","127","2558819","0.0-13.0-3.18","l","COGS219_2020_01","Sounds/correct.wav","null","1","","","","","","",""
"null","","audio-keyboard-response","128","2560100","0.0-13.0-0.19","l","COGS219_2020_01","Sounds/train_label.wav","null","1","","","","","","",""
"null","","html-keyboard-response","129","2561097","0.0-13.0-1.19","l","COGS219_2020_01","<p style=""font-size: 48px;"">+</p>","null","1","","","","","","",""
"945.4300000215881","","image-keyboard-response","130","2562044","0.0-13.0-2.19","l","COGS219_2020_01","Images/whistle_2.png","65","1","1581180417682","non-match","whistle","train","label","test","true"
"null","","audio-keyboard-response","131","2564055","0.0-13.0-3.19","l","COGS219_2020_01","Sounds/correct.wav","null","1","","","","","","",""
"null","","audio-keyboard-response","132","2564880","0.0-13.0-0.20","l","COGS219_2020_01","Sounds/cat_sound.wav","null","1","","","","","","",""
"null","","html-keyboard-response","133","2565897","0.0-13.0-1.20","l","COGS219_2020_01","<p style=""font-size: 48px;"">+</p>","null","1","","","","","","",""
"609.195000026375","","image-keyboard-response","134","2566507","0.0-13.0-2.20","l","COGS219_2020_01","Images/cat_orig.png","76","1","1581180422482","match","cat","cat","sound","test","true"
"null","","audio-keyboard-response","135","2568517","0.0-13.0-3.20","l","COGS219_2020_01","Sounds/correct.wav","null","1","","","","","","",""
"null","","audio-keyboard-response","136","2569660","0.0-13.0-0.21","l","COGS219_2020_01","Sounds/motorcycle_label.wav","null","1","","","","","","",""
"null","","html-keyboard-response","137","2570664","0.0-13.0-1.21","l","COGS219_2020_01","<p style=""font-size: 48px;"">+</p>","null","1","","","","","","",""
"625.5750000127591","","image-keyboard-response","138","2571291","0.0-13.0-2.21","l","COGS219_2020_01","Images/motorcycle_orig.png","76","1","1581180427249","match","motorcycle","motorcycle","label","test","true"
"null","","audio-keyboard-response","139","2573301","0.0-13.0-3.21","l","COGS219_2020_01","Sounds/correct.wav","null","1","","","","","","",""
"null","","audio-keyboard-response","140","2574380","0.0-13.0-0.22","l","COGS219_2020_01","Sounds/car_sound.wav","null","1","","","","","","",""
"null","","html-keyboard-response","141","2575396","0.0-13.0-1.22","l","COGS219_2020_01","<p style=""font-size: 48px;"">+</p>","null","1","","","","","","",""
"2421.0800000000745","","image-keyboard-response","142","2577818","0.0-13.0-2.22","l","COGS219_2020_01","Images/cow_1.png","65","1","1581180431982","non-match","cow","car","sound","test","true"
"null","","audio-keyboard-response","143","2579822","0.0-13.0-3.22","l","COGS219_2020_01","Sounds/correct.wav","null","1","","","","","","",""
"null","","audio-keyboard-response","144","2580739","0.0-13.0-0.23","l","COGS219_2020_01","Sounds/frog_sound.wav","null","1","","","","","","",""
"null","","html-keyboard-response","145","2581730","0.0-13.0-1.23","l","COGS219_2020_01","<p style=""font-size: 48px;"">+</p>","null","1","","","","","","",""
"856.1650000046939","","image-keyboard-response","146","2582589","0.0-13.0-2.23","l","COGS219_2020_01","Images/rooster_3.png","65","1","1581180438315","non-match","rooster","frog","sound","test","true"
"null","","audio-keyboard-response","147","2584599","0.0-13.0-3.23","l","COGS219_2020_01","Sounds/correct.wav","null","1","","","","","","",""
"null","","audio-keyboard-response","148","2585499","0.0-13.0-0.24","l","COGS219_2020_01","Sounds/frog_label.wav","null","1","","","","","","",""
"null","","html-keyboard-response","149","2586496","0.0-13.0-1.24","l","COGS219_2020_01","<p style=""font-size: 48px;"">+</p>","null","1","","","","","","",""
"1176.964999991469","","image-keyboard-response","150","2587674","0.0-13.0-2.24","l","COGS219_2020_01","Images/frog_1.png","76","1","1581180443082","match","frog","frog","label","test","true"
"null","","audio-keyboard-response","151","2589683","0.0-13.0-3.24","l","COGS219_2020_01","Sounds/correct.wav","null","1","","","","","","",""
"null","","audio-keyboard-response","152","2590699","0.0-13.0-0.25","l","COGS219_2020_01","Sounds/cow_label.wav","null","1","","","","","","",""
"null","","html-keyboard-response","153","2591697","0.0-13.0-1.25","l","COGS219_2020_01","<p style=""font-size: 48px;"">+</p>","null","1","","","","","","",""
"697.0999999903142","","image-keyboard-response","154","2592395","0.0-13.0-2.25","l","COGS219_2020_01","Images/cow_orig.png","76","1","1581180448282","match","cow","cow","label","test","true"
"null","","audio-keyboard-response","155","2594402","0.0-13.0-3.25","l","COGS219_2020_01","Sounds/correct.wav","null","1","","","","","","",""
"null","","audio-keyboard-response","156","2595699","0.0-13.0-0.26","l","COGS219_2020_01","Sounds/train_sound.wav","null","1","","","","","","",""
"null","","html-keyboard-response","157","2596697","0.0-13.0-1.26","l","COGS219_2020_01","<p style=""font-size: 48px;"">+</p>","null","1","","","","","","",""
"1152.364999987185","","image-keyboard-response","158","2597851","0.0-13.0-2.26","l","COGS219_2020_01","Images/gun_2.png","65","1","1581180453282","non-match","gun","train","sound","test","true"
"null","","audio-keyboard-response","159","2599867","0.0-13.0-3.26","l","COGS219_2020_01","Sounds/correct.wav","null","1","","","","","","",""
"null","","audio-keyboard-response","160","2600579","0.0-13.0-0.27","l","COGS219_2020_01","Sounds/whistle_label.wav","null","1","","","","","","",""
"null","","html-keyboard-response","161","2601597","0.0-13.0-1.27","l","COGS219_2020_01","<p style=""font-size: 48px;"">+</p>","null","1","","","","","","",""
"492.8000000072643","","image-keyboard-response","162","2602091","0.0-13.0-2.27","l","COGS219_2020_01","Images/whistle_orig.png","76","1","1581180458182","match","whistle","whistle","label","test","true"
"null","","audio-keyboard-response","163","2604100","0.0-13.0-3.27","l","COGS219_2020_01","Sounds/correct.wav","null","1","","","","","","",""
"null","","audio-keyboard-response","164","2605119","0.0-13.0-0.28","l","COGS219_2020_01","Sounds/cow_sound.wav","null","1","","","","","","",""
"null","","html-keyboard-response","165","2606113","0.0-13.0-1.28","l","COGS219_2020_01","<p style=""font-size: 48px;"">+</p>","null","1","","","","","","",""
"792.1249999781139","","image-keyboard-response","166","2606907","0.0-13.0-2.28","l","COGS219_2020_01","Images/cat_3.png","65","1","1581180462698","non-match","cat","cow","sound","test","true"
"null","","audio-keyboard-response","167","2608916","0.0-13.0-3.28","l","COGS219_2020_01","Sounds/correct.wav","null","1","","","","","","",""
"null","","audio-keyboard-response","168","2610039","0.0-13.0-0.29","l","COGS219_2020_01","Sounds/motorcycle_sound.wav","null","1","","","","","","",""
"null","","html-keyboard-response","169","2611030","0.0-13.0-1.29","l","COGS219_2020_01","<p style=""font-size: 48px;"">+</p>","null","1","","","","","","",""
"1731.690000044182","","image-keyboard-response","170","2612763","0.0-13.0-2.29","l","COGS219_2020_01","Images/motorcycle_1.png","76","1","1581180467615","match","motorcycle","motorcycle","sound","test","true"
"null","","audio-keyboard-response","171","2614769","0.0-13.0-3.29","l","COGS219_2020_01","Sounds/correct.wav","null","1","","","","","","",""
"null","","audio-keyboard-response","172","2615359","0.0-13.0-0.30","l","COGS219_2020_01","Sounds/gun_label.wav","null","1","","","","","","",""
"null","","html-keyboard-response","173","2616364","0.0-13.0-1.30","l","COGS219_2020_01","<p style=""font-size: 48px;"">+</p>","null","1","","","","","","",""
"621.7399999732152","","image-keyboard-response","174","2616987","0.0-13.0-2.30","l","COGS219_2020_01","Images/gun_cartoon.png","76","1","1581180472949","match","gun","gun","label","test","true"
"null","","audio-keyboard-response","175","2619001","0.0-13.0-3.30","l","COGS219_2020_01","Sounds/correct.wav","null","1","","","","","","",""
"null","","audio-keyboard-response","176","2620139","0.0-13.0-0.31","l","COGS219_2020_01","Sounds/motorcycle_label.wav","null","1","","","","","","",""
"null","","html-keyboard-response","177","2621130","0.0-13.0-1.31","l","COGS219_2020_01","<p style=""font-size: 48px;"">+</p>","null","1","","","","","","",""
"607.6900000334717","","image-keyboard-response","178","2621739","0.0-13.0-2.31","l","COGS219_2020_01","Images/cat_2.png","65","1","1581180477715","non-match","cat","motorcycle","label","test","true"
"null","","audio-keyboard-response","179","2623751","0.0-13.0-3.31","l","COGS219_2020_01","Sounds/correct.wav","null","1","","","","","","",""
"null","","audio-keyboard-response","180","2624659","0.0-13.0-0.32","l","COGS219_2020_01","Sounds/frog_sound.wav","null","1","","","","","","",""
"null","","html-keyboard-response","181","2625664","0.0-13.0-1.32","l","COGS219_2020_01","<p style=""font-size: 48px;"">+</p>","null","1","","","","","","",""
"586.0349999857135","","image-keyboard-response","182","2626251","0.0-13.0-2.32","l","COGS219_2020_01","Images/frog_cartoon.png","76","1","1581180482249","match","frog","frog","sound","test","true"
"null","","audio-keyboard-response","183","2628255","0.0-13.0-3.32","l","COGS219_2020_01","Sounds/correct.wav","null","1","","","","","","",""
"null","","audio-keyboard-response","184","2629099","0.0-13.0-0.33","l","COGS219_2020_01","Sounds/cat_label.wav","null","1","","","","","","",""
"null","","html-keyboard-response","185","2630097","0.0-13.0-1.33","l","COGS219_2020_01","<p style=""font-size: 48px;"">+</p>","null","1","","","","","","",""
"664.4349999842234","","image-keyboard-response","186","2630763","0.0-13.0-2.33","l","COGS219_2020_01","Images/cat_cartoon.png","76","1","1581180486682","match","cat","cat","label","test","true"
"null","","audio-keyboard-response","187","2632772","0.0-13.0-3.33","l","COGS219_2020_01","Sounds/correct.wav","null","1","","","","","","",""
"null","","audio-keyboard-response","188","2633879","0.0-13.0-0.34","l","COGS219_2020_01","Sounds/motorcycle_label.wav","null","1","","","","","","",""
"null","","html-keyboard-response","189","2634897","0.0-13.0-1.34","l","COGS219_2020_01","<p style=""font-size: 48px;"">+</p>","null","1","","","","","","",""
"600.5550000118092","","image-keyboard-response","190","2635498","0.0-13.0-2.34","l","COGS219_2020_01","Images/dog_cartoon.png","65","1","1581180491482","non-match","dog","motorcycle","label","test","true"
"null","","audio-keyboard-response","191","2637503","0.0-13.0-3.34","l","COGS219_2020_01","Sounds/correct.wav","null","1","","","","","","",""
"null","","audio-keyboard-response","192","2638518","0.0-13.0-0.35","l","COGS219_2020_01","Sounds/cow_sound.wav","null","1","","","","","","",""
"null","","html-keyboard-response","193","2639513","0.0-13.0-1.35","l","COGS219_2020_01","<p style=""font-size: 48px;"">+</p>","null","1","","","","","","",""
"1614.4750000094064","","image-keyboard-response","194","2641130","0.0-13.0-2.35","l","COGS219_2020_01","Images/motorcycle_orig.png","65","1","1581180496098","non-match","motorcycle","cow","sound","test","true"
"null","","audio-keyboard-response","195","2643137","0.0-13.0-3.35","l","COGS219_2020_01","Sounds/correct.wav","null","1","","","","","","",""
"null","","audio-keyboard-response","196","2643978","0.0-13.0-0.36","l","COGS219_2020_01","Sounds/cat_sound.wav","null","1","","","","","","",""
"null","","html-keyboard-response","197","2644996","0.0-13.0-1.36","l","COGS219_2020_01","<p style=""font-size: 48px;"">+</p>","null","1","","","","","","",""
"660.4550000047311","","image-keyboard-response","198","2645658","0.0-13.0-2.36","l","COGS219_2020_01","Images/cat_2.png","65","1","1581180501582","match","cat","cat","sound","test","false"
"null","","audio-keyboard-response","199","2647665","0.0-13.0-3.36","l","COGS219_2020_01","Sounds/incorrect.wav","null","1","","","","","","",""
"null","","audio-keyboard-response","200","2648498","0.0-13.0-0.37","l","COGS219_2020_01","Sounds/cat_label.wav","null","1","","","","","","",""
"null","","html-keyboard-response","201","2649497","0.0-13.0-1.37","l","COGS219_2020_01","<p style=""font-size: 48px;"">+</p>","null","1","","","","","","",""
"560.3200000477955","","image-keyboard-response","202","2650058","0.0-13.0-2.37","l","COGS219_2020_01","Images/cat_3.png","76","1","1581180506081","match","cat","cat","label","test","true"
"null","","audio-keyboard-response","203","2652068","0.0-13.0-3.37","l","COGS219_2020_01","Sounds/correct.wav","null","1","","","","","","",""
"null","","audio-keyboard-response","204","2653158","0.0-13.0-0.38","l","COGS219_2020_01","Sounds/car_sound.wav","null","1","","","","","","",""
"null","","html-keyboard-response","205","2654163","0.0-13.0-1.38","l","COGS219_2020_01","<p style=""font-size: 48px;"">+</p>","null","1","","","","","","",""
"1029.964999994263","","image-keyboard-response","206","2655194","0.0-13.0-2.38","l","COGS219_2020_01","Images/car_1.png","76","1","1581180510748","match","car","car","sound","test","true"
"null","","audio-keyboard-response","207","2657208","0.0-13.0-3.38","l","COGS219_2020_01","Sounds/correct.wav","null","1","","","","","","",""
"null","","audio-keyboard-response","208","2658218","0.0-13.0-0.39","l","COGS219_2020_01","Sounds/cow_label.wav","null","1","","","","","","",""
"null","","html-keyboard-response","209","2659213","0.0-13.0-1.39","l","COGS219_2020_01","<p style=""font-size: 48px;"">+</p>","null","1","","","","","","",""
"875.6750000175089","","image-keyboard-response","210","2660090","0.0-13.0-2.39","l","COGS219_2020_01","Images/car_1.png","65","1","1581180515798","non-match","car","cow","label","test","true"
"null","","audio-keyboard-response","211","2662100","0.0-13.0-3.39","l","COGS219_2020_01","Sounds/correct.wav","null","1","","","","","","",""
"null","","audio-keyboard-response","212","2662798","0.0-13.0-0.40","l","COGS219_2020_01","Sounds/whistle_label.wav","null","1","","","","","","",""
"null","","html-keyboard-response","213","2663797","0.0-13.0-1.40","l","COGS219_2020_01","<p style=""font-size: 48px;"">+</p>","null","1","","","","","","",""
"468.11000001616776","","image-keyboard-response","214","2664266","0.0-13.0-2.40","l","COGS219_2020_01","Images/whistle_cartoon.png","76","1","1581180520382","match","whistle","whistle","label","test","true"
"null","","audio-keyboard-response","215","2666270","0.0-13.0-3.40","l","COGS219_2020_01","Sounds/correct.wav","null","1","","","","","","",""
"null","","audio-keyboard-response","216","2667098","0.0-13.0-0.41","l","COGS219_2020_01","Sounds/cat_label.wav","null","1","","","","","","",""
"null","","html-keyboard-response","217","2668097","0.0-13.0-1.41","l","COGS219_2020_01","<p style=""font-size: 48px;"">+</p>","null","1","","","","","","",""
"744.3900000071153","","image-keyboard-response","218","2668842","0.0-13.0-2.41","l","COGS219_2020_01","Images/frog_orig.png","65","1","1581180524682","non-match","frog","cat","label","test","true"
"null","","audio-keyboard-response","219","2670852","0.0-13.0-3.41","l","COGS219_2020_01","Sounds/correct.wav","null","1","","","","","","",""
"null","","audio-keyboard-response","220","2672158","0.0-13.0-0.42","l","COGS219_2020_01","Sounds/train_sound.wav","null","1","","","","","","",""
"null","","html-keyboard-response","221","2673164","0.0-13.0-1.42","l","COGS219_2020_01","<p style=""font-size: 48px;"">+</p>","null","1","","","","","","",""
"557.4199999682605","","image-keyboard-response","222","2673722","0.0-13.0-2.42","l","COGS219_2020_01","Images/dog_2.png","65","1","1581180529749","non-match","dog","train","sound","test","true"
"null","","audio-keyboard-response","223","2675736","0.0-13.0-3.42","l","COGS219_2020_01","Sounds/correct.wav","null","1","","","","","","",""
"null","","audio-keyboard-response","224","2676818","0.0-13.0-0.43","l","COGS219_2020_01","Sounds/car_label.wav","null","1","","","","","","",""
"null","","html-keyboard-response","225","2677813","0.0-13.0-1.43","l","COGS219_2020_01","<p style=""font-size: 48px;"">+</p>","null","1","","","","","","",""
"723.5599999548867","","image-keyboard-response","226","2678538","0.0-13.0-2.43","l","COGS219_2020_01","Images/cat_cartoon.png","65","1","1581180534398","non-match","cat","car","label","test","true"
"null","","audio-keyboard-response","227","2680553","0.0-13.0-3.43","l","COGS219_2020_01","Sounds/correct.wav","null","1","","","","","","",""
"null","","audio-keyboard-response","228","2681678","0.0-13.0-0.44","l","COGS219_2020_01","Sounds/motorcycle_sound.wav","null","1","","","","","","",""
"null","","html-keyboard-response","229","2682680","0.0-13.0-1.44","l","COGS219_2020_01","<p style=""font-size: 48px;"">+</p>","null","1","","","","","","",""
"944.7950000176206","","image-keyboard-response","230","2683626","0.0-13.0-2.44","l","COGS219_2020_01","Images/motorcycle_cartoon.png","76","1","1581180539265","match","motorcycle","motorcycle","sound","test","true"
"null","","audio-keyboard-response","231","2685635","0.0-13.0-3.44","l","COGS219_2020_01","Sounds/correct.wav","null","1","","","","","","",""
"null","","audio-keyboard-response","232","2686898","0.0-13.0-0.45","l","COGS219_2020_01","Sounds/train_sound.wav","null","1","","","","","","",""
"null","","html-keyboard-response","233","2687897","0.0-13.0-1.45","l","COGS219_2020_01","<p style=""font-size: 48px;"">+</p>","null","1","","","","","","",""
"1520.0250000343658","","image-keyboard-response","234","2689418","0.0-13.0-2.45","l","COGS219_2020_01","Images/rooster_2.png","65","1","1581180544482","non-match","rooster","train","sound","test","true"
"null","","audio-keyboard-response","235","2691421","0.0-13.0-3.45","l","COGS219_2020_01","Sounds/correct.wav","null","1","","","","","","",""
"null","","audio-keyboard-response","236","2692118","0.0-13.0-0.46","l","COGS219_2020_01","Sounds/whistle_sound.wav","null","1","","","","","","",""
"null","","html-keyboard-response","237","2693114","0.0-13.0-1.46","l","COGS219_2020_01","<p style=""font-size: 48px;"">+</p>","null","1","","","","","","",""
"831.3900000066496","","image-keyboard-response","238","2693946","0.0-13.0-2.46","l","COGS219_2020_01","Images/whistle_3.png","76","1","1581180549699","match","whistle","whistle","sound","test","true"
"null","","audio-keyboard-response","239","2695953","0.0-13.0-3.46","l","COGS219_2020_01","Sounds/correct.wav","null","1","","","","","","",""
"null","","audio-keyboard-response","240","2696657","0.0-13.0-0.47","l","COGS219_2020_01","Sounds/rooster_label.wav","null","1","","","","","","",""
"null","","html-keyboard-response","241","2697646","0.0-13.0-1.47","l","COGS219_2020_01","<p style=""font-size: 48px;"">+</p>","null","1","","","","","","",""
"1033.9149999781512","","image-keyboard-response","242","2698681","0.0-13.0-2.47","l","COGS219_2020_01","Images/rooster_cartoon.png","76","1","1581180554231","match","rooster","rooster","label","test","true"
"null","","audio-keyboard-response","243","2700684","0.0-13.0-3.47","l","COGS219_2020_01","Sounds/correct.wav","null","1","","","","","","",""
"null","","audio-keyboard-response","244","2701817","0.0-13.0-0.48","l","COGS219_2020_01","Sounds/motorcycle_label.wav","null","1","","","","","","",""
"null","","html-keyboard-response","245","2702813","0.0-13.0-1.48","l","COGS219_2020_01","<p style=""font-size: 48px;"">+</p>","null","1","","","","","","",""
"715.0900000124238","","image-keyboard-response","246","2703529","0.0-13.0-2.48","l","COGS219_2020_01","Images/motorcycle_2.png","76","1","1581180559398","match","motorcycle","motorcycle","label","test","true"
"null","","audio-keyboard-response","247","2705536","0.0-13.0-3.48","l","COGS219_2020_01","Sounds/correct.wav","null","1","","","","","","",""
"null","","audio-keyboard-response","248","2706557","0.0-13.0-0.49","l","COGS219_2020_01","Sounds/cow_sound.wav","null","1","","","","","","",""
"null","","html-keyboard-response","249","2707563","0.0-13.0-1.49","l","COGS219_2020_01","<p style=""font-size: 48px;"">+</p>","null","1","","","","","","",""
"781.0800000443123","","image-keyboard-response","250","2708345","0.0-13.0-2.49","l","COGS219_2020_01","Images/gun_cartoon.png","65","1","1581180564148","non-match","gun","cow","sound","test","true"
"null","","audio-keyboard-response","251","2710353","0.0-13.0-3.49","l","COGS219_2020_01","Sounds/correct.wav","null","1","","","","","","",""
"null","","audio-keyboard-response","252","2711457","0.0-13.0-0.50","l","COGS219_2020_01","Sounds/motorcycle_label.wav","null","1","","","","","","",""
"null","","html-keyboard-response","253","2712463","0.0-13.0-1.50","l","COGS219_2020_01","<p style=""font-size: 48px;"">+</p>","null","1","","","","","","",""
"920.9899999550544","","image-keyboard-response","254","2713385","0.0-13.0-2.50","l","COGS219_2020_01","Images/frog_2.png","65","1","1581180569048","non-match","frog","motorcycle","label","test","true"
"null","","audio-keyboard-response","255","2715400","0.0-13.0-3.50","l","COGS219_2020_01","Sounds/correct.wav","null","1","","","","","","",""
"null","","audio-keyboard-response","256","2716057","0.0-13.0-0.51","l","COGS219_2020_01","Sounds/dog_label.wav","null","1","","","","","","",""
"null","","html-keyboard-response","257","2717046","0.0-13.0-1.51","l","COGS219_2020_01","<p style=""font-size: 48px;"">+</p>","null","1","","","","","","",""
"721.834999974817","","image-keyboard-response","258","2717769","0.0-13.0-2.51","l","COGS219_2020_01","Images/dog_orig.png","76","1","1581180573631","match","dog","dog","label","test","true"
"null","","audio-keyboard-response","259","2719784","0.0-13.0-3.51","l","COGS219_2020_01","Sounds/correct.wav","null","1","","","","","","",""
"null","","audio-keyboard-response","260","2720857","0.0-13.0-0.52","l","COGS219_2020_01","Sounds/car_label.wav","null","1","","","","","","",""
"null","","html-keyboard-response","261","2721863","0.0-13.0-1.52","l","COGS219_2020_01","<p style=""font-size: 48px;"">+</p>","null","1","","","","","","",""
"705.1050000009127","","image-keyboard-response","262","2722569","0.0-13.0-2.52","l","COGS219_2020_01","Images/car_3.png","76","1","1581180578448","match","car","car","label","test","true"
"null","","audio-keyboard-response","263","2724584","0.0-13.0-3.52","l","COGS219_2020_01","Sounds/correct.wav","null","1","","","","","","",""
"null","","audio-keyboard-response","264","2725217","0.0-13.0-0.53","l","COGS219_2020_01","Sounds/dog_label.wav","null","1","","","","","","",""
"null","","html-keyboard-response","265","2726213","0.0-13.0-1.53","l","COGS219_2020_01","<p style=""font-size: 48px;"">+</p>","null","1","","","","","","",""
"658.9549999916926","","image-keyboard-response","266","2726873","0.0-13.0-2.53","l","COGS219_2020_01","Images/dog_cartoon.png","76","1","1581180582798","match","dog","dog","label","test","true"
"null","","audio-keyboard-response","267","2728883","0.0-13.0-3.53","l","COGS219_2020_01","Sounds/correct.wav","null","1","","","","","","",""
"null","","audio-keyboard-response","268","2729797","0.0-13.0-0.54","l","COGS219_2020_01","Sounds/frog_sound.wav","null","1","","","","","","",""
"null","","html-keyboard-response","269","2730797","0.0-13.0-1.54","l","COGS219_2020_01","<p style=""font-size: 48px;"">+</p>","null","1","","","","","","",""
"827.564999985043","","image-keyboard-response","270","2731625","0.0-13.0-2.54","l","COGS219_2020_01","Images/cat_1.png","65","1","1581180587381","non-match","cat","frog","sound","test","true"
"null","","audio-keyboard-response","271","2733635","0.0-13.0-3.54","l","COGS219_2020_01","Sounds/correct.wav","null","1","","","","","","",""
"null","","audio-keyboard-response","272","2734337","0.0-13.0-0.55","l","COGS219_2020_01","Sounds/whistle_sound.wav","null","1","","","","","","",""
"null","","html-keyboard-response","273","2735330","0.0-13.0-1.55","l","COGS219_2020_01","<p style=""font-size: 48px;"">+</p>","null","1","","","","","","",""
"470.4749999800697","","image-keyboard-response","274","2735801","0.0-13.0-2.55","l","COGS219_2020_01","Images/whistle_2.png","76","1","1581180591915","match","whistle","whistle","sound","test","true"
"null","","audio-keyboard-response","275","2737817","0.0-13.0-3.55","l","COGS219_2020_01","Sounds/correct.wav","null","1","","","","","","",""
"null","","audio-keyboard-response","276","2738457","0.0-13.0-0.56","l","COGS219_2020_01","Sounds/dog_label.wav","null","1","","","","","","",""
"null","","html-keyboard-response","277","2739447","0.0-13.0-1.56","l","COGS219_2020_01","<p style=""font-size: 48px;"">+</p>","null","1","","","","","","",""
"705.4550000466406","","image-keyboard-response","278","2740153","0.0-13.0-2.56","l","COGS219_2020_01","Images/cow_orig.png","65","1","1581180596032","non-match","cow","dog","label","test","true"
"null","","audio-keyboard-response","279","2742169","0.0-13.0-3.56","l","COGS219_2020_01","Sounds/correct.wav","null","1","","","","","","",""
"null","","audio-keyboard-response","280","2742797","0.0-13.0-0.57","l","COGS219_2020_01","Sounds/dog_label.wav","null","1","","","","","","",""
"null","","html-keyboard-response","281","2743797","0.0-13.0-1.57","l","COGS219_2020_01","<p style=""font-size: 48px;"">+</p>","null","1","","","","","","",""
"515.480000001844","","image-keyboard-response","282","2744313","0.0-13.0-2.57","l","COGS219_2020_01","Images/dog_3.png","76","1","1581180600382","match","dog","dog","label","test","true"
"null","","audio-keyboard-response","283","2746319","0.0-13.0-3.57","l","COGS219_2020_01","Sounds/correct.wav","null","1","","","","","","",""
"null","","audio-keyboard-response","284","2746957","0.0-13.0-0.58","l","COGS219_2020_01","Sounds/dog_label.wav","null","1","","","","","","",""
"null","","html-keyboard-response","285","2747947","0.0-13.0-1.58","l","COGS219_2020_01","<p style=""font-size: 48px;"">+</p>","null","1","","","","","","",""
"605.5449999985285","","image-keyboard-response","286","2748553","0.0-13.0-2.58","l","COGS219_2020_01","Images/rooster_1.png","65","1","1581180604532","non-match","rooster","dog","label","test","true"
"null","","audio-keyboard-response","287","2750567","0.0-13.0-3.58","l","COGS219_2020_01","Sounds/correct.wav","null","1","","","","","","",""
"null","","audio-keyboard-response","288","2751257","0.0-13.0-0.59","l","COGS219_2020_01","Sounds/whistle_label.wav","null","1","","","","","","",""
"null","","html-keyboard-response","289","2752247","0.0-13.0-1.59","l","COGS219_2020_01","<p style=""font-size: 48px;"">+</p>","null","1","","","","","","",""
"721.4050000184216","","image-keyboard-response","290","2752969","0.0-13.0-2.59","l","COGS219_2020_01","Images/car_orig.png","65","1","1581180608832","non-match","car","whistle","label","test","true"
"null","","audio-keyboard-response","291","2754985","0.0-13.0-3.59","l","COGS219_2020_01","Sounds/correct.wav","null","1","","","","","","",""
"null","","audio-keyboard-response","292","2755697","0.0-13.0-0.60","l","COGS219_2020_01","Sounds/dog_sound.wav","null","1","","","","","","",""
"null","","html-keyboard-response","293","2756696","0.0-13.0-1.60","l","COGS219_2020_01","<p style=""font-size: 48px;"">+</p>","null","1","","","","","","",""
"767.2100000199862","","image-keyboard-response","294","2757464","0.0-13.0-2.60","l","COGS219_2020_01","Images/dog_1.png","76","1","1581180613281","match","dog","dog","sound","test","true"
"null","","audio-keyboard-response","295","2759470","0.0-13.0-3.60","l","COGS219_2020_01","Sounds/correct.wav","null","1","","","","","","",""
"null","","audio-keyboard-response","296","2760177","0.0-13.0-0.61","l","COGS219_2020_01","Sounds/rooster_sound.wav","null","1","","","","","","",""
"null","","html-keyboard-response","297","2761180","0.0-13.0-1.61","l","COGS219_2020_01","<p style=""font-size: 48px;"">+</p>","null","1","","","","","","",""
"860.1849999977276","","image-keyboard-response","298","2762041","0.0-13.0-2.61","l","COGS219_2020_01","Images/dog_orig.png","65","1","1581180617765","non-match","dog","rooster","sound","test","true"
"null","","audio-keyboard-response","299","2764050","0.0-13.0-3.61","l","COGS219_2020_01","Sounds/correct.wav","null","1","","","","","","",""
"null","","audio-keyboard-response","300","2764757","0.0-13.0-0.62","l","COGS219_2020_01","Sounds/rooster_label.wav","null","1","","","","","","",""
"null","","html-keyboard-response","301","2765746","0.0-13.0-1.62","l","COGS219_2020_01","<p style=""font-size: 48px;"">+</p>","null","1","","","","","","",""
"597.234999993816","","image-keyboard-response","302","2766344","0.0-13.0-2.62","l","COGS219_2020_01","Images/rooster_3.png","76","1","1581180622331","match","rooster","rooster","label","test","true"
"null","","audio-keyboard-response","303","2768351","0.0-13.0-3.62","l","COGS219_2020_01","Sounds/correct.wav","null","1","","","","","","",""
"null","","audio-keyboard-response","304","2769437","0.0-13.0-0.63","l","COGS219_2020_01","Sounds/car_label.wav","null","1","","","","","","",""
"null","","html-keyboard-response","305","2770430","0.0-13.0-1.63","l","COGS219_2020_01","<p style=""font-size: 48px;"">+</p>","null","1","","","","","","",""
"969.8600000119768","","image-keyboard-response","306","2771400","0.0-13.0-2.63","l","COGS219_2020_01","Images/whistle_orig.png","65","1","1581180627015","non-match","whistle","car","label","test","true"
"null","","audio-keyboard-response","307","2773415","0.0-13.0-3.63","l","COGS219_2020_01","Sounds/correct.wav","null","1","","","","","","",""
"null","","audio-keyboard-response","308","2774537","0.0-13.0-0.64","l","COGS219_2020_01","Sounds/motorcycle_label.wav","null","1","","","","","","",""
"null","","html-keyboard-response","309","2775530","0.0-13.0-1.64","l","COGS219_2020_01","<p style=""font-size: 48px;"">+</p>","null","1","","","","","","",""
"638.0100000533275","","image-keyboard-response","310","2776169","0.0-13.0-2.64","l","COGS219_2020_01","Images/train_1.png","65","1","1581180632115","non-match","train","motorcycle","label","test","true"
"null","","audio-keyboard-response","311","2778184","0.0-13.0-3.64","l","COGS219_2020_01","Sounds/correct.wav","null","1","","","","","","",""
"null","","audio-keyboard-response","312","2779457","0.0-13.0-0.65","l","COGS219_2020_01","Sounds/train_label.wav","null","1","","","","","","",""
"null","","html-keyboard-response","313","2780463","0.0-13.0-1.65","l","COGS219_2020_01","<p style=""font-size: 48px;"">+</p>","null","1","","","","","","",""
"680.3599999984726","","image-keyboard-response","314","2781145","0.0-13.0-2.65","l","COGS219_2020_01","Images/cat_orig.png","65","1","1581180637048","non-match","cat","train","label","test","true"
"null","","audio-keyboard-response","315","2783152","0.0-13.0-3.65","l","COGS219_2020_01","Sounds/correct.wav","null","1","","","","","","",""
"null","","audio-keyboard-response","316","2784397","0.0-13.0-0.66","l","COGS219_2020_01","Sounds/train_label.wav","null","1","","","","","","",""
"null","","html-keyboard-response","317","2785396","0.0-13.0-1.66","l","COGS219_2020_01","<p style=""font-size: 48px;"">+</p>","null","1","","","","","","",""
"482.16000001411885","","image-keyboard-response","318","2785881","0.0-13.0-2.66","l","COGS219_2020_01","Images/train_1.png","76","1","1581180641982","match","train","train","label","test","true"
"null","","audio-keyboard-response","319","2787885","0.0-13.0-3.66","l","COGS219_2020_01","Sounds/correct.wav","null","1","","","","","","",""
"null","","audio-keyboard-response","320","2788957","0.0-13.0-0.67","l","COGS219_2020_01","Sounds/car_label.wav","null","1","","","","","","",""
"null","","html-keyboard-response","321","2789946","0.0-13.0-1.67","l","COGS219_2020_01","<p style=""font-size: 48px;"">+</p>","null","1","","","","","","",""
"637.3599999933504","","image-keyboard-response","322","2790585","0.0-13.0-2.67","l","COGS219_2020_01","Images/gun_3.png","65","1","1581180646532","non-match","gun","car","label","test","true"
"null","","audio-keyboard-response","323","2792602","0.0-13.0-3.67","l","COGS219_2020_01","Sounds/correct.wav","null","1","","","","","","",""
"null","","audio-keyboard-response","324","2793177","0.0-13.0-0.68","l","COGS219_2020_01","Sounds/gun_label.wav","null","1","","","","","","",""
"null","","html-keyboard-response","325","2794180","0.0-13.0-1.68","l","COGS219_2020_01","<p style=""font-size: 48px;"">+</p>","null","1","","","","","","",""
"579.5149999903515","","image-keyboard-response","326","2794760","0.0-13.0-2.68","l","COGS219_2020_01","Images/cow_3.png","65","1","1581180650765","non-match","cow","gun","label","test","true"
"null","","audio-keyboard-response","327","2796770","0.0-13.0-3.68","l","COGS219_2020_01","Sounds/correct.wav","null","1","","","","","","",""
"null","","audio-keyboard-response","328","2797357","0.0-13.0-0.69","l","COGS219_2020_01","Sounds/gun_sound.wav","null","1","","","","","","",""
"null","","html-keyboard-response","329","2798347","0.0-13.0-1.69","l","COGS219_2020_01","<p style=""font-size: 48px;"">+</p>","null","1","","","","","","",""
"668.9650000189431","","image-keyboard-response","330","2799017","0.0-13.0-2.69","l","COGS219_2020_01","Images/gun_3.png","65","1","1581180654932","match","gun","gun","sound","test","false"
"null","","audio-keyboard-response","331","2801021","0.0-13.0-3.69","l","COGS219_2020_01","Sounds/incorrect.wav","null","1","","","","","","",""
"null","","audio-keyboard-response","332","2801577","0.0-13.0-0.70","l","COGS219_2020_01","Sounds/gun_sound.wav","null","1","","","","","","",""
"null","","html-keyboard-response","333","2802580","0.0-13.0-1.70","l","COGS219_2020_01","<p style=""font-size: 48px;"">+</p>","null","1","","","","","","",""
"691.980000003241","","image-keyboard-response","334","2803273","0.0-13.0-2.70","l","COGS219_2020_01","Images/gun_orig.png","76","1","1581180659165","match","gun","gun","sound","test","true"
"null","","audio-keyboard-response","335","2805285","0.0-13.0-3.70","l","COGS219_2020_01","Sounds/correct.wav","null","1","","","","","","",""
"null","","audio-keyboard-response","336","2805977","0.0-13.0-0.71","l","COGS219_2020_01","Sounds/rooster_sound.wav","null","1","","","","","","",""
"null","","html-keyboard-response","337","2806980","0.0-13.0-1.71","l","COGS219_2020_01","<p style=""font-size: 48px;"">+</p>","null","1","","","","","","",""
"755.1699999603443","","image-keyboard-response","338","2807737","0.0-13.0-2.71","l","COGS219_2020_01","Images/gun_orig.png","65","1","1581180663565","non-match","gun","rooster","sound","test","true"
"null","","audio-keyboard-response","339","2809751","0.0-13.0-3.71","l","COGS219_2020_01","Sounds/correct.wav","null","1","","","","","","",""
"null","","audio-keyboard-response","340","2810777","0.0-13.0-0.72","l","COGS219_2020_01","Sounds/cow_label.wav","null","1","","","","","","",""
"null","","html-keyboard-response","341","2811780","0.0-13.0-1.72","l","COGS219_2020_01","<p style=""font-size: 48px;"">+</p>","null","1","","","","","","",""
"707.2649999754503","","image-keyboard-response","342","2812488","0.0-13.0-2.72","l","COGS219_2020_01","Images/cow_2.png","76","1","1581180668365","match","cow","cow","label","test","true"
"null","","audio-keyboard-response","343","2814501","0.0-13.0-3.72","l","COGS219_2020_01","Sounds/correct.wav","null","1","","","","","","",""
"null","","audio-keyboard-response","344","2815797","0.0-13.0-0.73","l","COGS219_2020_01","Sounds/train_sound.wav","null","1","","","","","","",""
"null","","html-keyboard-response","345","2816796","0.0-13.0-1.73","l","COGS219_2020_01","<p style=""font-size: 48px;"">+</p>","null","1","","","","","","",""
"634.9699999555014","","image-keyboard-response","346","2817432","0.0-13.0-2.73","l","COGS219_2020_01","Images/train_3.png","76","1","1581180673381","match","train","train","sound","test","true"
"null","","audio-keyboard-response","347","2819435","0.0-13.0-3.73","l","COGS219_2020_01","Sounds/correct.wav","null","1","","","","","","",""
"null","","audio-keyboard-response","348","2820136","0.0-13.0-0.74","l","COGS219_2020_01","Sounds/whistle_label.wav","null","1","","","","","","",""
"null","","html-keyboard-response","349","2821129","0.0-13.0-1.74","l","COGS219_2020_01","<p style=""font-size: 48px;"">+</p>","null","1","","","","","","",""
"605.4800000274554","","image-keyboard-response","350","2821736","0.0-13.0-2.74","l","COGS219_2020_01","Images/dog_3.png","65","1","1581180677715","non-match","dog","whistle","label","test","true"
"null","","audio-keyboard-response","351","2823750","0.0-13.0-3.74","l","COGS219_2020_01","Sounds/correct.wav","null","1","","","","","","",""
"null","","audio-keyboard-response","352","2824336","0.0-13.0-0.75","l","COGS219_2020_01","Sounds/gun_sound.wav","null","1","","","","","","",""
"null","","html-keyboard-response","353","2825330","0.0-13.0-1.75","l","COGS219_2020_01","<p style=""font-size: 48px;"">+</p>","null","1","","","","","","",""
"885.1399999693967","","image-keyboard-response","354","2826216","0.0-13.0-2.75","l","COGS219_2020_01","Images/whistle_3.png","65","1","1581180681915","non-match","whistle","gun","sound","test","true"
"null","","audio-keyboard-response","355","2828233","0.0-13.0-3.75","l","COGS219_2020_01","Sounds/correct.wav","null","1","","","","","","",""
"null","","audio-keyboard-response","356","2828896","0.0-13.0-0.76","l","COGS219_2020_01","Sounds/whistle_label.wav","null","1","","","","","","",""
"null","","html-keyboard-response","357","2829896","0.0-13.0-1.76","l","COGS219_2020_01","<p style=""font-size: 48px;"">+</p>","null","1","","","","","","",""
"686.8699999758974","","image-keyboard-response","358","2830584","0.0-13.0-2.76","l","COGS219_2020_01","Images/frog_1.png","65","1","1581180686481","non-match","frog","whistle","label","test","true"
"null","","audio-keyboard-response","359","2832601","0.0-13.0-3.76","l","COGS219_2020_01","Sounds/correct.wav","null","1","","","","","","",""
"null","","audio-keyboard-response","360","2833516","0.0-13.0-0.77","l","COGS219_2020_01","Sounds/frog_sound.wav","null","1","","","","","","",""
"null","","html-keyboard-response","361","2834513","0.0-13.0-1.77","l","COGS219_2020_01","<p style=""font-size: 48px;"">+</p>","null","1","","","","","","",""
"949.7799999662675","","image-keyboard-response","362","2835464","0.0-13.0-2.77","l","COGS219_2020_01","Images/motorcycle_1.png","65","1","1581180691098","non-match","motorcycle","frog","sound","test","true"
"null","","audio-keyboard-response","363","2837470","0.0-13.0-3.77","l","COGS219_2020_01","Sounds/correct.wav","null","1","","","","","","",""
"null","","audio-keyboard-response","364","2838556","0.0-13.0-0.78","l","COGS219_2020_01","Sounds/car_sound.wav","null","1","","","","","","",""
"null","","html-keyboard-response","365","2839546","0.0-13.0-1.78","l","COGS219_2020_01","<p style=""font-size: 48px;"">+</p>","null","1","","","","","","",""
"812.3299999861047","","image-keyboard-response","366","2840360","0.0-13.0-2.78","l","COGS219_2020_01","Images/car_orig.png","76","1","1581180696132","match","car","car","sound","test","true"
"null","","audio-keyboard-response","367","2842368","0.0-13.0-3.78","l","COGS219_2020_01","Sounds/correct.wav","null","1","","","","","","",""
"null","","audio-keyboard-response","368","2843216","0.0-13.0-0.79","l","COGS219_2020_01","Sounds/cat_label.wav","null","1","","","","","","",""
"null","","html-keyboard-response","369","2844213","0.0-13.0-1.79","l","COGS219_2020_01","<p style=""font-size: 48px;"">+</p>","null","1","","","","","","",""
"754.030000010971","","image-keyboard-response","370","2844968","0.0-13.0-2.79","l","COGS219_2020_01","Images/rooster_cartoon.png","65","1","1581180700798","non-match","rooster","cat","label","test","true"
"null","","audio-keyboard-response","371","2846984","0.0-13.0-3.79","l","COGS219_2020_01","Sounds/correct.wav","null","1","","","","","","",""
"null","","audio-keyboard-response","372","2847876","0.0-13.0-0.80","l","COGS219_2020_01","Sounds/frog_label.wav","null","1","","","","","","",""
"null","","html-keyboard-response","373","2848880","0.0-13.0-1.80","l","COGS219_2020_01","<p style=""font-size: 48px;"">+</p>","null","1","","","","","","",""
"726.7349999747239","","image-keyboard-response","374","2849608","0.0-13.0-2.80","l","COGS219_2020_01","Images/frog_3.png","76","1","1581180705465","match","frog","frog","label","test","true"
"null","","audio-keyboard-response","375","2851616","0.0-13.0-3.80","l","COGS219_2020_01","Sounds/correct.wav","null","1","","","","","","",""
"null","","audio-keyboard-response","376","2852696","0.0-13.0-0.81","l","COGS219_2020_01","Sounds/car_label.wav","null","1","","","","","","",""
"null","","html-keyboard-response","377","2853696","0.0-13.0-1.81","l","COGS219_2020_01","<p style=""font-size: 48px;"">+</p>","null","1","","","","","","",""
"694.3800000008196","","image-keyboard-response","378","2854392","0.0-13.0-2.81","l","COGS219_2020_01","Images/frog_cartoon.png","65","1","1581180710282","non-match","frog","car","label","test","true"
"null","","audio-keyboard-response","379","2856403","0.0-13.0-3.81","l","COGS219_2020_01","Sounds/correct.wav","null","1","","","","","","",""
"null","","audio-keyboard-response","380","2857676","0.0-13.0-0.82","l","COGS219_2020_01","Sounds/train_label.wav","null","1","","","","","","",""
"null","","html-keyboard-response","381","2858680","0.0-13.0-1.82","l","COGS219_2020_01","<p style=""font-size: 48px;"">+</p>","null","1","","","","","","",""
"703.0349999549799","","image-keyboard-response","382","2859384","0.0-13.0-2.82","l","COGS219_2020_01","Images/train_cartoon.png","76","1","1581180715265","match","train","train","label","test","true"
"null","","audio-keyboard-response","383","2861400","0.0-13.0-3.82","l","COGS219_2020_01","Sounds/correct.wav","null","1","","","","","","",""
"null","","audio-keyboard-response","384","2861976","0.0-13.0-0.83","l","COGS219_2020_01","Sounds/gun_sound.wav","null","1","","","","","","",""
"null","","html-keyboard-response","385","2862980","0.0-13.0-1.83","l","COGS219_2020_01","<p style=""font-size: 48px;"">+</p>","null","1","","","","","","",""
"642.9149999748915","","image-keyboard-response","386","2863624","0.0-13.0-2.83","l","COGS219_2020_01","Images/gun_1.png","76","1","1581180719565","match","gun","gun","sound","test","true"
"null","","audio-keyboard-response","387","2865637","0.0-13.0-3.83","l","COGS219_2020_01","Sounds/correct.wav","null","1","","","","","","",""
"null","","audio-keyboard-response","388","2866336","0.0-13.0-0.84","l","COGS219_2020_01","Sounds/whistle_label.wav","null","1","","","","","","",""
"null","","html-keyboard-response","389","2867330","0.0-13.0-1.84","l","COGS219_2020_01","<p style=""font-size: 48px;"">+</p>","null","1","","","","","","",""
"772.7999999769963","","image-keyboard-response","390","2868104","0.0-13.0-2.84","l","COGS219_2020_01","Images/whistle_1.png","76","1","1581180723915","match","whistle","whistle","label","test","true"
"null","","audio-keyboard-response","391","2870117","0.0-13.0-3.84","l","COGS219_2020_01","Sounds/correct.wav","null","1","","","","","","",""
"null","","audio-keyboard-response","392","2870696","0.0-13.0-0.85","l","COGS219_2020_01","Sounds/gun_label.wav","null","1","","","","","","",""
"null","","html-keyboard-response","393","2871697","0.0-13.0-1.85","l","COGS219_2020_01","<p style=""font-size: 48px;"">+</p>","null","1","","","","","","",""
"420.0300000375137","","image-keyboard-response","394","2872120","0.0-13.0-2.85","l","COGS219_2020_01","Images/car_3.png","65","1","1581180728282","non-match","car","gun","label","test","true"
"null","","audio-keyboard-response","395","2874133","0.0-13.0-3.85","l","COGS219_2020_01","Sounds/correct.wav","null","1","","","","","","",""
"null","","audio-keyboard-response","396","2875216","0.0-13.0-0.86","l","COGS219_2020_01","Sounds/car_sound.wav","null","1","","","","","","",""
"null","","html-keyboard-response","397","2876213","0.0-13.0-1.86","l","COGS219_2020_01","<p style=""font-size: 48px;"">+</p>","null","1","","","","","","",""
"593.4950000373647","","image-keyboard-response","398","2876807","0.0-13.0-2.86","l","COGS219_2020_01","Images/car_2.png","76","1","1581180732799","match","car","car","sound","test","true"
"null","","audio-keyboard-response","399","2878817","0.0-13.0-3.86","l","COGS219_2020_01","Sounds/correct.wav","null","1","","","","","","",""
"null","","audio-keyboard-response","400","2879875","0.0-13.0-0.87","l","COGS219_2020_01","Sounds/car_sound.wav","null","1","","","","","","",""
"null","","html-keyboard-response","401","2880879","0.0-13.0-1.87","l","COGS219_2020_01","<p style=""font-size: 48px;"">+</p>","null","1","","","","","","",""
"934.8100000061095","","image-keyboard-response","402","2881815","0.0-13.0-2.87","l","COGS219_2020_01","Images/train_3.png","65","1","1581180737464","non-match","train","car","sound","test","true"
"null","","audio-keyboard-response","403","2883833","0.0-13.0-3.87","l","COGS219_2020_01","Sounds/correct.wav","null","1","","","","","","",""
"null","","audio-keyboard-response","404","2884395","0.0-13.0-0.88","l","COGS219_2020_01","Sounds/gun_label.wav","null","1","","","","","","",""
"null","","html-keyboard-response","405","2885413","0.0-13.0-1.88","l","COGS219_2020_01","<p style=""font-size: 48px;"">+</p>","null","1","","","","","","",""
"753.4150000428781","","image-keyboard-response","406","2886167","0.0-13.0-2.88","l","COGS219_2020_01","Images/train_cartoon.png","65","1","1581180741998","non-match","train","gun","label","test","true"
"null","","audio-keyboard-response","407","2888184","0.0-13.0-3.88","l","COGS219_2020_01","Sounds/correct.wav","null","1","","","","","","",""
"null","","audio-keyboard-response","408","2888875","0.0-13.0-0.89","l","COGS219_2020_01","Sounds/whistle_sound.wav","null","1","","","","","","",""
"null","","html-keyboard-response","409","2889879","0.0-13.0-1.89","l","COGS219_2020_01","<p style=""font-size: 48px;"">+</p>","null","1","","","","","","",""
"942.5399999599904","","image-keyboard-response","410","2890823","0.0-13.0-2.89","l","COGS219_2020_01","Images/train_orig.png","65","1","1581180746464","non-match","train","whistle","sound","test","true"
"null","","audio-keyboard-response","411","2892833","0.0-13.0-3.89","l","COGS219_2020_01","Sounds/correct.wav","null","1","","","","","","",""
"null","","audio-keyboard-response","412","2893735","0.0-13.0-0.90","l","COGS219_2020_01","Sounds/frog_sound.wav","null","1","","","","","","",""
"null","","html-keyboard-response","413","2894729","0.0-13.0-1.90","l","COGS219_2020_01","<p style=""font-size: 48px;"">+</p>","null","1","","","","","","",""
"1148.3899999875575","","image-keyboard-response","414","2895879","0.0-13.0-2.90","l","COGS219_2020_01","Images/cow_2.png","65","1","1581180751314","non-match","cow","frog","sound","test","true"
"null","","audio-keyboard-response","415","2897883","0.0-13.0-3.90","l","COGS219_2020_01","Sounds/correct.wav","null","1","","","","","","",""
"null","","audio-keyboard-response","416","2899155","0.0-13.0-0.91","l","COGS219_2020_01","Sounds/train_label.wav","null","1","","","","","","",""
"null","","html-keyboard-response","417","2900146","0.0-13.0-1.91","l","COGS219_2020_01","<p style=""font-size: 48px;"">+</p>","null","1","","","","","","",""
"596.0850000265054","","image-keyboard-response","418","2900743","0.0-13.0-2.91","l","COGS219_2020_01","Images/train_2.png","76","1","1581180756731","match","train","train","label","test","true"
"null","","audio-keyboard-response","419","2902752","0.0-13.0-3.91","l","COGS219_2020_01","Sounds/correct.wav","null","1","","","","","","",""
"null","","audio-keyboard-response","420","2903895","0.0-13.0-0.92","l","COGS219_2020_01","Sounds/motorcycle_label.wav","null","1","","","","","","",""
"null","","html-keyboard-response","421","2904913","0.0-13.0-1.92","l","COGS219_2020_01","<p style=""font-size: 48px;"">+</p>","null","1","","","","","","",""
"677.1549999830313","","image-keyboard-response","422","2905591","0.0-13.0-2.92","l","COGS219_2020_01","Images/whistle_1.png","65","1","1581180761498","non-match","whistle","motorcycle","label","test","true"
"null","","audio-keyboard-response","423","2907599","0.0-13.0-3.92","l","COGS219_2020_01","Sounds/correct.wav","null","1","","","","","","",""
"null","","audio-keyboard-response","424","2908295","0.0-13.0-0.93","l","COGS219_2020_01","Sounds/rooster_label.wav","null","1","","","","","","",""
"null","","html-keyboard-response","425","2909313","0.0-13.0-1.93","l","COGS219_2020_01","<p style=""font-size: 48px;"">+</p>","null","1","","","","","","",""
"709.0399999869987","","image-keyboard-response","426","2910023","0.0-13.0-2.93","l","COGS219_2020_01","Images/car_cartoon.png","65","1","1581180765898","non-match","car","rooster","label","test","true"
"null","","audio-keyboard-response","427","2912035","0.0-13.0-3.93","l","COGS219_2020_01","Sounds/correct.wav","null","1","","","","","","",""
"null","","audio-keyboard-response","428","2913055","0.0-13.0-0.94","l","COGS219_2020_01","Sounds/cow_sound.wav","null","1","","","","","","",""
"null","","html-keyboard-response","429","2914046","0.0-13.0-1.94","l","COGS219_2020_01","<p style=""font-size: 48px;"">+</p>","null","1","","","","","","",""
"791.945000004489","","image-keyboard-response","430","2914839","0.0-13.0-2.94","l","COGS219_2020_01","Images/cow_1.png","76","1","1581180770631","match","cow","cow","sound","test","true"
"null","","audio-keyboard-response","431","2916850","0.0-13.0-3.94","l","COGS219_2020_01","Sounds/correct.wav","null","1","","","","","","",""
"null","","audio-keyboard-response","432","2918155","0.0-13.0-0.95","l","COGS219_2020_01","Sounds/train_sound.wav","null","1","","","","","","",""
"null","","html-keyboard-response","433","2919146","0.0-13.0-1.95","l","COGS219_2020_01","<p style=""font-size: 48px;"">+</p>","null","1","","","","","","",""
"1274.4249999523163","","image-keyboard-response","434","2920423","0.0-13.0-2.95","l","COGS219_2020_01","Images/train_orig.png","76","1","1581180775732","match","train","train","sound","test","true"
"null","","audio-keyboard-response","435","2922438","0.0-13.0-3.95","l","COGS219_2020_01","Sounds/correct.wav","null","1","","","","","","",""
"null","","audio-keyboard-response","436","2923115","0.0-13.0-0.96","l","COGS219_2020_01","Sounds/rooster_label.wav","null","1","","","","","","",""
"null","","html-keyboard-response","437","2924113","0.0-13.0-1.96","l","COGS219_2020_01","<p style=""font-size: 48px;"">+</p>","null","1","","","","","","",""
"580.8749999850988","","image-keyboard-response","438","2924695","0.0-13.0-2.96","l","COGS219_2020_01","Images/rooster_orig.png","76","1","1581180780698","match","rooster","rooster","label","test","true"
"null","","audio-keyboard-response","439","2926708","0.0-13.0-3.96","l","COGS219_2020_01","Sounds/correct.wav","null","1","","","","","","",""
"null","","audio-keyboard-response","440","2927615","0.0-13.0-0.97","l","COGS219_2020_01","Sounds/frog_sound.wav","null","1","","","","","","",""
"null","","html-keyboard-response","441","2928613","0.0-13.0-1.97","l","COGS219_2020_01","<p style=""font-size: 48px;"">+</p>","null","1","","","","","","",""
"1073.035000008531","","image-keyboard-response","442","2929687","0.0-13.0-2.97","l","COGS219_2020_01","Images/gun_1.png","65","1","1581180785198","non-match","gun","frog","sound","test","true"
"null","","audio-keyboard-response","443","2931702","0.0-13.0-3.97","l","COGS219_2020_01","Sounds/correct.wav","null","1","","","","","","",""
"null","","audio-keyboard-response","444","2932375","0.0-13.0-0.98","l","COGS219_2020_01","Sounds/rooster_label.wav","null","1","","","","","","",""
"null","","html-keyboard-response","445","2933380","0.0-13.0-1.98","l","COGS219_2020_01","<p style=""font-size: 48px;"">+</p>","null","1","","","","","","",""
"529.9799999920651","","image-keyboard-response","446","2933911","0.0-13.0-2.98","l","COGS219_2020_01","Images/train_2.png","65","1","1581180789965","non-match","train","rooster","label","test","true"
"null","","audio-keyboard-response","447","2935919","0.0-13.0-3.98","l","COGS219_2020_01","Sounds/correct.wav","null","1","","","","","","",""
"null","","audio-keyboard-response","448","2936495","0.0-13.0-0.99","l","COGS219_2020_01","Sounds/gun_label.wav","null","1","","","","","","",""
"null","","html-keyboard-response","449","2937518","0.0-13.0-1.99","l","COGS219_2020_01","<p style=""font-size: 48px;"">+</p>","null","1","","","","","","",""
"588.820000004489","","image-keyboard-response","450","2938108","0.0-13.0-2.99","l","COGS219_2020_01","Images/gun_2.png","76","1","1581180794103","match","gun","gun","label","test","true"
"null","","audio-keyboard-response","451","2940124","0.0-13.0-3.99","l","COGS219_2020_01","Sounds/correct.wav","null","1","","","","","","",""
"19727.715000044554","","html-keyboard-response","452","2959852","0.0-14.0","l","COGS219_2020_01","<p>Please take this opportunity to rest your eyes before proceeding.</p><p>When ready, press the enter key to continue to the next set of trials.</p>","13","","","","","","","",""
"null","","audio-keyboard-response","453","2962990","0.0-15.0-0.0","l","COGS219_2020_01","Sounds/motorcycle_sound.wav","null","2","","","","","","",""
"null","","html-keyboard-response","454","2963985","0.0-15.0-1.0","l","COGS219_2020_01","<p style=""font-size: 48px;"">+</p>","null","2","","","","","","",""
"617.8950000321493","","image-keyboard-response","455","2964604","0.0-15.0-2.0","l","COGS219_2020_01","Images/motorcycle_2.png","76","2","1581180820570","match","motorcycle","motorcycle","sound","test","true"
"null","","audio-keyboard-response","456","2966607","0.0-15.0-3.0","l","COGS219_2020_01","Sounds/correct.wav","null","2","","","","","","",""
"null","","audio-keyboard-response","457","2967690","0.0-15.0-0.1","l","COGS219_2020_01","Sounds/car_sound.wav","null","2","","","","","","",""
"null","","html-keyboard-response","458","2968685","0.0-15.0-1.1","l","COGS219_2020_01","<p style=""font-size: 48px;"">+</p>","null","2","","","","","","",""
"893.770000024233","","image-keyboard-response","459","2969580","0.0-15.0-2.1","l","COGS219_2020_01","Images/car_3.png","76","2","1581180825270","match","car","car","sound","test","true"
"null","","audio-keyboard-response","460","2971590","0.0-15.0-3.1","l","COGS219_2020_01","Sounds/correct.wav","null","2","","","","","","",""
"null","","audio-keyboard-response","461","2972670","0.0-15.0-0.2","l","COGS219_2020_01","Sounds/car_label.wav","null","2","","","","","","",""
"null","","html-keyboard-response","462","2973669","0.0-15.0-1.2","l","COGS219_2020_01","<p style=""font-size: 48px;"">+</p>","null","2","","","","","","",""
"710.6150000472553","","image-keyboard-response","463","2974380","0.0-15.0-2.2","l","COGS219_2020_01","Images/rooster_orig.png","65","2","1581180830254","non-match","rooster","car","label","test","true"
"null","","audio-keyboard-response","464","2976389","0.0-15.0-3.2","l","COGS219_2020_01","Sounds/correct.wav","null","2","","","","","","",""
"null","","audio-keyboard-response","465","2977090","0.0-15.0-0.3","l","COGS219_2020_01","Sounds/rooster_label.wav","null","2","","","","","","",""
"null","","html-keyboard-response","466","2978085","0.0-15.0-1.3","l","COGS219_2020_01","<p style=""font-size: 48px;"">+</p>","null","2","","","","","","",""
"613.43999998644","","image-keyboard-response","467","2978700","0.0-15.0-2.3","l","COGS219_2020_01","Images/cow_cartoon.png","65","2","1581180834670","non-match","cow","rooster","label","test","true"
"null","","audio-keyboard-response","468","2980713","0.0-15.0-3.3","l","COGS219_2020_01","Sounds/correct.wav","null","2","","","","","","",""
"null","","audio-keyboard-response","469","2981830","0.0-15.0-0.4","l","COGS219_2020_01","Sounds/motorcycle_sound.wav","null","2","","","","","","",""
"null","","html-keyboard-response","470","2982836","0.0-15.0-1.4","l","COGS219_2020_01","<p style=""font-size: 48px;"">+</p>","null","2","","","","","","",""
"983.3899999503046","","image-keyboard-response","471","2983820","0.0-15.0-2.4","l","COGS219_2020_01","Images/motorcycle_orig.png","76","2","1581180839420","match","motorcycle","motorcycle","sound","test","true"
"null","","audio-keyboard-response","472","2985824","0.0-15.0-3.4","l","COGS219_2020_01","Sounds/correct.wav","null","2","","","","","","",""
"null","","audio-keyboard-response","473","2986730","0.0-15.0-0.5","l","COGS219_2020_01","Sounds/frog_label.wav","null","2","","","","","","",""
"null","","html-keyboard-response","474","2987719","0.0-15.0-1.5","l","COGS219_2020_01","<p style=""font-size: 48px;"">+</p>","null","2","","","","","","",""
"788.2699999609031","","image-keyboard-response","475","2988508","0.0-15.0-2.5","l","COGS219_2020_01","Images/frog_orig.png","76","2","1581180844304","match","frog","frog","label","test","true"
"null","","audio-keyboard-response","476","2990523","0.0-15.0-3.5","l","COGS219_2020_01","Sounds/correct.wav","null","2","","","","","","",""
"null","","audio-keyboard-response","477","2991550","0.0-15.0-0.6","l","COGS219_2020_01","Sounds/cow_label.wav","null","2","","","","","","",""
"null","","html-keyboard-response","478","2992552","0.0-15.0-1.6","l","COGS219_2020_01","<p style=""font-size: 48px;"">+</p>","null","2","","","","","","",""
"883.0100000486709","","image-keyboard-response","479","2993436","0.0-15.0-2.6","l","COGS219_2020_01","Images/motorcycle_3.png","65","2","1581180849137","non-match","motorcycle","cow","label","test","true"
"null","","audio-keyboard-response","480","2995443","0.0-15.0-3.6","l","COGS219_2020_01","Sounds/correct.wav","null","2","","","","","","",""
"null","","audio-keyboard-response","481","2996290","0.0-15.0-0.7","l","COGS219_2020_01","Sounds/cat_sound.wav","null","2","","","","","","",""
"null","","html-keyboard-response","482","2997286","0.0-15.0-1.7","l","COGS219_2020_01","<p style=""font-size: 48px;"">+</p>","null","2","","","","","","",""
"725.3349999664351","","image-keyboard-response","483","2998021","0.0-15.0-2.7","l","COGS219_2020_01","Images/frog_1.png","65","2","1581180853871","non-match","frog","cat","sound","test","true"
"null","","audio-keyboard-response","484","3000031","0.0-15.0-3.7","l","COGS219_2020_01","Sounds/correct.wav","null","2","","","","","","",""
"null","","audio-keyboard-response","485","3001100","0.0-15.0-0.8","l","COGS219_2020_01","Sounds/car_sound.wav","null","2","","","","","","",""
"null","","html-keyboard-response","486","3002095","0.0-15.0-1.8","l","COGS219_2020_01","<p style=""font-size: 48px;"">+</p>","null","2","","","","","","",""
"901.5800000051968","","image-keyboard-response","487","3002998","0.0-15.0-2.8","l","COGS219_2020_01","Images/car_cartoon.png","76","2","1581180858680","match","car","car","sound","test","true"
"null","","audio-keyboard-response","488","3005001","0.0-15.0-3.8","l","COGS219_2020_01","Sounds/correct.wav","null","2","","","","","","",""
"null","","audio-keyboard-response","489","3005900","0.0-15.0-0.9","l","COGS219_2020_01","Sounds/frog_sound.wav","null","2","","","","","","",""
"null","","html-keyboard-response","490","3006895","0.0-15.0-1.9","l","COGS219_2020_01","<p style=""font-size: 48px;"">+</p>","null","2","","","","","","",""
"1205.3150000283495","","image-keyboard-response","491","3008102","0.0-15.0-2.9","l","COGS219_2020_01","Images/train_cartoon.png","65","2","1581180863480","non-match","train","frog","sound","test","true"
"null","","audio-keyboard-response","492","3010104","0.0-15.0-3.9","l","COGS219_2020_01","Sounds/correct.wav","null","2","","","","","","",""
"null","","audio-keyboard-response","493","3010799","0.0-15.0-0.10","l","COGS219_2020_01","Sounds/rooster_sound.wav","null","2","","","","","","",""
"null","","html-keyboard-response","494","3011795","0.0-15.0-1.10","l","COGS219_2020_01","<p style=""font-size: 48px;"">+</p>","null","2","","","","","","",""
"897.3049999913201","","image-keyboard-response","495","3012694","0.0-15.0-2.10","l","COGS219_2020_01","Images/rooster_3.png","76","2","1581180868380","match","rooster","rooster","sound","test","true"
"null","","audio-keyboard-response","496","3014701","0.0-15.0-3.10","l","COGS219_2020_01","Sounds/correct.wav","null","2","","","","","","",""
"null","","audio-keyboard-response","497","3015999","0.0-15.0-0.11","l","COGS219_2020_01","Sounds/train_sound.wav","null","2","","","","","","",""
"null","","html-keyboard-response","498","3016995","0.0-15.0-1.11","l","COGS219_2020_01","<p style=""font-size: 48px;"">+</p>","null","2","","","","","","",""
"785.425000009127","","image-keyboard-response","499","3017782","0.0-15.0-2.11","l","COGS219_2020_01","Images/train_cartoon.png","76","2","1581180873580","match","train","train","sound","test","true"
"null","","audio-keyboard-response","500","3019785","0.0-15.0-3.11","l","COGS219_2020_01","Sounds/correct.wav","null","2","","","","","","",""
"null","","audio-keyboard-response","501","3020860","0.0-15.0-0.12","l","COGS219_2020_01","Sounds/car_sound.wav","null","2","","","","","","",""
"null","","html-keyboard-response","502","3021862","0.0-15.0-1.12","l","COGS219_2020_01","<p style=""font-size: 48px;"">+</p>","null","2","","","","","","",""
"1054.4200000003912","","image-keyboard-response","503","3022917","0.0-15.0-2.12","l","COGS219_2020_01","Images/cat_cartoon.png","65","2","1581180878447","non-match","cat","car","sound","test","true"
"null","","audio-keyboard-response","504","3024934","0.0-15.0-3.12","l","COGS219_2020_01","Sounds/correct.wav","null","2","","","","","","",""
"null","","audio-keyboard-response","505","3025520","0.0-15.0-0.13","l","COGS219_2020_01","Sounds/gun_label.wav","null","2","","","","","","",""
"null","","html-keyboard-response","506","3026512","0.0-15.0-1.13","l","COGS219_2020_01","<p style=""font-size: 48px;"">+</p>","null","2","","","","","","",""
"531.3750000204891","","image-keyboard-response","507","3027046","0.0-15.0-2.13","l","COGS219_2020_01","Images/gun_orig.png","76","2","1581180883097","match","gun","gun","label","test","true"
"null","","audio-keyboard-response","508","3029050","0.0-15.0-3.13","l","COGS219_2020_01","Sounds/correct.wav","null","2","","","","","","",""
"null","","audio-keyboard-response","509","3029760","0.0-15.0-0.14","l","COGS219_2020_01","Sounds/dog_sound.wav","null","2","","","","","","",""
"null","","html-keyboard-response","510","3030762","0.0-15.0-1.14","l","COGS219_2020_01","<p style=""font-size: 48px;"">+</p>","null","2","","","","","","",""
"650.5849999957718","","image-keyboard-response","511","3031414","0.0-15.0-2.14","l","COGS219_2020_01","Images/dog_1.png","76","2","1581180887347","match","dog","dog","sound","test","true"
"null","","audio-keyboard-response","512","3033417","0.0-15.0-3.14","l","COGS219_2020_01","Sounds/correct.wav","null","2","","","","","","",""
"null","","audio-keyboard-response","513","3033960","0.0-15.0-0.15","l","COGS219_2020_01","Sounds/gun_label.wav","null","2","","","","","","",""
"null","","html-keyboard-response","514","3034962","0.0-15.0-1.15","l","COGS219_2020_01","<p style=""font-size: 48px;"">+</p>","null","2","","","","","","",""
"610.4050000431016","","image-keyboard-response","515","3035574","0.0-15.0-2.15","l","COGS219_2020_01","Images/motorcycle_cartoon.png","65","2","1581180891547","non-match","motorcycle","gun","label","test","true"
"null","","audio-keyboard-response","516","3037588","0.0-15.0-3.15","l","COGS219_2020_01","Sounds/correct.wav","null","2","","","","","","",""
"null","","audio-keyboard-response","517","3038279","0.0-15.0-0.16","l","COGS219_2020_01","Sounds/dog_sound.wav","null","2","","","","","","",""
"null","","html-keyboard-response","518","3039279","0.0-15.0-1.16","l","COGS219_2020_01","<p style=""font-size: 48px;"">+</p>","null","2","","","","","","",""
"1045.6649999832734","","image-keyboard-response","519","3040325","0.0-15.0-2.16","l","COGS219_2020_01","Images/gun_cartoon.png","65","2","1581180895864","non-match","gun","dog","sound","test","true"
"null","","audio-keyboard-response","520","3042336","0.0-15.0-3.16","l","COGS219_2020_01","Sounds/correct.wav","null","2","","","","","","",""
"null","","audio-keyboard-response","521","3043180","0.0-15.0-0.17","l","COGS219_2020_01","Sounds/cat_sound.wav","null","2","","","","","","",""
"null","","html-keyboard-response","522","3044179","0.0-15.0-1.17","l","COGS219_2020_01","<p style=""font-size: 48px;"">+</p>","null","2","","","","","","",""
"753.8349999813363","","image-keyboard-response","523","3044934","0.0-15.0-2.17","l","COGS219_2020_01","Images/train_orig.png","65","2","1581180900764","non-match","train","cat","sound","test","true"
"null","","audio-keyboard-response","524","3046950","0.0-15.0-3.17","l","COGS219_2020_01","Sounds/correct.wav","null","2","","","","","","",""
"null","","audio-keyboard-response","525","3047760","0.0-15.0-0.18","l","COGS219_2020_01","Sounds/cat_sound.wav","null","2","","","","","","",""
"null","","html-keyboard-response","526","3048762","0.0-15.0-1.18","l","COGS219_2020_01","<p style=""font-size: 48px;"">+</p>","null","2","","","","","","",""
"746.3199999765493","","image-keyboard-response","527","3049510","0.0-15.0-2.18","l","COGS219_2020_01","Images/motorcycle_1.png","65","2","1581180905347","non-match","motorcycle","cat","sound","test","true"
"null","","audio-keyboard-response","528","3051517","0.0-15.0-3.18","l","COGS219_2020_01","Sounds/correct.wav","null","2","","","","","","",""
"null","","audio-keyboard-response","529","3052359","0.0-15.0-0.19","l","COGS219_2020_01","Sounds/cat_label.wav","null","2","","","","","","",""
"null","","html-keyboard-response","530","3053362","0.0-15.0-1.19","l","COGS219_2020_01","<p style=""font-size: 48px;"">+</p>","null","2","","","","","","",""
"1378.0900000128895","","image-keyboard-response","531","3054741","0.0-15.0-2.19","l","COGS219_2020_01","Images/car_3.png","65","2","1581180909948","non-match","car","cat","label","test","true"
"null","","audio-keyboard-response","532","3056752","0.0-15.0-3.19","l","COGS219_2020_01","Sounds/correct.wav","null","2","","","","","","",""
"null","","audio-keyboard-response","533","3057560","0.0-15.0-0.20","l","COGS219_2020_01","Sounds/cat_sound.wav","null","2","","","","","","",""
"null","","html-keyboard-response","534","3058572","0.0-15.0-1.20","l","COGS219_2020_01","<p style=""font-size: 48px;"">+</p>","null","2","","","","","","",""
"738.4099999908358","","image-keyboard-response","535","3059312","0.0-15.0-2.20","l","COGS219_2020_01","Images/cat_orig.png","76","2","1581180915157","match","cat","cat","sound","test","true"
"null","","audio-keyboard-response","536","3061326","0.0-15.0-3.20","l","COGS219_2020_01","Sounds/correct.wav","null","2","","","","","","",""
"null","","audio-keyboard-response","537","3062610","0.0-15.0-0.21","l","COGS219_2020_01","Sounds/train_label.wav","null","2","","","","","","",""
"null","","html-keyboard-response","538","3063606","0.0-15.0-1.21","l","COGS219_2020_01","<p style=""font-size: 48px;"">+</p>","null","2","","","","","","",""
"440.7000000355765","","image-keyboard-response","539","3064047","0.0-15.0-2.21","l","COGS219_2020_01","Images/cow_1.png","65","2","1581180920191","non-match","cow","train","label","test","true"
"null","","audio-keyboard-response","540","3066059","0.0-15.0-3.21","l","COGS219_2020_01","Sounds/correct.wav","null","2","","","","","","",""
"null","","audio-keyboard-response","541","3066869","0.0-15.0-0.22","l","COGS219_2020_01","Sounds/cat_sound.wav","null","2","","","","","","",""
"null","","html-keyboard-response","542","3067872","0.0-15.0-1.22","l","COGS219_2020_01","<p style=""font-size: 48px;"">+</p>","null","2","","","","","","",""
"814.0700000221841","","image-keyboard-response","543","3068688","0.0-15.0-2.22","l","COGS219_2020_01","Images/dog_3.png","65","2","1581180924457","non-match","dog","cat","sound","test","true"
"null","","audio-keyboard-response","544","3070697","0.0-15.0-3.22","l","COGS219_2020_01","Sounds/correct.wav","null","2","","","","","","",""
"null","","audio-keyboard-response","545","3071989","0.0-15.0-0.23","l","COGS219_2020_01","Sounds/train_sound.wav","null","2","","","","","","",""
"null","","html-keyboard-response","546","3072989","0.0-15.0-1.23","l","COGS219_2020_01","<p style=""font-size: 48px;"">+</p>","null","2","","","","","","",""
"401.79500001249835","","image-keyboard-response","547","3073392","0.0-15.0-2.23","l","COGS219_2020_01","Images/rooster_1.png","65","2","1581180929574","non-match","rooster","train","sound","test","true"
"null","","audio-keyboard-response","548","3075409","0.0-15.0-3.23","l","COGS219_2020_01","Sounds/correct.wav","null","2","","","","","","",""
"null","","audio-keyboard-response","549","3076069","0.0-15.0-0.24","l","COGS219_2020_01","Sounds/dog_label.wav","null","2","","","","","","",""
"null","","html-keyboard-response","550","3077072","0.0-15.0-1.24","l","COGS219_2020_01","<p style=""font-size: 48px;"">+</p>","null","2","","","","","","",""
"573.8199999905191","","image-keyboard-response","551","3077647","0.0-15.0-2.24","l","COGS219_2020_01","Images/dog_2.png","76","2","1581180933658","match","dog","dog","label","test","true"
"null","","audio-keyboard-response","552","3079660","0.0-15.0-3.24","l","COGS219_2020_01","Sounds/correct.wav","null","2","","","","","","",""
"null","","audio-keyboard-response","553","3080669","0.0-15.0-0.25","l","COGS219_2020_01","Sounds/cow_label.wav","null","2","","","","","","",""
"null","","html-keyboard-response","554","3081673","0.0-15.0-1.25","l","COGS219_2020_01","<p style=""font-size: 48px;"">+</p>","null","2","","","","","","",""
"725.9499999927357","","image-keyboard-response","555","3082400","0.0-15.0-2.25","l","COGS219_2020_01","Images/cow_2.png","76","2","1581180938258","match","cow","cow","label","test","true"
"null","","audio-keyboard-response","556","3084409","0.0-15.0-3.25","l","COGS219_2020_01","Sounds/correct.wav","null","2","","","","","","",""
"null","","audio-keyboard-response","557","3085110","0.0-15.0-0.26","l","COGS219_2020_01","Sounds/whistle_label.wav","null","2","","","","","","",""
"null","","html-keyboard-response","558","3086106","0.0-15.0-1.26","l","COGS219_2020_01","<p style=""font-size: 48px;"">+</p>","null","2","","","","","","",""
"1060.6700000353158","","image-keyboard-response","559","3087168","0.0-15.0-2.26","l","COGS219_2020_01","Images/car_1.png","65","2","1581180942691","non-match","car","whistle","label","test","true"
"null","","audio-keyboard-response","560","3089183","0.0-15.0-3.26","l","COGS219_2020_01","Sounds/correct.wav","null","2","","","","","","",""
"null","","audio-keyboard-response","561","3090269","0.0-15.0-0.27","l","COGS219_2020_01","Sounds/car_sound.wav","null","2","","","","","","",""
"null","","html-keyboard-response","562","3091273","0.0-15.0-1.27","l","COGS219_2020_01","<p style=""font-size: 48px;"">+</p>","null","2","","","","","","",""
"1077.8149999678135","","image-keyboard-response","563","3092351","0.0-15.0-2.27","l","COGS219_2020_01","Images/frog_3.png","65","2","1581180947858","non-match","frog","car","sound","test","true"
"null","","audio-keyboard-response","564","3094361","0.0-15.0-3.27","l","COGS219_2020_01","Sounds/correct.wav","null","2","","","","","","",""
"null","","audio-keyboard-response","565","3095010","0.0-15.0-0.28","l","COGS219_2020_01","Sounds/dog_label.wav","null","2","","","","","","",""
"null","","html-keyboard-response","566","3096006","0.0-15.0-1.28","l","COGS219_2020_01","<p style=""font-size: 48px;"">+</p>","null","2","","","","","","",""
"584.5500000286847","","image-keyboard-response","567","3096592","0.0-15.0-2.28","l","COGS219_2020_01","Images/rooster_2.png","65","2","1581180952591","non-match","rooster","dog","label","test","true"
"null","","audio-keyboard-response","568","3098596","0.0-15.0-3.28","l","COGS219_2020_01","Sounds/correct.wav","null","2","","","","","","",""
"null","","audio-keyboard-response","569","3099289","0.0-15.0-0.29","l","COGS219_2020_01","Sounds/rooster_label.wav","null","2","","","","","","",""
"null","","html-keyboard-response","570","3100289","0.0-15.0-1.29","l","COGS219_2020_01","<p style=""font-size: 48px;"">+</p>","null","2","","","","","","",""
"429.25499996636063","","image-keyboard-response","571","3100719","0.0-15.0-2.29","l","COGS219_2020_01","Images/gun_1.png","65","2","1581180956874","non-match","gun","rooster","label","test","true"
"null","","audio-keyboard-response","572","3102728","0.0-15.0-3.29","l","COGS219_2020_01","Sounds/correct.wav","null","2","","","","","","",""
"null","","audio-keyboard-response","573","3104010","0.0-15.0-0.30","l","COGS219_2020_01","Sounds/train_label.wav","null","2","","","","","","",""
"null","","html-keyboard-response","574","3105006","0.0-15.0-1.30","l","COGS219_2020_01","<p style=""font-size: 48px;"">+</p>","null","2","","","","","","",""
"464.3649999634363","","image-keyboard-response","575","3105472","0.0-15.0-2.30","l","COGS219_2020_01","Images/train_3.png","76","2","1581180961591","match","train","train","label","test","true"
"null","","audio-keyboard-response","576","3107479","0.0-15.0-3.30","l","COGS219_2020_01","Sounds/correct.wav","null","2","","","","","","",""
"null","","audio-keyboard-response","577","3108489","0.0-15.0-0.31","l","COGS219_2020_01","Sounds/cow_sound.wav","null","2","","","","","","",""
"null","","html-keyboard-response","578","3109489","0.0-15.0-1.31","l","COGS219_2020_01","<p style=""font-size: 48px;"">+</p>","null","2","","","","","","",""
"989.1950000310317","","image-keyboard-response","579","3110480","0.0-15.0-2.31","l","COGS219_2020_01","Images/cow_3.png","76","2","1581180966075","match","cow","cow","sound","test","true"
"null","","audio-keyboard-response","580","3112493","0.0-15.0-3.31","l","COGS219_2020_01","Sounds/correct.wav","null","2","","","","","","",""
"null","","audio-keyboard-response","581","3113169","0.0-15.0-0.32","l","COGS219_2020_01","Sounds/rooster_label.wav","null","2","","","","","","",""
"null","","html-keyboard-response","582","3114173","0.0-15.0-1.32","l","COGS219_2020_01","<p style=""font-size: 48px;"">+</p>","null","2","","","","","","",""
"786.0399999772198","","image-keyboard-response","583","3114960","0.0-15.0-2.32","l","COGS219_2020_01","Images/rooster_cartoon.png","76","2","1581180970758","match","rooster","rooster","label","test","true"
"null","","audio-keyboard-response","584","3116977","0.0-15.0-3.32","l","COGS219_2020_01","Sounds/correct.wav","null","2","","","","","","",""
"null","","audio-keyboard-response","585","3117969","0.0-15.0-0.33","l","COGS219_2020_01","Sounds/cow_sound.wav","null","2","","","","","","",""
"null","","html-keyboard-response","586","3118983","0.0-15.0-1.33","l","COGS219_2020_01","<p style=""font-size: 48px;"">+</p>","null","2","","","","","","",""
"513.2200000225566","","image-keyboard-response","587","3119497","0.0-15.0-2.33","l","COGS219_2020_01","Images/rooster_3.png","65","2","1581180975568","non-match","rooster","cow","sound","test","true"
"null","","audio-keyboard-response","588","3121504","0.0-15.0-3.33","l","COGS219_2020_01","Sounds/correct.wav","null","2","","","","","","",""
"null","","audio-keyboard-response","589","3122199","0.0-15.0-0.34","l","COGS219_2020_01","Sounds/whistle_label.wav","null","2","","","","","","",""
"null","","html-keyboard-response","590","3123199","0.0-15.0-1.34","l","COGS219_2020_01","<p style=""font-size: 48px;"">+</p>","null","2","","","","","","",""
"680.8949999976903","","image-keyboard-response","591","3123881","0.0-15.0-2.34","l","COGS219_2020_01","Images/train_2.png","65","2","1581180979784","non-match","train","whistle","label","test","true"
"null","","audio-keyboard-response","592","3125888","0.0-15.0-3.34","l","COGS219_2020_01","Sounds/correct.wav","null","2","","","","","","",""
"null","","audio-keyboard-response","593","3126559","0.0-15.0-0.35","l","COGS219_2020_01","Sounds/whistle_label.wav","null","2","","","","","","",""
"null","","html-keyboard-response","594","3127549","0.0-15.0-1.35","l","COGS219_2020_01","<p style=""font-size: 48px;"">+</p>","null","2","","","","","","",""
"970.9150000126101","","image-keyboard-response","595","3128521","0.0-15.0-2.35","l","COGS219_2020_01","Images/gun_orig.png","65","2","1581180984134","non-match","gun","whistle","label","test","true"
"null","","audio-keyboard-response","596","3130538","0.0-15.0-3.35","l","COGS219_2020_01","Sounds/correct.wav","null","2","","","","","","",""
"null","","audio-keyboard-response","597","3131439","0.0-15.0-0.36","l","COGS219_2020_01","Sounds/frog_label.wav","null","2","","","","","","",""
"null","","html-keyboard-response","598","3132433","0.0-15.0-1.36","l","COGS219_2020_01","<p style=""font-size: 48px;"">+</p>","null","2","","","","","","",""
"503.5599999828264","","image-keyboard-response","599","3132937","0.0-15.0-2.36","l","COGS219_2020_01","Images/frog_2.png","76","2","1581180989018","match","frog","frog","label","test","true"
"null","","audio-keyboard-response","600","3134954","0.0-15.0-3.36","l","COGS219_2020_01","Sounds/correct.wav","null","2","","","","","","",""
"null","","audio-keyboard-response","601","3135619","0.0-15.0-0.37","l","COGS219_2020_01","Sounds/whistle_label.wav","null","2","","","","","","",""
"null","","html-keyboard-response","602","3136616","0.0-15.0-1.37","l","COGS219_2020_01","<p style=""font-size: 48px;"">+</p>","null","2","","","","","","",""
"607.9049999825656","","image-keyboard-response","603","3137225","0.0-15.0-2.37","l","COGS219_2020_01","Images/dog_orig.png","65","2","1581180993201","non-match","dog","whistle","label","test","true"
"null","","audio-keyboard-response","604","3139236","0.0-15.0-3.37","l","COGS219_2020_01","Sounds/correct.wav","null","2","","","","","","",""
