"rt","responses","trial_type","trial_index","time_elapsed","internal_node_id","match_key","participant_id","stimulus","key_press","block","stim_onset","match_type","image_category","sound_category","audio_type","phase","correct"
"12694.155000033788","{""Q0"":""COGS219_2020_30""}","survey-text","0","12736","0.0-0.0","l","COGS219_2020_30","","","","","","","","","",""
"103174.30999991484","","html-keyboard-response","1","115933","0.0-1.0","l","COGS219_2020_30","<p>Use KEYBOARD 1 (match RIGHT)</p><p>Press MATCH to continue.</p>","76","","","","","","","",""
"1444060.5050000595","","html-keyboard-response","2","1560199","0.0-2.0","l","COGS219_2020_30","<p>Welcome to the experiment.</p>","32","","","","","","","",""
"8296.929999953136","","html-keyboard-response","3","1568502","0.0-3.0","l","COGS219_2020_30","<p>Thank you for agreeing to participate in this study.</p><p>If during any part of the procedure you must stop for any reason, please inform the researcher that you do not wish to continue.</p>","32","","","","","","","",""
"17775.534999906085","","html-keyboard-response","4","1586279","0.0-4.0","l","COGS219_2020_30","<p>In this experiment, you will hear various words or sounds and see pictures of various animals and objects.</p><p>Most of the images will be of common everyday objects, such as cars, cats, cows, firearms, frogs, chickens, whistles, trains, motorcycles, and dogs.</p><p>Some of the images will be real-life stills, while others will be cartoons.</p>","32","","","","","","","",""
"14382.510000024922","","html-keyboard-response","5","1600662","0.0-5.0","l","COGS219_2020_30","<p>Sometimes, the word/sound will match the picture, for example you'll hear a meowing sound and see a cat.</p><p>Other times, the picture will not match the sound or word.</p><p>Your task is to decide as quickly as possible if the word/sound matches the picture or not. </p>","32","","","","","","","",""
"15022.510000038892","","html-keyboard-response","6","1615686","0.0-6.0","l","COGS219_2020_30","<p>For example, if you hear the word ""cat"" or hear a meowing sound, and then see a picture of a cat, you should press the MATCH key.</p><p> If the sound and image do not match, press the NOT-MATCH key to indicate that there is not a match.</p>","32","","","","","","","",""
"10543.25499990955","","html-keyboard-response","7","1626230","0.0-7.0","l","COGS219_2020_30","<p>If you make a mistake, you will hear a buzzing sound instead of a more pleasant sound.</p><p> Try to respond as quickly as possible, while making as few errors as possible. If you are making mistakes, you are probably rushing.</p>","32","","","","","","","",""
"10254.13000001572","","html-keyboard-response","8","1636486","0.0-8.0","l","COGS219_2020_30","<p>Please try to not move or blink your eyes during the presentation of the images. You can move and blink between images.</p><p>During the experiment there will be some breaks during which you can rest your eyes.</p>","32","","","","","","","",""
"7118.355000042357","","html-keyboard-response","9","1643605","0.0-9.0","l","COGS219_2020_30","<p>We will begin with 10 practice trials. Please let the experimenter know if you have any questions.</p>","32","","","","","","","",""
"null","","audio-keyboard-response","10","1644410","0.0-10.0-0.0","l","COGS219_2020_30","Sounds/dog_sound.wav","null","0","","","","","","",""
"null","","html-keyboard-response","11","1645428","0.0-10.0-1.0","l","COGS219_2020_30","<p style=""font-size: 48px;"">+</p>","null","0","","","","","","",""
"1422.9200000409037","","image-keyboard-response","12","1646853","0.0-10.0-2.0","l","COGS219_2020_30","Images/dog_3.png","76","0","1582848171657","match","dog","dog","sound","practice","true"
"null","","audio-keyboard-response","13","1648868","0.0-10.0-3.0","l","COGS219_2020_30","Sounds/correct.wav","null","0","","","","","","",""
"null","","audio-keyboard-response","14","1650150","0.0-10.0-0.1","l","COGS219_2020_30","Sounds/train_label.wav","null","0","","","","","","",""
"null","","html-keyboard-response","15","1651145","0.0-10.0-1.1","l","COGS219_2020_30","<p style=""font-size: 48px;"">+</p>","null","0","","","","","","",""
"1787.0500000426546","","image-keyboard-response","16","1652933","0.0-10.0-2.1","l","COGS219_2020_30","Images/train_orig.png","76","0","1582848177374","match","train","train","label","practice","true"
"null","","audio-keyboard-response","17","1654951","0.0-10.0-3.1","l","COGS219_2020_30","Sounds/correct.wav","null","0","","","","","","",""
"null","","audio-keyboard-response","18","1655650","0.0-10.0-0.2","l","COGS219_2020_30","Sounds/whistle_label.wav","null","0","","","","","","",""
"null","","html-keyboard-response","19","1656645","0.0-10.0-1.2","l","COGS219_2020_30","<p style=""font-size: 48px;"">+</p>","null","0","","","","","","",""
"1119.2549999104813","","image-keyboard-response","20","1657765","0.0-10.0-2.2","l","COGS219_2020_30","Images/whistle_orig.png","76","0","1582848182874","match","whistle","whistle","label","practice","true"
"null","","audio-keyboard-response","21","1659782","0.0-10.0-3.2","l","COGS219_2020_30","Sounds/correct.wav","null","0","","","","","","",""
"null","","audio-keyboard-response","22","1660630","0.0-10.0-0.3","l","COGS219_2020_30","Sounds/cat_label.wav","null","0","","","","","","",""
"null","","html-keyboard-response","23","1661628","0.0-10.0-1.3","l","COGS219_2020_30","<p style=""font-size: 48px;"">+</p>","null","0","","","","","","",""
"1063.7400000123307","","image-keyboard-response","24","1662693","0.0-10.0-2.3","l","COGS219_2020_30","Images/cow_cartoon.png","65","0","1582848187857","non-match","cow","cat","label","practice","true"
"null","","audio-keyboard-response","25","1664709","0.0-10.0-3.3","l","COGS219_2020_30","Sounds/correct.wav","null","0","","","","","","",""
"null","","audio-keyboard-response","26","1665290","0.0-10.0-0.4","l","COGS219_2020_30","Sounds/gun_label.wav","null","0","","","","","","",""
"null","","html-keyboard-response","27","1666295","0.0-10.0-1.4","l","COGS219_2020_30","<p style=""font-size: 48px;"">+</p>","null","0","","","","","","",""
"953.9100000401959","","image-keyboard-response","28","1667253","0.0-10.0-2.4","l","COGS219_2020_30","Images/cow_2.png","65","0","1582848192524","non-match","cow","gun","label","practice","true"
"null","","audio-keyboard-response","29","1669265","0.0-10.0-3.4","l","COGS219_2020_30","Sounds/correct.wav","null","0","","","","","","",""
"null","","audio-keyboard-response","30","1669930","0.0-10.0-0.5","l","COGS219_2020_30","Sounds/whistle_label.wav","null","0","","","","","","",""
"null","","html-keyboard-response","31","1670928","0.0-10.0-1.5","l","COGS219_2020_30","<p style=""font-size: 48px;"">+</p>","null","0","","","","","","",""
"691.8600000208244","","image-keyboard-response","32","1671621","0.0-10.0-2.5","l","COGS219_2020_30","Images/rooster_3.png","65","0","1582848197157","non-match","rooster","whistle","label","practice","true"
"null","","audio-keyboard-response","33","1673625","0.0-10.0-3.5","l","COGS219_2020_30","Sounds/correct.wav","null","0","","","","","","",""
"null","","audio-keyboard-response","34","1674650","0.0-10.0-0.6","l","COGS219_2020_30","Sounds/cow_label.wav","null","0","","","","","","",""
"null","","html-keyboard-response","35","1675645","0.0-10.0-1.6","l","COGS219_2020_30","<p style=""font-size: 48px;"">+</p>","null","0","","","","","","",""
"663.0349999759346","","image-keyboard-response","36","1676309","0.0-10.0-2.6","l","COGS219_2020_30","Images/whistle_orig.png","65","0","1582848201874","non-match","whistle","cow","label","practice","true"
"null","","audio-keyboard-response","37","1678318","0.0-10.0-3.6","l","COGS219_2020_30","Sounds/correct.wav","null","0","","","","","","",""
"null","","audio-keyboard-response","38","1679390","0.0-10.0-0.7","l","COGS219_2020_30","Sounds/car_sound.wav","null","0","","","","","","",""
"null","","html-keyboard-response","39","1680395","0.0-10.0-1.7","l","COGS219_2020_30","<p style=""font-size: 48px;"">+</p>","null","0","","","","","","",""
"1080.7750000385568","","image-keyboard-response","40","1681477","0.0-10.0-2.7","l","COGS219_2020_30","Images/car_3.png","76","0","1582848206624","match","car","car","sound","practice","true"
"null","","audio-keyboard-response","41","1683482","0.0-10.0-3.7","l","COGS219_2020_30","Sounds/correct.wav","null","0","","","","","","",""
"null","","audio-keyboard-response","42","1684190","0.0-10.0-0.8","l","COGS219_2020_30","Sounds/rooster_sound.wav","null","0","","","","","","",""
"null","","html-keyboard-response","43","1685195","0.0-10.0-1.8","l","COGS219_2020_30","<p style=""font-size: 48px;"">+</p>","null","0","","","","","","",""
"1016.8549999361858","","image-keyboard-response","44","1686213","0.0-10.0-2.8","l","COGS219_2020_30","Images/car_1.png","65","0","1582848211424","non-match","car","rooster","sound","practice","true"
"null","","audio-keyboard-response","45","1688217","0.0-10.0-3.8","l","COGS219_2020_30","Sounds/correct.wav","null","0","","","","","","",""
"null","","audio-keyboard-response","46","1689331","0.0-10.0-0.9","l","COGS219_2020_30","Sounds/motorcycle_sound.wav","null","0","","","","","","",""
"null","","html-keyboard-response","47","1690329","0.0-10.0-1.9","l","COGS219_2020_30","<p style=""font-size: 48px;"">+</p>","null","0","","","","","","",""
"1051.6649999190122","","image-keyboard-response","48","1691382","0.0-10.0-2.9","l","COGS219_2020_30","Images/motorcycle_3.png","76","0","1582848216558","match","motorcycle","motorcycle","sound","practice","true"
"null","","audio-keyboard-response","49","1693385","0.0-10.0-3.9","l","COGS219_2020_30","Sounds/correct.wav","null","0","","","","","","",""
"13931.689999997616","","html-keyboard-response","50","1707318","0.0-11.0","l","COGS219_2020_30","<p>The rest of the experiment is divided into five blocks with 100 trials in each block. It will take about 45 minutes to complete.</p><p>The experimenter will be in the outer room and you can communicate with them through the monitor if you have any questions or wish to stop the experiment.</p>","32","","","","","","","",""
"18127.310000010766","","html-keyboard-response","51","1725446","0.0-12.0","l","COGS219_2020_30","<p>Remember, please try not to move or blink your eyes during the presentation of the images. </p><p>At the end of the experiment, we will show you your scores on the task so you can see how you did.</p><p>The experiment will start on the next screen.</p>","32","","","","","","","",""
"null","","audio-keyboard-response","52","1728742","0.0-13.0-0.0","l","COGS219_2020_30","Sounds/train_label.wav","null","1","","","","","","",""
"null","","html-keyboard-response","53","1729746","0.0-13.0-1.0","l","COGS219_2020_30","<p style=""font-size: 48px;"">+</p>","null","1","","","","","","",""
"690.610000048764","","image-keyboard-response","54","1730438","0.0-13.0-2.0","l","COGS219_2020_30","Images/train_1.png","76","1","1582848255975","match","train","train","label","test","true"
"null","","audio-keyboard-response","55","1732453","0.0-13.0-3.0","l","COGS219_2020_30","Sounds/correct.wav","null","1","","","","","","",""
"null","","audio-keyboard-response","56","1733703","0.0-13.0-0.1","l","COGS219_2020_30","Sounds/train_label.wav","null","1","","","","","","",""
"null","","html-keyboard-response","57","1734696","0.0-13.0-1.1","l","COGS219_2020_30","<p style=""font-size: 48px;"">+</p>","null","1","","","","","","",""
"636.434999993071","","image-keyboard-response","58","1735334","0.0-13.0-2.1","l","COGS219_2020_30","Images/whistle_1.png","65","1","1582848260925","non-match","whistle","train","label","test","true"
"null","","audio-keyboard-response","59","1737339","0.0-13.0-3.1","l","COGS219_2020_30","Sounds/correct.wav","null","1","","","","","","",""
"null","","audio-keyboard-response","60","1738462","0.0-13.0-0.2","l","COGS219_2020_30","Sounds/motorcycle_sound.wav","null","1","","","","","","",""
"null","","html-keyboard-response","61","1739479","0.0-13.0-1.2","l","COGS219_2020_30","<p style=""font-size: 48px;"">+</p>","null","1","","","","","","",""
"780.3050000220537","","image-keyboard-response","62","1740262","0.0-13.0-2.2","l","COGS219_2020_30","Images/motorcycle_cartoon.png","76","1","1582848265708","match","motorcycle","motorcycle","sound","test","true"
"null","","audio-keyboard-response","63","1742271","0.0-13.0-3.2","l","COGS219_2020_30","Sounds/correct.wav","null","1","","","","","","",""
"null","","audio-keyboard-response","64","1742982","0.0-13.0-0.3","l","COGS219_2020_30","Sounds/dog_sound.wav","null","1","","","","","","",""
"null","","html-keyboard-response","65","1743979","0.0-13.0-1.3","l","COGS219_2020_30","<p style=""font-size: 48px;"">+</p>","null","1","","","","","","",""
"697.0300000393763","","image-keyboard-response","66","1744678","0.0-13.0-2.3","l","COGS219_2020_30","Images/cat_3.png","65","1","1582848270209","non-match","cat","dog","sound","test","true"
"null","","audio-keyboard-response","67","1746685","0.0-13.0-3.3","l","COGS219_2020_30","Sounds/correct.wav","null","1","","","","","","",""
"null","","audio-keyboard-response","68","1747382","0.0-13.0-0.4","l","COGS219_2020_30","Sounds/rooster_sound.wav","null","1","","","","","","",""
"null","","html-keyboard-response","69","1748380","0.0-13.0-1.4","l","COGS219_2020_30","<p style=""font-size: 48px;"">+</p>","null","1","","","","","","",""
"776.9800000824034","","image-keyboard-response","70","1749158","0.0-13.0-2.4","l","COGS219_2020_30","Images/rooster_2.png","76","1","1582848274609","match","rooster","rooster","sound","test","true"
"null","","audio-keyboard-response","71","1751166","0.0-13.0-3.4","l","COGS219_2020_30","Sounds/correct.wav","null","1","","","","","","",""
"null","","audio-keyboard-response","72","1752282","0.0-13.0-0.5","l","COGS219_2020_30","Sounds/motorcycle_label.wav","null","1","","","","","","",""
"null","","html-keyboard-response","73","1753280","0.0-13.0-1.5","l","COGS219_2020_30","<p style=""font-size: 48px;"">+</p>","null","1","","","","","","",""
"661.1649999395013","","image-keyboard-response","74","1753942","0.0-13.0-2.5","l","COGS219_2020_30","Images/motorcycle_orig.png","76","1","1582848279509","match","motorcycle","motorcycle","label","test","true"
"null","","audio-keyboard-response","75","1755953","0.0-13.0-3.5","l","COGS219_2020_30","Sounds/correct.wav","null","1","","","","","","",""
"null","","audio-keyboard-response","76","1757062","0.0-13.0-0.6","l","COGS219_2020_30","Sounds/motorcycle_sound.wav","null","1","","","","","","",""
"null","","html-keyboard-response","77","1758080","0.0-13.0-1.6","l","COGS219_2020_30","<p style=""font-size: 48px;"">+</p>","null","1","","","","","","",""
"837.0550000108778","","image-keyboard-response","78","1758918","0.0-13.0-2.6","l","COGS219_2020_30","Images/train_2.png","65","1","1582848284309","non-match","train","motorcycle","sound","test","true"
"null","","audio-keyboard-response","79","1760934","0.0-13.0-3.6","l","COGS219_2020_30","Sounds/correct.wav","null","1","","","","","","",""
"null","","audio-keyboard-response","80","1762002","0.0-13.0-0.7","l","COGS219_2020_30","Sounds/car_label.wav","null","1","","","","","","",""
"null","","html-keyboard-response","81","1762996","0.0-13.0-1.7","l","COGS219_2020_30","<p style=""font-size: 48px;"">+</p>","null","1","","","","","","",""
"592.329999897629","","image-keyboard-response","82","1763590","0.0-13.0-2.7","l","COGS219_2020_30","Images/frog_cartoon.png","65","1","1582848289226","non-match","frog","car","label","test","true"
"null","","audio-keyboard-response","83","1765600","0.0-13.0-3.7","l","COGS219_2020_30","Sounds/correct.wav","null","1","","","","","","",""
"null","","audio-keyboard-response","84","1766302","0.0-13.0-0.8","l","COGS219_2020_30","Sounds/whistle_sound.wav","null","1","","","","","","",""
"null","","html-keyboard-response","85","1767297","0.0-13.0-1.8","l","COGS219_2020_30","<p style=""font-size: 48px;"">+</p>","null","1","","","","","","",""
"564.2200000584126","","image-keyboard-response","86","1767862","0.0-13.0-2.8","l","COGS219_2020_30","Images/whistle_cartoon.png","76","1","1582848293526","match","whistle","whistle","sound","test","true"
"null","","audio-keyboard-response","87","1769870","0.0-13.0-3.8","l","COGS219_2020_30","Sounds/correct.wav","null","1","","","","","","",""
"null","","audio-keyboard-response","88","1770962","0.0-13.0-0.9","l","COGS219_2020_30","Sounds/motorcycle_sound.wav","null","1","","","","","","",""
"null","","html-keyboard-response","89","1771980","0.0-13.0-1.9","l","COGS219_2020_30","<p style=""font-size: 48px;"">+</p>","null","1","","","","","","",""
"1144.2550000501797","","image-keyboard-response","90","1773126","0.0-13.0-2.9","l","COGS219_2020_30","Images/car_cartoon.png","65","1","1582848298209","non-match","car","motorcycle","sound","test","true"
"null","","audio-keyboard-response","91","1775135","0.0-13.0-3.9","l","COGS219_2020_30","Sounds/correct.wav","null","1","","","","","","",""
"null","","audio-keyboard-response","92","1776222","0.0-13.0-0.10","l","COGS219_2020_30","Sounds/motorcycle_sound.wav","null","1","","","","","","",""
"null","","html-keyboard-response","93","1777213","0.0-13.0-1.10","l","COGS219_2020_30","<p style=""font-size: 48px;"">+</p>","null","1","","","","","","",""
"599.3299999972805","","image-keyboard-response","94","1777814","0.0-13.0-2.10","l","COGS219_2020_30","Images/dog_2.png","65","1","1582848303443","non-match","dog","motorcycle","sound","test","true"
"null","","audio-keyboard-response","95","1779821","0.0-13.0-3.10","l","COGS219_2020_30","Sounds/correct.wav","null","1","","","","","","",""
"null","","audio-keyboard-response","96","1780842","0.0-13.0-0.11","l","COGS219_2020_30","Sounds/cow_label.wav","null","1","","","","","","",""
"null","","html-keyboard-response","97","1781847","0.0-13.0-1.11","l","COGS219_2020_30","<p style=""font-size: 48px;"">+</p>","null","1","","","","","","",""
"622.304999968037","","image-keyboard-response","98","1782470","0.0-13.0-2.11","l","COGS219_2020_30","Images/rooster_3.png","65","1","1582848308076","non-match","rooster","cow","label","test","true"
"null","","audio-keyboard-response","99","1784484","0.0-13.0-3.11","l","COGS219_2020_30","Sounds/correct.wav","null","1","","","","","","",""
"null","","audio-keyboard-response","100","1785142","0.0-13.0-0.12","l","COGS219_2020_30","Sounds/dog_label.wav","null","1","","","","","","",""
"null","","html-keyboard-response","101","1786147","0.0-13.0-1.12","l","COGS219_2020_30","<p style=""font-size: 48px;"">+</p>","null","1","","","","","","",""
"577.6750000659376","","image-keyboard-response","102","1786726","0.0-13.0-2.12","l","COGS219_2020_30","Images/dog_orig.png","76","1","1582848312376","match","dog","dog","label","test","true"
"null","","audio-keyboard-response","103","1788737","0.0-13.0-3.12","l","COGS219_2020_30","Sounds/correct.wav","null","1","","","","","","",""
"null","","audio-keyboard-response","104","1789442","0.0-13.0-0.13","l","COGS219_2020_30","Sounds/whistle_sound.wav","null","1","","","","","","",""
"null","","html-keyboard-response","105","1790447","0.0-13.0-1.13","l","COGS219_2020_30","<p style=""font-size: 48px;"">+</p>","null","1","","","","","","",""
"597.499999916181","","image-keyboard-response","106","1791046","0.0-13.0-2.13","l","COGS219_2020_30","Images/cow_3.png","65","1","1582848316676","non-match","cow","whistle","sound","test","true"
"null","","audio-keyboard-response","107","1793053","0.0-13.0-3.13","l","COGS219_2020_30","Sounds/correct.wav","null","1","","","","","","",""
"null","","audio-keyboard-response","108","1794142","0.0-13.0-0.14","l","COGS219_2020_30","Sounds/car_label.wav","null","1","","","","","","",""
"null","","html-keyboard-response","109","1795147","0.0-13.0-1.14","l","COGS219_2020_30","<p style=""font-size: 48px;"">+</p>","null","1","","","","","","",""
"1242.1200000680983","","image-keyboard-response","110","1796390","0.0-13.0-2.14","l","COGS219_2020_30","Images/car_cartoon.png","65","1","1582848321376","match","car","car","label","test","false"
"null","","audio-keyboard-response","111","1798403","0.0-13.0-3.14","l","COGS219_2020_30","Sounds/incorrect.wav","null","1","","","","","","",""
"null","","audio-keyboard-response","112","1799682","0.0-13.0-0.15","l","COGS219_2020_30","Sounds/train_label.wav","null","1","","","","","","",""
"null","","html-keyboard-response","113","1800680","0.0-13.0-1.15","l","COGS219_2020_30","<p style=""font-size: 48px;"">+</p>","null","1","","","","","","",""
"652.5300000794232","","image-keyboard-response","114","1801334","0.0-13.0-2.15","l","COGS219_2020_30","Images/train_cartoon.png","76","1","1582848326910","match","train","train","label","test","true"
"null","","audio-keyboard-response","115","1803337","0.0-13.0-3.15","l","COGS219_2020_30","Sounds/correct.wav","null","1","","","","","","",""
"null","","audio-keyboard-response","116","1804422","0.0-13.0-0.16","l","COGS219_2020_30","Sounds/car_sound.wav","null","1","","","","","","",""
"null","","html-keyboard-response","117","1805430","0.0-13.0-1.16","l","COGS219_2020_30","<p style=""font-size: 48px;"">+</p>","null","1","","","","","","",""
"846.5500000165775","","image-keyboard-response","118","1806278","0.0-13.0-2.16","l","COGS219_2020_30","Images/car_3.png","76","1","1582848331659","match","car","car","sound","test","true"
"null","","audio-keyboard-response","119","1808286","0.0-13.0-3.16","l","COGS219_2020_30","Sounds/correct.wav","null","1","","","","","","",""
"null","","audio-keyboard-response","120","1808942","0.0-13.0-0.17","l","COGS219_2020_30","Sounds/dog_label.wav","null","1","","","","","","",""
"null","","html-keyboard-response","121","1809947","0.0-13.0-1.17","l","COGS219_2020_30","<p style=""font-size: 48px;"">+</p>","null","1","","","","","","",""
"665.6250000232831","","image-keyboard-response","122","1810614","0.0-13.0-2.17","l","COGS219_2020_30","Images/rooster_cartoon.png","65","1","1582848336176","non-match","rooster","dog","label","test","true"
"null","","audio-keyboard-response","123","1812618","0.0-13.0-3.17","l","COGS219_2020_30","Sounds/correct.wav","null","1","","","","","","",""
"null","","audio-keyboard-response","124","1813462","0.0-13.0-0.18","l","COGS219_2020_30","Sounds/cat_sound.wav","null","1","","","","","","",""
"null","","html-keyboard-response","125","1814480","0.0-13.0-1.18","l","COGS219_2020_30","<p style=""font-size: 48px;"">+</p>","null","1","","","","","","",""
"484.4999999040738","","image-keyboard-response","126","1814966","0.0-13.0-2.18","l","COGS219_2020_30","Images/car_2.png","65","1","1582848340709","non-match","car","cat","sound","test","true"
"null","","audio-keyboard-response","127","1816969","0.0-13.0-3.18","l","COGS219_2020_30","Sounds/correct.wav","null","1","","","","","","",""
"null","","audio-keyboard-response","128","1817662","0.0-13.0-0.19","l","COGS219_2020_30","Sounds/whistle_sound.wav","null","1","","","","","","",""
"null","","html-keyboard-response","129","1818680","0.0-13.0-1.19","l","COGS219_2020_30","<p style=""font-size: 48px;"">+</p>","null","1","","","","","","",""
"636.3350000465289","","image-keyboard-response","130","1819318","0.0-13.0-2.19","l","COGS219_2020_30","Images/gun_1.png","65","1","1582848344909","non-match","gun","whistle","sound","test","true"
"null","","audio-keyboard-response","131","1821320","0.0-13.0-3.19","l","COGS219_2020_30","Sounds/correct.wav","null","1","","","","","","",""
"null","","audio-keyboard-response","132","1822022","0.0-13.0-0.20","l","COGS219_2020_30","Sounds/dog_sound.wav","null","1","","","","","","",""
"null","","html-keyboard-response","133","1823013","0.0-13.0-1.20","l","COGS219_2020_30","<p style=""font-size: 48px;"">+</p>","null","1","","","","","","",""
"543.1349999271333","","image-keyboard-response","134","1823558","0.0-13.0-2.20","l","COGS219_2020_30","Images/motorcycle_1.png","65","1","1582848349243","non-match","motorcycle","dog","sound","test","true"
"null","","audio-keyboard-response","135","1825567","0.0-13.0-3.20","l","COGS219_2020_30","Sounds/correct.wav","null","1","","","","","","",""
"null","","audio-keyboard-response","136","1826142","0.0-13.0-0.21","l","COGS219_2020_30","Sounds/gun_sound.wav","null","1","","","","","","",""
"null","","html-keyboard-response","137","1827130","0.0-13.0-1.21","l","COGS219_2020_30","<p style=""font-size: 48px;"">+</p>","null","1","","","","","","",""
"922.1599999582395","","image-keyboard-response","138","1828053","0.0-13.0-2.21","l","COGS219_2020_30","Images/cow_1.png","65","1","1582848353359","non-match","cow","gun","sound","test","true"
"null","","audio-keyboard-response","139","1830069","0.0-13.0-3.21","l","COGS219_2020_30","Sounds/correct.wav","null","1","","","","","","",""
"null","","audio-keyboard-response","140","1830902","0.0-13.0-0.22","l","COGS219_2020_30","Sounds/cat_label.wav","null","1","","","","","","",""
"null","","html-keyboard-response","141","1831897","0.0-13.0-1.22","l","COGS219_2020_30","<p style=""font-size: 48px;"">+</p>","null","1","","","","","","",""
"555.6700000306591","","image-keyboard-response","142","1832454","0.0-13.0-2.22","l","COGS219_2020_30","Images/cow_orig.png","65","1","1582848358126","non-match","cow","cat","label","test","true"
"null","","audio-keyboard-response","143","1834467","0.0-13.0-3.22","l","COGS219_2020_30","Sounds/correct.wav","null","1","","","","","","",""
"null","","audio-keyboard-response","144","1835022","0.0-13.0-0.23","l","COGS219_2020_30","Sounds/gun_sound.wav","null","1","","","","","","",""
"null","","html-keyboard-response","145","1836014","0.0-13.0-1.23","l","COGS219_2020_30","<p style=""font-size: 48px;"">+</p>","null","1","","","","","","",""
"566.8300000252202","","image-keyboard-response","146","1836582","0.0-13.0-2.23","l","COGS219_2020_30","Images/frog_3.png","65","1","1582848362243","non-match","frog","gun","sound","test","true"
"null","","audio-keyboard-response","147","1838587","0.0-13.0-3.23","l","COGS219_2020_30","Sounds/correct.wav","null","1","","","","","","",""
"null","","audio-keyboard-response","148","1839882","0.0-13.0-0.24","l","COGS219_2020_30","Sounds/train_sound.wav","null","1","","","","","","",""
"null","","html-keyboard-response","149","1840880","0.0-13.0-1.24","l","COGS219_2020_30","<p style=""font-size: 48px;"">+</p>","null","1","","","","","","",""
"1508.1749999662861","","image-keyboard-response","150","1842389","0.0-13.0-2.24","l","COGS219_2020_30","Images/train_3.png","76","1","1582848367110","match","train","train","sound","test","true"
"null","","audio-keyboard-response","151","1844402","0.0-13.0-3.24","l","COGS219_2020_30","Sounds/correct.wav","null","1","","","","","","",""
"null","","audio-keyboard-response","152","1844982","0.0-13.0-0.25","l","COGS219_2020_30","Sounds/gun_label.wav","null","1","","","","","","",""
"null","","html-keyboard-response","153","1845980","0.0-13.0-1.25","l","COGS219_2020_30","<p style=""font-size: 48px;"">+</p>","null","1","","","","","","",""
"583.9700000360608","","image-keyboard-response","154","1846565","0.0-13.0-2.25","l","COGS219_2020_30","Images/gun_2.png","76","1","1582848372209","match","gun","gun","label","test","true"
"null","","audio-keyboard-response","155","1848569","0.0-13.0-3.25","l","COGS219_2020_30","Sounds/correct.wav","null","1","","","","","","",""
"null","","audio-keyboard-response","156","1849582","0.0-13.0-0.26","l","COGS219_2020_30","Sounds/cow_label.wav","null","1","","","","","","",""
"null","","html-keyboard-response","157","1850580","0.0-13.0-1.26","l","COGS219_2020_30","<p style=""font-size: 48px;"">+</p>","null","1","","","","","","",""
"608.2800000440329","","image-keyboard-response","158","1851190","0.0-13.0-2.26","l","COGS219_2020_30","Images/cat_orig.png","65","1","1582848376809","non-match","cat","cow","label","test","true"
"null","","audio-keyboard-response","159","1853200","0.0-13.0-3.26","l","COGS219_2020_30","Sounds/correct.wav","null","1","","","","","","",""
"null","","audio-keyboard-response","160","1854322","0.0-13.0-0.27","l","COGS219_2020_30","Sounds/motorcycle_sound.wav","null","1","","","","","","",""
"null","","html-keyboard-response","161","1855314","0.0-13.0-1.27","l","COGS219_2020_30","<p style=""font-size: 48px;"">+</p>","null","1","","","","","","",""
"722.7650000713766","","image-keyboard-response","162","1856037","0.0-13.0-2.27","l","COGS219_2020_30","Images/motorcycle_3.png","76","1","1582848381543","match","motorcycle","motorcycle","sound","test","true"
"null","","audio-keyboard-response","163","1858053","0.0-13.0-3.27","l","COGS219_2020_30","Sounds/correct.wav","null","1","","","","","","",""
"null","","audio-keyboard-response","164","1859122","0.0-13.0-0.28","l","COGS219_2020_30","Sounds/car_label.wav","null","1","","","","","","",""
"null","","html-keyboard-response","165","1860114","0.0-13.0-1.28","l","COGS219_2020_30","<p style=""font-size: 48px;"">+</p>","null","1","","","","","","",""
"530.6199999758974","","image-keyboard-response","166","1860646","0.0-13.0-2.28","l","COGS219_2020_30","Images/whistle_cartoon.png","65","1","1582848386343","non-match","whistle","car","label","test","true"
"null","","audio-keyboard-response","167","1862656","0.0-13.0-3.28","l","COGS219_2020_30","Sounds/correct.wav","null","1","","","","","","",""
"null","","audio-keyboard-response","168","1863242","0.0-13.0-0.29","l","COGS219_2020_30","Sounds/gun_sound.wav","null","1","","","","","","",""
"null","","html-keyboard-response","169","1864230","0.0-13.0-1.29","l","COGS219_2020_30","<p style=""font-size: 48px;"">+</p>","null","1","","","","","","",""
"846.6800000751391","","image-keyboard-response","170","1865078","0.0-13.0-2.29","l","COGS219_2020_30","Images/gun_orig.png","76","1","1582848390459","match","gun","gun","sound","test","true"
"null","","audio-keyboard-response","171","1867086","0.0-13.0-3.29","l","COGS219_2020_30","Sounds/correct.wav","null","1","","","","","","",""
"null","","audio-keyboard-response","172","1867982","0.0-13.0-0.30","l","COGS219_2020_30","Sounds/frog_label.wav","null","1","","","","","","",""
"null","","html-keyboard-response","173","1868981","0.0-13.0-1.30","l","COGS219_2020_30","<p style=""font-size: 48px;"">+</p>","null","1","","","","","","",""
"623.8400000147521","","image-keyboard-response","174","1869606","0.0-13.0-2.30","l","COGS219_2020_30","Images/frog_3.png","76","1","1582848395210","match","frog","frog","label","test","true"
"null","","audio-keyboard-response","175","1871618","0.0-13.0-3.30","l","COGS219_2020_30","Sounds/correct.wav","null","1","","","","","","",""
"null","","audio-keyboard-response","176","1872482","0.0-13.0-0.31","l","COGS219_2020_30","Sounds/frog_label.wav","null","1","","","","","","",""
"null","","html-keyboard-response","177","1873481","0.0-13.0-1.31","l","COGS219_2020_30","<p style=""font-size: 48px;"">+</p>","null","1","","","","","","",""
"507.7349999919534","","image-keyboard-response","178","1873990","0.0-13.0-2.31","l","COGS219_2020_30","Images/frog_cartoon.png","76","1","1582848399710","match","frog","frog","label","test","true"
"null","","audio-keyboard-response","179","1876000","0.0-13.0-3.31","l","COGS219_2020_30","Sounds/correct.wav","null","1","","","","","","",""
"null","","audio-keyboard-response","180","1877282","0.0-13.0-0.32","l","COGS219_2020_30","Sounds/train_label.wav","null","1","","","","","","",""
"null","","html-keyboard-response","181","1878281","0.0-13.0-1.32","l","COGS219_2020_30","<p style=""font-size: 48px;"">+</p>","null","1","","","","","","",""
"507.81500001903623","","image-keyboard-response","182","1878790","0.0-13.0-2.32","l","COGS219_2020_30","Images/dog_orig.png","65","1","1582848404510","non-match","dog","train","label","test","true"
"null","","audio-keyboard-response","183","1880801","0.0-13.0-3.32","l","COGS219_2020_30","Sounds/correct.wav","null","1","","","","","","",""
"null","","audio-keyboard-response","184","1881502","0.0-13.0-0.33","l","COGS219_2020_30","Sounds/rooster_label.wav","null","1","","","","","","",""
"null","","html-keyboard-response","185","1882498","0.0-13.0-1.33","l","COGS219_2020_30","<p style=""font-size: 48px;"">+</p>","null","1","","","","","","",""
"674.5949999894947","","image-keyboard-response","186","1883174","0.0-13.0-2.33","l","COGS219_2020_30","Images/rooster_orig.png","76","1","1582848408727","match","rooster","rooster","label","test","true"
"null","","audio-keyboard-response","187","1885185","0.0-13.0-3.33","l","COGS219_2020_30","Sounds/correct.wav","null","1","","","","","","",""
"null","","audio-keyboard-response","188","1885882","0.0-13.0-0.34","l","COGS219_2020_30","Sounds/whistle_label.wav","null","1","","","","","","",""
"null","","html-keyboard-response","189","1886881","0.0-13.0-1.34","l","COGS219_2020_30","<p style=""font-size: 48px;"">+</p>","null","1","","","","","","",""
"515.599999926053","","image-keyboard-response","190","1887398","0.0-13.0-2.34","l","COGS219_2020_30","Images/whistle_orig.png","76","1","1582848413110","match","whistle","whistle","label","test","true"
"null","","audio-keyboard-response","191","1889404","0.0-13.0-3.34","l","COGS219_2020_30","Sounds/correct.wav","null","1","","","","","","",""
"null","","audio-keyboard-response","192","1890302","0.0-13.0-0.35","l","COGS219_2020_30","Sounds/frog_label.wav","null","1","","","","","","",""
"null","","html-keyboard-response","193","1891298","0.0-13.0-1.35","l","COGS219_2020_30","<p style=""font-size: 48px;"">+</p>","null","1","","","","","","",""
"771.0799999767914","","image-keyboard-response","194","1892070","0.0-13.0-2.35","l","COGS219_2020_30","Images/cat_cartoon.png","65","1","1582848417527","non-match","cat","frog","label","test","true"
"null","","audio-keyboard-response","195","1894085","0.0-13.0-3.35","l","COGS219_2020_30","Sounds/correct.wav","null","1","","","","","","",""
"null","","audio-keyboard-response","196","1895162","0.0-13.0-0.36","l","COGS219_2020_30","Sounds/car_sound.wav","null","1","","","","","","",""
"null","","html-keyboard-response","197","1896164","0.0-13.0-1.36","l","COGS219_2020_30","<p style=""font-size: 48px;"">+</p>","null","1","","","","","","",""
"704.2099999962375","","image-keyboard-response","198","1896870","0.0-13.0-2.36","l","COGS219_2020_30","Images/motorcycle_3.png","76","1","1582848422394","non-match","motorcycle","car","sound","test","false"
"null","","audio-keyboard-response","199","1898885","0.0-13.0-3.36","l","COGS219_2020_30","Sounds/incorrect.wav","null","1","","","","","","",""
"null","","audio-keyboard-response","200","1899722","0.0-13.0-0.37","l","COGS219_2020_30","Sounds/cat_label.wav","null","1","","","","","","",""
"null","","html-keyboard-response","201","1900714","0.0-13.0-1.37","l","COGS219_2020_30","<p style=""font-size: 48px;"">+</p>","null","1","","","","","","",""
"698.1150000356138","","image-keyboard-response","202","1901414","0.0-13.0-2.37","l","COGS219_2020_30","Images/cat_2.png","76","1","1582848426944","match","cat","cat","label","test","true"
"null","","audio-keyboard-response","203","1903421","0.0-13.0-3.37","l","COGS219_2020_30","Sounds/correct.wav","null","1","","","","","","",""
"null","","audio-keyboard-response","204","1904562","0.0-13.0-0.38","l","COGS219_2020_30","Sounds/motorcycle_label.wav","null","1","","","","","","",""
"null","","html-keyboard-response","205","1905565","0.0-13.0-1.38","l","COGS219_2020_30","<p style=""font-size: 48px;"">+</p>","null","1","","","","","","",""
"712.2049999888986","","image-keyboard-response","206","1906278","0.0-13.0-2.38","l","COGS219_2020_30","Images/whistle_3.png","65","1","1582848431794","non-match","whistle","motorcycle","label","test","true"
"null","","audio-keyboard-response","207","1908286","0.0-13.0-3.38","l","COGS219_2020_30","Sounds/correct.wav","null","1","","","","","","",""
"null","","audio-keyboard-response","208","1908982","0.0-13.0-0.39","l","COGS219_2020_30","Sounds/rooster_sound.wav","null","1","","","","","","",""
"null","","html-keyboard-response","209","1909981","0.0-13.0-1.39","l","COGS219_2020_30","<p style=""font-size: 48px;"">+</p>","null","1","","","","","","",""
"823.3350000809878","","image-keyboard-response","210","1910806","0.0-13.0-2.39","l","COGS219_2020_30","Images/gun_orig.png","65","1","1582848436210","non-match","gun","rooster","sound","test","true"
"null","","audio-keyboard-response","211","1912818","0.0-13.0-3.39","l","COGS219_2020_30","Sounds/correct.wav","null","1","","","","","","",""
"null","","audio-keyboard-response","212","1913842","0.0-13.0-0.40","l","COGS219_2020_30","Sounds/cow_label.wav","null","1","","","","","","",""
"null","","html-keyboard-response","213","1914848","0.0-13.0-1.40","l","COGS219_2020_30","<p style=""font-size: 48px;"">+</p>","null","1","","","","","","",""
"548.4300000825897","","image-keyboard-response","214","1915398","0.0-13.0-2.40","l","COGS219_2020_30","Images/train_3.png","65","1","1582848441077","non-match","train","cow","label","test","true"
"null","","audio-keyboard-response","215","1917403","0.0-13.0-3.40","l","COGS219_2020_30","Sounds/correct.wav","null","1","","","","","","",""
"null","","audio-keyboard-response","216","1918482","0.0-13.0-0.41","l","COGS219_2020_30","Sounds/car_sound.wav","null","1","","","","","","",""
"null","","html-keyboard-response","217","1919481","0.0-13.0-1.41","l","COGS219_2020_30","<p style=""font-size: 48px;"">+</p>","null","1","","","","","","",""
"475.31000000890344","","image-keyboard-response","218","1919958","0.0-13.0-2.41","l","COGS219_2020_30","Images/dog_1.png","65","1","1582848445711","non-match","dog","car","sound","test","true"
"null","","audio-keyboard-response","219","1921969","0.0-13.0-3.41","l","COGS219_2020_30","Sounds/correct.wav","null","1","","","","","","",""
"null","","audio-keyboard-response","220","1922662","0.0-13.0-0.42","l","COGS219_2020_30","Sounds/rooster_label.wav","null","1","","","","","","",""
"null","","html-keyboard-response","221","1923665","0.0-13.0-1.42","l","COGS219_2020_30","<p style=""font-size: 48px;"">+</p>","null","1","","","","","","",""
"706.8450000369921","","image-keyboard-response","222","1924374","0.0-13.0-2.42","l","COGS219_2020_30","Images/rooster_1.png","76","1","1582848449894","match","rooster","rooster","label","test","true"
"null","","audio-keyboard-response","223","1926385","0.0-13.0-3.42","l","COGS219_2020_30","Sounds/correct.wav","null","1","","","","","","",""
"null","","audio-keyboard-response","224","1927382","0.0-13.0-0.43","l","COGS219_2020_30","Sounds/cow_label.wav","null","1","","","","","","",""
"null","","html-keyboard-response","225","1928381","0.0-13.0-1.43","l","COGS219_2020_30","<p style=""font-size: 48px;"">+</p>","null","1","","","","","","",""
"487.21000005025417","","image-keyboard-response","226","1928870","0.0-13.0-2.43","l","COGS219_2020_30","Images/cow_orig.png","76","1","1582848454611","match","cow","cow","label","test","true"
"null","","audio-keyboard-response","227","1930885","0.0-13.0-3.43","l","COGS219_2020_30","Sounds/correct.wav","null","1","","","","","","",""
"null","","audio-keyboard-response","228","1931601","0.0-13.0-0.44","l","COGS219_2020_30","Sounds/dog_sound.wav","null","1","","","","","","",""
"null","","html-keyboard-response","229","1932598","0.0-13.0-1.44","l","COGS219_2020_30","<p style=""font-size: 48px;"">+</p>","null","1","","","","","","",""
"462.61500008404255","","image-keyboard-response","230","1933061","0.0-13.0-2.44","l","COGS219_2020_30","Images/dog_1.png","76","1","1582848458827","match","dog","dog","sound","test","true"
"null","","audio-keyboard-response","231","1935070","0.0-13.0-3.44","l","COGS219_2020_30","Sounds/correct.wav","null","1","","","","","","",""
"null","","audio-keyboard-response","232","1935761","0.0-13.0-0.45","l","COGS219_2020_30","Sounds/dog_sound.wav","null","1","","","","","","",""
"null","","html-keyboard-response","233","1936764","0.0-13.0-1.45","l","COGS219_2020_30","<p style=""font-size: 48px;"">+</p>","null","1","","","","","","",""
"439.70500002615154","","image-keyboard-response","234","1937205","0.0-13.0-2.45","l","COGS219_2020_30","Images/gun_cartoon.png","65","1","1582848462994","non-match","gun","dog","sound","test","true"
"null","","audio-keyboard-response","235","1939222","0.0-13.0-3.45","l","COGS219_2020_30","Sounds/correct.wav","null","1","","","","","","",""
"null","","audio-keyboard-response","236","1939921","0.0-13.0-0.46","l","COGS219_2020_30","Sounds/dog_sound.wav","null","1","","","","","","",""
"null","","html-keyboard-response","237","1940914","0.0-13.0-1.46","l","COGS219_2020_30","<p style=""font-size: 48px;"">+</p>","null","1","","","","","","",""
"481.64000001270324","","image-keyboard-response","238","1941397","0.0-13.0-2.46","l","COGS219_2020_30","Images/frog_2.png","65","1","1582848467144","non-match","frog","dog","sound","test","true"
"null","","audio-keyboard-response","239","1943404","0.0-13.0-3.46","l","COGS219_2020_30","Sounds/correct.wav","null","1","","","","","","",""
"null","","audio-keyboard-response","240","1944101","0.0-13.0-0.47","l","COGS219_2020_30","Sounds/rooster_sound.wav","null","1","","","","","","",""
"null","","html-keyboard-response","241","1945098","0.0-13.0-1.47","l","COGS219_2020_30","<p style=""font-size: 48px;"">+</p>","null","1","","","","","","",""
"442.5000000046566","","image-keyboard-response","242","1945541","0.0-13.0-2.47","l","COGS219_2020_30","Images/rooster_3.png","76","1","1582848471327","match","rooster","rooster","sound","test","true"
"null","","audio-keyboard-response","243","1947551","0.0-13.0-3.47","l","COGS219_2020_30","Sounds/correct.wav","null","1","","","","","","",""
"null","","audio-keyboard-response","244","1948121","0.0-13.0-0.48","l","COGS219_2020_30","Sounds/gun_label.wav","null","1","","","","","","",""
"null","","html-keyboard-response","245","1949114","0.0-13.0-1.48","l","COGS219_2020_30","<p style=""font-size: 48px;"">+</p>","null","1","","","","","","",""
"601.5250000637025","","image-keyboard-response","246","1949717","0.0-13.0-2.48","l","COGS219_2020_30","Images/gun_3.png","76","1","1582848475344","match","gun","gun","label","test","true"
"null","","audio-keyboard-response","247","1951720","0.0-13.0-3.48","l","COGS219_2020_30","Sounds/correct.wav","null","1","","","","","","",""
"null","","audio-keyboard-response","248","1952621","0.0-13.0-0.49","l","COGS219_2020_30","Sounds/frog_sound.wav","null","1","","","","","","",""
"null","","html-keyboard-response","249","1953614","0.0-13.0-1.49","l","COGS219_2020_30","<p style=""font-size: 48px;"">+</p>","null","1","","","","","","",""
"725.7900000549853","","image-keyboard-response","250","1954341","0.0-13.0-2.49","l","COGS219_2020_30","Images/motorcycle_orig.png","65","1","1582848479844","non-match","motorcycle","frog","sound","test","true"
"null","","audio-keyboard-response","251","1956351","0.0-13.0-3.49","l","COGS219_2020_30","Sounds/correct.wav","null","1","","","","","","",""
"null","","audio-keyboard-response","252","1957181","0.0-13.0-0.50","l","COGS219_2020_30","Sounds/cat_label.wav","null","1","","","","","","",""
"null","","html-keyboard-response","253","1958181","0.0-13.0-1.50","l","COGS219_2020_30","<p style=""font-size: 48px;"">+</p>","null","1","","","","","","",""
"591.2650000536814","","image-keyboard-response","254","1958773","0.0-13.0-2.50","l","COGS219_2020_30","Images/dog_3.png","65","1","1582848484410","non-match","dog","cat","label","test","true"
"null","","audio-keyboard-response","255","1960786","0.0-13.0-3.50","l","COGS219_2020_30","Sounds/correct.wav","null","1","","","","","","",""
"null","","audio-keyboard-response","256","1961342","0.0-13.0-0.51","l","COGS219_2020_30","Sounds/gun_label.wav","null","1","","","","","","",""
"null","","html-keyboard-response","257","1962331","0.0-13.0-1.51","l","COGS219_2020_30","<p style=""font-size: 48px;"">+</p>","null","1","","","","","","",""
"632.9749999567866","","image-keyboard-response","258","1962965","0.0-13.0-2.51","l","COGS219_2020_30","Images/whistle_2.png","65","1","1582848488560","non-match","whistle","gun","label","test","true"
"null","","audio-keyboard-response","259","1964972","0.0-13.0-3.51","l","COGS219_2020_30","Sounds/correct.wav","null","1","","","","","","",""
"null","","audio-keyboard-response","260","1966121","0.0-13.0-0.52","l","COGS219_2020_30","Sounds/motorcycle_label.wav","null","1","","","","","","",""
"null","","html-keyboard-response","261","1967115","0.0-13.0-1.52","l","COGS219_2020_30","<p style=""font-size: 48px;"">+</p>","null","1","","","","","","",""
"969.2550000036135","","image-keyboard-response","262","1968085","0.0-13.0-2.52","l","COGS219_2020_30","Images/motorcycle_1.png","76","1","1582848493344","match","motorcycle","motorcycle","label","test","true"
"null","","audio-keyboard-response","263","1970087","0.0-13.0-3.52","l","COGS219_2020_30","Sounds/correct.wav","null","1","","","","","","",""
"null","","audio-keyboard-response","264","1970921","0.0-13.0-0.53","l","COGS219_2020_30","Sounds/cat_sound.wav","null","1","","","","","","",""
"null","","html-keyboard-response","265","1971915","0.0-13.0-1.53","l","COGS219_2020_30","<p style=""font-size: 48px;"">+</p>","null","1","","","","","","",""
"617.714999942109","","image-keyboard-response","266","1972533","0.0-13.0-2.53","l","COGS219_2020_30","Images/cat_3.png","76","1","1582848498144","match","cat","cat","sound","test","true"
"null","","audio-keyboard-response","267","1974537","0.0-13.0-3.53","l","COGS219_2020_30","Sounds/correct.wav","null","1","","","","","","",""
"null","","audio-keyboard-response","268","1975621","0.0-13.0-0.54","l","COGS219_2020_30","Sounds/car_label.wav","null","1","","","","","","",""
"null","","html-keyboard-response","269","1976615","0.0-13.0-1.54","l","COGS219_2020_30","<p style=""font-size: 48px;"">+</p>","null","1","","","","","","",""
"653.2850000075996","","image-keyboard-response","270","1977269","0.0-13.0-2.54","l","COGS219_2020_30","Images/car_orig.png","76","1","1582848502844","match","car","car","label","test","true"
"null","","audio-keyboard-response","271","1979287","0.0-13.0-3.54","l","COGS219_2020_30","Sounds/correct.wav","null","1","","","","","","",""
"null","","audio-keyboard-response","272","1980581","0.0-13.0-0.55","l","COGS219_2020_30","Sounds/train_sound.wav","null","1","","","","","","",""
"null","","html-keyboard-response","273","1981581","0.0-13.0-1.55","l","COGS219_2020_30","<p style=""font-size: 48px;"">+</p>","null","1","","","","","","",""
"454.7749999910593","","image-keyboard-response","274","1982037","0.0-13.0-2.55","l","COGS219_2020_30","Images/rooster_2.png","65","1","1582848507811","non-match","rooster","train","sound","test","true"
"null","","audio-keyboard-response","275","1984052","0.0-13.0-3.55","l","COGS219_2020_30","Sounds/correct.wav","null","1","","","","","","",""
"null","","audio-keyboard-response","276","1985062","0.0-13.0-0.56","l","COGS219_2020_30","Sounds/cow_sound.wav","null","1","","","","","","",""
"null","","html-keyboard-response","277","1986065","0.0-13.0-1.56","l","COGS219_2020_30","<p style=""font-size: 48px;"">+</p>","null","1","","","","","","",""
"499.71000000368804","","image-keyboard-response","278","1986566","0.0-13.0-2.56","l","COGS219_2020_30","Images/cow_2.png","76","1","1582848512294","match","cow","cow","sound","test","true"
"null","","audio-keyboard-response","279","1988571","0.0-13.0-3.56","l","COGS219_2020_30","Sounds/correct.wav","null","1","","","","","","",""
"null","","audio-keyboard-response","280","1989141","0.0-13.0-0.57","l","COGS219_2020_30","Sounds/gun_sound.wav","null","1","","","","","","",""
"null","","html-keyboard-response","281","1990132","0.0-13.0-1.57","l","COGS219_2020_30","<p style=""font-size: 48px;"">+</p>","null","1","","","","","","",""
"768.4850000077859","","image-keyboard-response","282","1990896","0.0-13.0-2.57","l","COGS219_2020_30","Images/gun_1.png","76","1","1582848516361","match","gun","gun","sound","test","true"
"null","","audio-keyboard-response","283","1992900","0.0-13.0-3.57","l","COGS219_2020_30","Sounds/correct.wav","null","1","","","","","","",""
"null","","audio-keyboard-response","284","1993736","0.0-13.0-0.58","l","COGS219_2020_30","Sounds/cat_label.wav","null","1","","","","","","",""
"null","","html-keyboard-response","285","1994726","0.0-13.0-1.58","l","COGS219_2020_30","<p style=""font-size: 48px;"">+</p>","null","1","","","","","","",""
"568.4449999826029","","image-keyboard-response","286","1995296","0.0-13.0-2.58","l","COGS219_2020_30","Images/rooster_orig.png","65","1","1582848520956","non-match","rooster","cat","label","test","true"
"null","","audio-keyboard-response","287","1997299","0.0-13.0-3.58","l","COGS219_2020_30","Sounds/correct.wav","null","1","","","","","","",""
"null","","audio-keyboard-response","288","1997996","0.0-13.0-0.59","l","COGS219_2020_30","Sounds/whistle_label.wav","null","1","","","","","","",""
"null","","html-keyboard-response","289","1998993","0.0-13.0-1.59","l","COGS219_2020_30","<p style=""font-size: 48px;"">+</p>","null","1","","","","","","",""
"622.0350000075996","","image-keyboard-response","290","1999616","0.0-13.0-2.59","l","COGS219_2020_30","Images/whistle_3.png","76","1","1582848525222","match","whistle","whistle","label","test","true"
"null","","audio-keyboard-response","291","2001631","0.0-13.0-3.59","l","COGS219_2020_30","Sounds/correct.wav","null","1","","","","","","",""
"null","","audio-keyboard-response","292","2002936","0.0-13.0-0.60","l","COGS219_2020_30","Sounds/train_sound.wav","null","1","","","","","","",""
"null","","html-keyboard-response","293","2003926","0.0-13.0-1.60","l","COGS219_2020_30","<p style=""font-size: 48px;"">+</p>","null","1","","","","","","",""
"456.3749999506399","","image-keyboard-response","294","2004384","0.0-13.0-2.60","l","COGS219_2020_30","Images/gun_2.png","65","1","1582848530156","non-match","gun","train","sound","test","true"
"null","","audio-keyboard-response","295","2006397","0.0-13.0-3.60","l","COGS219_2020_30","Sounds/correct.wav","null","1","","","","","","",""
"null","","audio-keyboard-response","296","2007076","0.0-13.0-0.61","l","COGS219_2020_30","Sounds/whistle_label.wav","null","1","","","","","","",""
"null","","html-keyboard-response","297","2008077","0.0-13.0-1.61","l","COGS219_2020_30","<p style=""font-size: 48px;"">+</p>","null","1","","","","","","",""
"514.3299999181181","","image-keyboard-response","298","2008592","0.0-13.0-2.61","l","COGS219_2020_30","Images/motorcycle_2.png","65","1","1582848534306","non-match","motorcycle","whistle","label","test","true"
"null","","audio-keyboard-response","299","2010599","0.0-13.0-3.61","l","COGS219_2020_30","Sounds/correct.wav","null","1","","","","","","",""
"null","","audio-keyboard-response","300","2011496","0.0-13.0-0.62","l","COGS219_2020_30","Sounds/frog_label.wav","null","1","","","","","","",""
"null","","html-keyboard-response","301","2012493","0.0-13.0-1.62","l","COGS219_2020_30","<p style=""font-size: 48px;"">+</p>","null","1","","","","","","",""
"481.679999968037","","image-keyboard-response","302","2012976","0.0-13.0-2.62","l","COGS219_2020_30","Images/cow_cartoon.png","65","1","1582848538722","non-match","cow","frog","label","test","true"
"null","","audio-keyboard-response","303","2014983","0.0-13.0-3.62","l","COGS219_2020_30","Sounds/correct.wav","null","1","","","","","","",""
"null","","audio-keyboard-response","304","2015896","0.0-13.0-0.63","l","COGS219_2020_30","Sounds/frog_sound.wav","null","1","","","","","","",""
"null","","html-keyboard-response","305","2016893","0.0-13.0-1.63","l","COGS219_2020_30","<p style=""font-size: 48px;"">+</p>","null","1","","","","","","",""
"785.3950000135228","","image-keyboard-response","306","2017680","0.0-13.0-2.63","l","COGS219_2020_30","Images/frog_orig.png","76","1","1582848543122","match","frog","frog","sound","test","true"
"null","","audio-keyboard-response","307","2019697","0.0-13.0-3.63","l","COGS219_2020_30","Sounds/correct.wav","null","1","","","","","","",""
"null","","audio-keyboard-response","308","2020536","0.0-13.0-0.64","l","COGS219_2020_30","Sounds/cat_label.wav","null","1","","","","","","",""
"null","","html-keyboard-response","309","2021527","0.0-13.0-1.64","l","COGS219_2020_30","<p style=""font-size: 48px;"">+</p>","null","1","","","","","","",""
"440.16500003635883","","image-keyboard-response","310","2021968","0.0-13.0-2.64","l","COGS219_2020_30","Images/cat_orig.png","76","1","1582848547756","match","cat","cat","label","test","true"
"null","","audio-keyboard-response","311","2023980","0.0-13.0-3.64","l","COGS219_2020_30","Sounds/correct.wav","null","1","","","","","","",""
"null","","audio-keyboard-response","312","2025056","0.0-13.0-0.65","l","COGS219_2020_30","Sounds/car_label.wav","null","1","","","","","","",""
"null","","html-keyboard-response","313","2026060","0.0-13.0-1.65","l","COGS219_2020_30","<p style=""font-size: 48px;"">+</p>","null","1","","","","","","",""
"803.1150000169873","","image-keyboard-response","314","2026864","0.0-13.0-2.65","l","COGS219_2020_30","Images/train_1.png","65","1","1582848552289","non-match","train","car","label","test","true"
"null","","audio-keyboard-response","315","2028882","0.0-13.0-3.65","l","COGS219_2020_30","Sounds/correct.wav","null","1","","","","","","",""
"null","","audio-keyboard-response","316","2029776","0.0-13.0-0.66","l","COGS219_2020_30","Sounds/frog_sound.wav","null","1","","","","","","",""
"null","","html-keyboard-response","317","2030777","0.0-13.0-1.66","l","COGS219_2020_30","<p style=""font-size: 48px;"">+</p>","null","1","","","","","","",""
"406.06999990995973","","image-keyboard-response","318","2031184","0.0-13.0-2.66","l","COGS219_2020_30","Images/frog_1.png","76","1","1582848557006","match","frog","frog","sound","test","true"
"null","","audio-keyboard-response","319","2033197","0.0-13.0-3.66","l","COGS219_2020_30","Sounds/correct.wav","null","1","","","","","","",""
"null","","audio-keyboard-response","320","2034216","0.0-13.0-0.67","l","COGS219_2020_30","Sounds/cow_label.wav","null","1","","","","","","",""
"null","","html-keyboard-response","321","2035210","0.0-13.0-1.67","l","COGS219_2020_30","<p style=""font-size: 48px;"">+</p>","null","1","","","","","","",""
"500.77499996405095","","image-keyboard-response","322","2035712","0.0-13.0-2.67","l","COGS219_2020_30","Images/dog_cartoon.png","65","1","1582848561439","non-match","dog","cow","label","test","true"
"null","","audio-keyboard-response","323","2037716","0.0-13.0-3.67","l","COGS219_2020_30","Sounds/correct.wav","null","1","","","","","","",""
"null","","audio-keyboard-response","324","2038416","0.0-13.0-0.68","l","COGS219_2020_30","Sounds/rooster_sound.wav","null","1","","","","","","",""
"null","","html-keyboard-response","325","2039410","0.0-13.0-1.68","l","COGS219_2020_30","<p style=""font-size: 48px;"">+</p>","null","1","","","","","","",""
"524.8300000093877","","image-keyboard-response","326","2039936","0.0-13.0-2.68","l","COGS219_2020_30","Images/rooster_cartoon.png","76","1","1582848565639","match","rooster","rooster","sound","test","true"
"null","","audio-keyboard-response","327","2041947","0.0-13.0-3.68","l","COGS219_2020_30","Sounds/correct.wav","null","1","","","","","","",""
"null","","audio-keyboard-response","328","2042616","0.0-13.0-0.69","l","COGS219_2020_30","Sounds/rooster_sound.wav","null","1","","","","","","",""
"null","","html-keyboard-response","329","2043610","0.0-13.0-1.69","l","COGS219_2020_30","<p style=""font-size: 48px;"">+</p>","null","1","","","","","","",""
"500.62499998603016","","image-keyboard-response","330","2044112","0.0-13.0-2.69","l","COGS219_2020_30","Images/cow_2.png","65","1","1582848569840","non-match","cow","rooster","sound","test","true"
"null","","audio-keyboard-response","331","2046117","0.0-13.0-3.69","l","COGS219_2020_30","Sounds/correct.wav","null","1","","","","","","",""
"null","","audio-keyboard-response","332","2046816","0.0-13.0-0.70","l","COGS219_2020_30","Sounds/whistle_label.wav","null","1","","","","","","",""
"null","","html-keyboard-response","333","2047810","0.0-13.0-1.70","l","COGS219_2020_30","<p style=""font-size: 48px;"">+</p>","null","1","","","","","","",""
"492.70000006072223","","image-keyboard-response","334","2048304","0.0-13.0-2.70","l","COGS219_2020_30","Images/car_1.png","65","1","1582848574039","non-match","car","whistle","label","test","true"
"null","","audio-keyboard-response","335","2050314","0.0-13.0-3.70","l","COGS219_2020_30","Sounds/correct.wav","null","1","","","","","","",""
"null","","audio-keyboard-response","336","2051331","0.0-13.0-0.71","l","COGS219_2020_30","Sounds/cow_sound.wav","null","1","","","","","","",""
"null","","html-keyboard-response","337","2052322","0.0-13.0-1.71","l","COGS219_2020_30","<p style=""font-size: 48px;"">+</p>","null","1","","","","","","",""
"664.0950000146404","","image-keyboard-response","338","2052987","0.0-13.0-2.71","l","COGS219_2020_30","Images/cow_1.png","76","1","1582848578551","match","cow","cow","sound","test","true"
"null","","audio-keyboard-response","339","2054997","0.0-13.0-3.71","l","COGS219_2020_30","Sounds/correct.wav","null","1","","","","","","",""
"null","","audio-keyboard-response","340","2056071","0.0-13.0-0.72","l","COGS219_2020_30","Sounds/car_sound.wav","null","1","","","","","","",""
"null","","html-keyboard-response","341","2057089","0.0-13.0-1.72","l","COGS219_2020_30","<p style=""font-size: 48px;"">+</p>","null","1","","","","","","",""
"392.920000012964","","image-keyboard-response","342","2057483","0.0-13.0-2.72","l","COGS219_2020_30","Images/car_1.png","76","1","1582848583318","match","car","car","sound","test","true"
"null","","audio-keyboard-response","343","2059492","0.0-13.0-3.72","l","COGS219_2020_30","Sounds/correct.wav","null","1","","","","","","",""
"null","","audio-keyboard-response","344","2060211","0.0-13.0-0.73","l","COGS219_2020_30","Sounds/dog_sound.wav","null","1","","","","","","",""
"null","","html-keyboard-response","345","2061206","0.0-13.0-1.73","l","COGS219_2020_30","<p style=""font-size: 48px;"">+</p>","null","1","","","","","","",""
"420.3749999869615","","image-keyboard-response","346","2061627","0.0-13.0-2.73","l","COGS219_2020_30","Images/dog_2.png","76","1","1582848587435","match","dog","dog","sound","test","true"
"null","","audio-keyboard-response","347","2063644","0.0-13.0-3.73","l","COGS219_2020_30","Sounds/correct.wav","null","1","","","","","","",""
"null","","audio-keyboard-response","348","2064631","0.0-13.0-0.74","l","COGS219_2020_30","Sounds/cow_sound.wav","null","1","","","","","","",""
"null","","html-keyboard-response","349","2065622","0.0-13.0-1.74","l","COGS219_2020_30","<p style=""font-size: 48px;"">+</p>","null","1","","","","","","",""
"595.8899999968708","","image-keyboard-response","350","2066219","0.0-13.0-2.74","l","COGS219_2020_30","Images/frog_orig.png","65","1","1582848591851","non-match","frog","cow","sound","test","true"
"null","","audio-keyboard-response","351","2068229","0.0-13.0-3.74","l","COGS219_2020_30","Sounds/correct.wav","null","1","","","","","","",""
"null","","audio-keyboard-response","352","2069352","0.0-13.0-0.75","l","COGS219_2020_30","Sounds/motorcycle_sound.wav","null","1","","","","","","",""
"null","","html-keyboard-response","353","2070356","0.0-13.0-1.75","l","COGS219_2020_30","<p style=""font-size: 48px;"">+</p>","null","1","","","","","","",""
"790.4299999354407","","image-keyboard-response","354","2071147","0.0-13.0-2.75","l","COGS219_2020_30","Images/motorcycle_2.png","76","1","1582848596585","match","motorcycle","motorcycle","sound","test","true"
"null","","audio-keyboard-response","355","2073159","0.0-13.0-3.75","l","COGS219_2020_30","Sounds/correct.wav","null","1","","","","","","",""
"null","","audio-keyboard-response","356","2074151","0.0-13.0-0.76","l","COGS219_2020_30","Sounds/cow_sound.wav","null","1","","","","","","",""
"null","","html-keyboard-response","357","2075156","0.0-13.0-1.76","l","COGS219_2020_30","<p style=""font-size: 48px;"">+</p>","null","1","","","","","","",""
"886.0400000121444","","image-keyboard-response","358","2076043","0.0-13.0-2.76","l","COGS219_2020_30","Images/cow_3.png","76","1","1582848601385","match","cow","cow","sound","test","true"
"null","","audio-keyboard-response","359","2078059","0.0-13.0-3.76","l","COGS219_2020_30","Sounds/correct.wav","null","1","","","","","","",""
"null","","audio-keyboard-response","360","2079131","0.0-13.0-0.77","l","COGS219_2020_30","Sounds/car_label.wav","null","1","","","","","","",""
"null","","html-keyboard-response","361","2080122","0.0-13.0-1.77","l","COGS219_2020_30","<p style=""font-size: 48px;"">+</p>","null","1","","","","","","",""
"559.7449999768287","","image-keyboard-response","362","2080683","0.0-13.0-2.77","l","COGS219_2020_30","Images/cat_2.png","65","1","1582848606352","non-match","cat","car","label","test","true"
"null","","audio-keyboard-response","363","2082693","0.0-13.0-3.77","l","COGS219_2020_30","Sounds/correct.wav","null","1","","","","","","",""
"null","","audio-keyboard-response","364","2083392","0.0-13.0-0.78","l","COGS219_2020_30","Sounds/whistle_label.wav","null","1","","","","","","",""
"null","","html-keyboard-response","365","2084389","0.0-13.0-1.78","l","COGS219_2020_30","<p style=""font-size: 48px;"">+</p>","null","1","","","","","","",""
"580.904999980703","","image-keyboard-response","366","2084971","0.0-13.0-2.78","l","COGS219_2020_30","Images/whistle_2.png","76","1","1582848610618","match","whistle","whistle","label","test","true"
"null","","audio-keyboard-response","367","2086979","0.0-13.0-3.78","l","COGS219_2020_30","Sounds/correct.wav","null","1","","","","","","",""
"null","","audio-keyboard-response","368","2088091","0.0-13.0-0.79","l","COGS219_2020_30","Sounds/motorcycle_sound.wav","null","1","","","","","","",""
"null","","html-keyboard-response","369","2089089","0.0-13.0-1.79","l","COGS219_2020_30","<p style=""font-size: 48px;"">+</p>","null","1","","","","","","",""
"520.7999999402091","","image-keyboard-response","370","2089611","0.0-13.0-2.79","l","COGS219_2020_30","Images/frog_1.png","65","1","1582848615318","non-match","frog","motorcycle","sound","test","true"
"null","","audio-keyboard-response","371","2091626","0.0-13.0-3.79","l","COGS219_2020_30","Sounds/correct.wav","null","1","","","","","","",""
"null","","audio-keyboard-response","372","2092931","0.0-13.0-0.80","l","COGS219_2020_30","Sounds/train_sound.wav","null","1","","","","","","",""
"null","","html-keyboard-response","373","2093923","0.0-13.0-1.80","l","COGS219_2020_30","<p style=""font-size: 48px;"">+</p>","null","1","","","","","","",""
"455.7700000004843","","image-keyboard-response","374","2094379","0.0-13.0-2.80","l","COGS219_2020_30","Images/train_orig.png","76","1","1582848620152","match","train","train","sound","test","true"
"null","","audio-keyboard-response","375","2096393","0.0-13.0-3.80","l","COGS219_2020_30","Sounds/correct.wav","null","1","","","","","","",""
"null","","audio-keyboard-response","376","2097091","0.0-13.0-0.81","l","COGS219_2020_30","Sounds/rooster_sound.wav","null","1","","","","","","",""
"null","","html-keyboard-response","377","2098089","0.0-13.0-1.81","l","COGS219_2020_30","<p style=""font-size: 48px;"">+</p>","null","1","","","","","","",""
"528.6950001027435","","image-keyboard-response","378","2098619","0.0-13.0-2.81","l","COGS219_2020_30","Images/whistle_orig.png","76","1","1582848624319","non-match","whistle","rooster","sound","test","false"
"null","","audio-keyboard-response","379","2100628","0.0-13.0-3.81","l","COGS219_2020_30","Sounds/incorrect.wav","null","1","","","","","","",""
"null","","audio-keyboard-response","380","2101471","0.0-13.0-0.82","l","COGS219_2020_30","Sounds/cat_sound.wav","null","1","","","","","","",""
"null","","html-keyboard-response","381","2102489","0.0-13.0-1.82","l","COGS219_2020_30","<p style=""font-size: 48px;"">+</p>","null","1","","","","","","",""
"574.7999999439344","","image-keyboard-response","382","2103067","0.0-13.0-2.82","l","COGS219_2020_30","Images/cat_1.png","76","1","1582848628718","match","cat","cat","sound","test","true"
"null","","audio-keyboard-response","383","2105076","0.0-13.0-3.82","l","COGS219_2020_30","Sounds/correct.wav","null","1","","","","","","",""
"null","","audio-keyboard-response","384","2105651","0.0-13.0-0.83","l","COGS219_2020_30","Sounds/gun_sound.wav","null","1","","","","","","",""
"null","","html-keyboard-response","385","2106656","0.0-13.0-1.83","l","COGS219_2020_30","<p style=""font-size: 48px;"">+</p>","null","1","","","","","","",""
"794.1000000573695","","image-keyboard-response","386","2107451","0.0-13.0-2.83","l","COGS219_2020_30","Images/train_orig.png","65","1","1582848632885","non-match","train","gun","sound","test","true"
"null","","audio-keyboard-response","387","2109464","0.0-13.0-3.83","l","COGS219_2020_30","Sounds/correct.wav","null","1","","","","","","",""
"null","","audio-keyboard-response","388","2110171","0.0-13.0-0.84","l","COGS219_2020_30","Sounds/rooster_label.wav","null","1","","","","","","",""
"null","","html-keyboard-response","389","2111189","0.0-13.0-1.84","l","COGS219_2020_30","<p style=""font-size: 48px;"">+</p>","null","1","","","","","","",""
"660.6850000098348","","image-keyboard-response","390","2111846","0.0-13.0-2.84","l","COGS219_2020_30","Images/motorcycle_cartoon.png","65","1","1582848637418","non-match","motorcycle","rooster","label","test","true"
"null","","audio-keyboard-response","391","2113855","0.0-13.0-3.84","l","COGS219_2020_30","Sounds/correct.wav","null","1","","","","","","",""
"null","","audio-keyboard-response","392","2114746","0.0-13.0-0.85","l","COGS219_2020_30","Sounds/frog_label.wav","null","1","","","","","","",""
"null","","html-keyboard-response","393","2115751","0.0-13.0-1.85","l","COGS219_2020_30","<p style=""font-size: 48px;"">+</p>","null","1","","","","","","",""
"587.8900000825524","","image-keyboard-response","394","2116342","0.0-13.0-2.85","l","COGS219_2020_30","Images/gun_3.png","65","1","1582848641981","non-match","gun","frog","label","test","true"
"null","","audio-keyboard-response","395","2118356","0.0-13.0-3.85","l","COGS219_2020_30","Sounds/correct.wav","null","1","","","","","","",""
"null","","audio-keyboard-response","396","2119226","0.0-13.0-0.86","l","COGS219_2020_30","Sounds/frog_label.wav","null","1","","","","","","",""
"null","","html-keyboard-response","397","2120218","0.0-13.0-1.86","l","COGS219_2020_30","<p style=""font-size: 48px;"">+</p>","null","1","","","","","","",""
"507.2849999414757","","image-keyboard-response","398","2120726","0.0-13.0-2.86","l","COGS219_2020_30","Images/frog_2.png","76","1","1582848646447","match","frog","frog","label","test","true"
"null","","audio-keyboard-response","399","2122737","0.0-13.0-3.86","l","COGS219_2020_30","Sounds/correct.wav","null","1","","","","","","",""
"null","","audio-keyboard-response","400","2124046","0.0-13.0-0.87","l","COGS219_2020_30","Sounds/train_sound.wav","null","1","","","","","","",""
"null","","html-keyboard-response","401","2125051","0.0-13.0-1.87","l","COGS219_2020_30","<p style=""font-size: 48px;"">+</p>","null","1","","","","","","",""
"601.8800000892952","","image-keyboard-response","402","2125654","0.0-13.0-2.87","l","COGS219_2020_30","Images/train_2.png","76","1","1582848651280","match","train","train","sound","test","true"
"null","","audio-keyboard-response","403","2127672","0.0-13.0-3.87","l","COGS219_2020_30","Sounds/correct.wav","null","1","","","","","","",""
"null","","audio-keyboard-response","404","2128246","0.0-13.0-0.88","l","COGS219_2020_30","Sounds/gun_sound.wav","null","1","","","","","","",""
"null","","html-keyboard-response","405","2129235","0.0-13.0-1.88","l","COGS219_2020_30","<p style=""font-size: 48px;"">+</p>","null","1","","","","","","",""
"802.3599999723956","","image-keyboard-response","406","2130038","0.0-13.0-2.88","l","COGS219_2020_30","Images/car_3.png","65","1","1582848655464","non-match","car","gun","sound","test","true"
"null","","audio-keyboard-response","407","2132041","0.0-13.0-3.88","l","COGS219_2020_30","Sounds/correct.wav","null","1","","","","","","",""
"null","","audio-keyboard-response","408","2132906","0.0-13.0-0.89","l","COGS219_2020_30","Sounds/frog_label.wav","null","1","","","","","","",""
"null","","html-keyboard-response","409","2133901","0.0-13.0-1.89","l","COGS219_2020_30","<p style=""font-size: 48px;"">+</p>","null","1","","","","","","",""
"567.9400000954047","","image-keyboard-response","410","2134470","0.0-13.0-2.89","l","COGS219_2020_30","Images/rooster_1.png","65","1","1582848660131","non-match","rooster","frog","label","test","true"
"null","","audio-keyboard-response","411","2136475","0.0-13.0-3.89","l","COGS219_2020_30","Sounds/correct.wav","null","1","","","","","","",""
"null","","audio-keyboard-response","412","2137046","0.0-13.0-0.90","l","COGS219_2020_30","Sounds/gun_label.wav","null","1","","","","","","",""
"null","","html-keyboard-response","413","2138035","0.0-13.0-1.90","l","COGS219_2020_30","<p style=""font-size: 48px;"">+</p>","null","1","","","","","","",""
"498.17999999504536","","image-keyboard-response","414","2138534","0.0-13.0-2.90","l","COGS219_2020_30","Images/gun_cartoon.png","76","1","1582848664264","match","gun","gun","label","test","true"
"null","","audio-keyboard-response","415","2140541","0.0-13.0-3.90","l","COGS219_2020_30","Sounds/correct.wav","null","1","","","","","","",""
"null","","audio-keyboard-response","416","2141246","0.0-13.0-0.91","l","COGS219_2020_30","Sounds/dog_sound.wav","null","1","","","","","","",""
"null","","html-keyboard-response","417","2142235","0.0-13.0-1.91","l","COGS219_2020_30","<p style=""font-size: 48px;"">+</p>","null","1","","","","","","",""
"842.3350000521168","","image-keyboard-response","418","2143078","0.0-13.0-2.91","l","COGS219_2020_30","Images/dog_3.png","65","1","1582848668464","match","dog","dog","sound","test","false"
"null","","audio-keyboard-response","419","2145089","0.0-13.0-3.91","l","COGS219_2020_30","Sounds/incorrect.wav","null","1","","","","","","",""
"null","","audio-keyboard-response","420","2145926","0.0-13.0-0.92","l","COGS219_2020_30","Sounds/cat_sound.wav","null","1","","","","","","",""
"null","","html-keyboard-response","421","2146918","0.0-13.0-1.92","l","COGS219_2020_30","<p style=""font-size: 48px;"">+</p>","null","1","","","","","","",""
"511.1800000304356","","image-keyboard-response","422","2147430","0.0-13.0-2.92","l","COGS219_2020_30","Images/cat_cartoon.png","76","1","1582848673147","match","cat","cat","sound","test","true"
"null","","audio-keyboard-response","423","2149438","0.0-13.0-3.92","l","COGS219_2020_30","Sounds/correct.wav","null","1","","","","","","",""
"null","","audio-keyboard-response","424","2150126","0.0-13.0-0.93","l","COGS219_2020_30","Sounds/whistle_label.wav","null","1","","","","","","",""
"null","","html-keyboard-response","425","2151118","0.0-13.0-1.93","l","COGS219_2020_30","<p style=""font-size: 48px;"">+</p>","null","1","","","","","","",""
"870.7649999996647","","image-keyboard-response","426","2151990","0.0-13.0-2.93","l","COGS219_2020_30","Images/whistle_1.png","76","1","1582848677347","match","whistle","whistle","label","test","true"
"null","","audio-keyboard-response","427","2154007","0.0-13.0-3.93","l","COGS219_2020_30","Sounds/correct.wav","null","1","","","","","","",""
"null","","audio-keyboard-response","428","2155026","0.0-13.0-0.94","l","COGS219_2020_30","Sounds/cow_label.wav","null","1","","","","","","",""
"null","","html-keyboard-response","429","2156018","0.0-13.0-1.94","l","COGS219_2020_30","<p style=""font-size: 48px;"">+</p>","null","1","","","","","","",""
"499.1450000088662","","image-keyboard-response","430","2156518","0.0-13.0-2.94","l","COGS219_2020_30","Images/cow_cartoon.png","76","1","1582848682247","match","cow","cow","label","test","true"
"null","","audio-keyboard-response","431","2158523","0.0-13.0-3.94","l","COGS219_2020_30","Sounds/correct.wav","null","1","","","","","","",""
"null","","audio-keyboard-response","432","2159826","0.0-13.0-0.95","l","COGS219_2020_30","Sounds/train_sound.wav","null","1","","","","","","",""
"null","","html-keyboard-response","433","2160818","0.0-13.0-1.95","l","COGS219_2020_30","<p style=""font-size: 48px;"">+</p>","null","1","","","","","","",""
"640.9500000299886","","image-keyboard-response","434","2161462","0.0-13.0-2.95","l","COGS219_2020_30","Images/cat_1.png","65","1","1582848687048","non-match","cat","train","sound","test","true"
"null","","audio-keyboard-response","435","2163473","0.0-13.0-3.95","l","COGS219_2020_30","Sounds/correct.wav","null","1","","","","","","",""
"null","","audio-keyboard-response","436","2164126","0.0-13.0-0.96","l","COGS219_2020_30","Sounds/dog_label.wav","null","1","","","","","","",""
"null","","html-keyboard-response","437","2165118","0.0-13.0-1.96","l","COGS219_2020_30","<p style=""font-size: 48px;"">+</p>","null","1","","","","","","",""
"566.5199999930337","","image-keyboard-response","438","2165686","0.0-13.0-2.96","l","COGS219_2020_30","Images/dog_cartoon.png","76","1","1582848691347","match","dog","dog","label","test","true"
"null","","audio-keyboard-response","439","2167692","0.0-13.0-3.96","l","COGS219_2020_30","Sounds/correct.wav","null","1","","","","","","",""
"null","","audio-keyboard-response","440","2168766","0.0-13.0-0.97","l","COGS219_2020_30","Sounds/car_label.wav","null","1","","","","","","",""
"null","","html-keyboard-response","441","2169768","0.0-13.0-1.97","l","COGS219_2020_30","<p style=""font-size: 48px;"">+</p>","null","1","","","","","","",""
"476.6149999340996","","image-keyboard-response","442","2170246","0.0-13.0-2.97","l","COGS219_2020_30","Images/car_2.png","76","1","1582848695998","match","car","car","label","test","true"
"null","","audio-keyboard-response","443","2172250","0.0-13.0-3.97","l","COGS219_2020_30","Sounds/correct.wav","null","1","","","","","","",""
"null","","audio-keyboard-response","444","2173081","0.0-13.0-0.98","l","COGS219_2020_30","Sounds/cat_label.wav","null","1","","","","","","",""
"null","","html-keyboard-response","445","2174080","0.0-13.0-1.98","l","COGS219_2020_30","<p style=""font-size: 48px;"">+</p>","null","1","","","","","","",""
"463.28500006347895","","image-keyboard-response","446","2174545","0.0-13.0-2.98","l","COGS219_2020_30","Images/train_cartoon.png","65","1","1582848700309","non-match","train","cat","label","test","true"
"null","","audio-keyboard-response","447","2176552","0.0-13.0-3.98","l","COGS219_2020_30","Sounds/correct.wav","null","1","","","","","","",""
"null","","audio-keyboard-response","448","2177241","0.0-13.0-0.99","l","COGS219_2020_30","Sounds/rooster_label.wav","null","1","","","","","","",""
"null","","html-keyboard-response","449","2178247","0.0-13.0-1.99","l","COGS219_2020_30","<p style=""font-size: 48px;"">+</p>","null","1","","","","","","",""
"632.8300000168383","","image-keyboard-response","450","2178881","0.0-13.0-2.99","l","COGS219_2020_30","Images/car_orig.png","65","1","1582848704476","non-match","car","rooster","label","test","true"
"null","","audio-keyboard-response","451","2180901","0.0-13.0-3.99","l","COGS219_2020_30","Sounds/correct.wav","null","1","","","","","","",""
"5691.435000044294","","html-keyboard-response","452","2186593","0.0-14.0","l","COGS219_2020_30","<p>Please take this opportunity to rest your eyes before proceeding.</p><p>When ready, press the enter key to continue to the next set of trials.</p>","13","","","","","","","",""
"null","","audio-keyboard-response","453","2189681","0.0-15.0-0.0","l","COGS219_2020_30","Sounds/car_sound.wav","null","2","","","","","","",""
"null","","html-keyboard-response","454","2190680","0.0-15.0-1.0","l","COGS219_2020_30","<p style=""font-size: 48px;"">+</p>","null","2","","","","","","",""
"583.6699999636039","","image-keyboard-response","455","2191265","0.0-15.0-2.0","l","COGS219_2020_30","Images/train_1.png","65","2","1582848716909","non-match","train","car","sound","test","true"
"null","","audio-keyboard-response","456","2193269","0.0-15.0-3.0","l","COGS219_2020_30","Sounds/correct.wav","null","2","","","","","","",""
"null","","audio-keyboard-response","457","2193961","0.0-15.0-0.1","l","COGS219_2020_30","Sounds/rooster_sound.wav","null","2","","","","","","",""
"null","","html-keyboard-response","458","2194964","0.0-15.0-1.1","l","COGS219_2020_30","<p style=""font-size: 48px;"">+</p>","null","2","","","","","","",""
"636.3299998920411","","image-keyboard-response","459","2195601","0.0-15.0-2.1","l","COGS219_2020_30","Images/cat_2.png","65","2","1582848721193","non-match","cat","rooster","sound","test","true"
"null","","audio-keyboard-response","460","2197617","0.0-15.0-3.1","l","COGS219_2020_30","Sounds/correct.wav","null","2","","","","","","",""
"null","","audio-keyboard-response","461","2198521","0.0-15.0-0.2","l","COGS219_2020_30","Sounds/frog_label.wav","null","2","","","","","","",""
"null","","html-keyboard-response","462","2199514","0.0-15.0-1.2","l","COGS219_2020_30","<p style=""font-size: 48px;"">+</p>","null","2","","","","","","",""
"454.56999994348735","","image-keyboard-response","463","2199969","0.0-15.0-2.2","l","COGS219_2020_30","Images/cat_1.png","65","2","1582848725743","non-match","cat","frog","label","test","true"
"null","","audio-keyboard-response","464","2201986","0.0-15.0-3.2","l","COGS219_2020_30","Sounds/correct.wav","null","2","","","","","","",""
"null","","audio-keyboard-response","465","2202681","0.0-15.0-0.3","l","COGS219_2020_30","Sounds/rooster_label.wav","null","2","","","","","","",""
"null","","html-keyboard-response","466","2203680","0.0-15.0-1.3","l","COGS219_2020_30","<p style=""font-size: 48px;"">+</p>","null","2","","","","","","",""
"463.7499999953434","","image-keyboard-response","467","2204145","0.0-15.0-2.3","l","COGS219_2020_30","Images/frog_3.png","65","2","1582848729910","non-match","frog","rooster","label","test","true"
"null","","audio-keyboard-response","468","2206152","0.0-15.0-3.3","l","COGS219_2020_30","Sounds/correct.wav","null","2","","","","","","",""
"null","","audio-keyboard-response","469","2206861","0.0-15.0-0.4","l","COGS219_2020_30","Sounds/dog_sound.wav","null","2","","","","","","",""
"null","","html-keyboard-response","470","2207864","0.0-15.0-1.4","l","COGS219_2020_30","<p style=""font-size: 48px;"">+</p>","null","2","","","","","","",""
"664.2800000263378","","image-keyboard-response","471","2208529","0.0-15.0-2.4","l","COGS219_2020_30","Images/motorcycle_3.png","65","2","1582848734093","non-match","motorcycle","dog","sound","test","true"
"null","","audio-keyboard-response","472","2210537","0.0-15.0-3.4","l","COGS219_2020_30","Sounds/correct.wav","null","2","","","","","","",""
"null","","audio-keyboard-response","473","2211401","0.0-15.0-0.5","l","COGS219_2020_30","Sounds/frog_label.wav","null","2","","","","","","",""
"null","","html-keyboard-response","474","2212397","0.0-15.0-1.5","l","COGS219_2020_30","<p style=""font-size: 48px;"">+</p>","null","2","","","","","","",""
"546.9150000717491","","image-keyboard-response","475","2212945","0.0-15.0-2.5","l","COGS219_2020_30","Images/frog_1.png","76","2","1582848738626","match","frog","frog","label","test","true"
"null","","audio-keyboard-response","476","2214954","0.0-15.0-3.5","l","COGS219_2020_30","Sounds/correct.wav","null","2","","","","","","",""
"null","","audio-keyboard-response","477","2215541","0.0-15.0-0.6","l","COGS219_2020_30","Sounds/gun_label.wav","null","2","","","","","","",""
"null","","html-keyboard-response","478","2216531","0.0-15.0-1.6","l","COGS219_2020_30","<p style=""font-size: 48px;"">+</p>","null","2","","","","","","",""
"477.29499998968095","","image-keyboard-response","479","2217009","0.0-15.0-2.6","l","COGS219_2020_30","Images/motorcycle_2.png","65","2","1582848742760","non-match","motorcycle","gun","label","test","true"
"null","","audio-keyboard-response","480","2219017","0.0-15.0-3.6","l","COGS219_2020_30","Sounds/correct.wav","null","2","","","","","","",""
"null","","audio-keyboard-response","481","2220041","0.0-15.0-0.7","l","COGS219_2020_30","Sounds/cow_label.wav","null","2","","","","","","",""
"null","","html-keyboard-response","482","2221047","0.0-15.0-1.7","l","COGS219_2020_30","<p style=""font-size: 48px;"">+</p>","null","2","","","","","","",""
"520.4549999907613","","image-keyboard-response","483","2221569","0.0-15.0-2.7","l","COGS219_2020_30","Images/cow_orig.png","76","2","1582848747276","match","cow","cow","label","test","true"
"null","","audio-keyboard-response","484","2223585","0.0-15.0-3.7","l","COGS219_2020_30","Sounds/correct.wav","null","2","","","","","","",""
"null","","audio-keyboard-response","485","2224701","0.0-15.0-0.8","l","COGS219_2020_30","Sounds/motorcycle_sound.wav","null","2","","","","","","",""
"null","","html-keyboard-response","486","2225697","0.0-15.0-1.8","l","COGS219_2020_30","<p style=""font-size: 48px;"">+</p>","null","2","","","","","","",""
"735.080000013113","","image-keyboard-response","487","2226434","0.0-15.0-2.8","l","COGS219_2020_30","Images/gun_orig.png","65","2","1582848751927","non-match","gun","motorcycle","sound","test","true"
"null","","audio-keyboard-response","488","2228451","0.0-15.0-3.8","l","COGS219_2020_30","Sounds/correct.wav","null","2","","","","","","",""
"null","","audio-keyboard-response","489","2229101","0.0-15.0-0.9","l","COGS219_2020_30","Sounds/dog_label.wav","null","2","","","","","","",""
"null","","html-keyboard-response","490","2230097","0.0-15.0-1.9","l","COGS219_2020_30","<p style=""font-size: 48px;"">+</p>","null","2","","","","","","",""
"654.7349999891594","","image-keyboard-response","491","2230753","0.0-15.0-2.9","l","COGS219_2020_30","Images/dog_3.png","76","2","1582848756327","match","dog","dog","label","test","true"
"null","","audio-keyboard-response","492","2232765","0.0-15.0-3.9","l","COGS219_2020_30","Sounds/correct.wav","null","2","","","","","","",""
"null","","audio-keyboard-response","493","2234037","0.0-15.0-0.10","l","COGS219_2020_30","Sounds/train_label.wav","null","2","","","","","","",""
"null","","html-keyboard-response","494","2235043","0.0-15.0-1.10","l","COGS219_2020_30","<p style=""font-size: 48px;"">+</p>","null","2","","","","","","",""
"472.45499992277473","","image-keyboard-response","495","2235517","0.0-15.0-2.10","l","COGS219_2020_30","Images/cat_orig.png","65","2","1582848761272","non-match","cat","train","label","test","true"
"null","","audio-keyboard-response","496","2237532","0.0-15.0-3.10","l","COGS219_2020_30","Sounds/correct.wav","null","2","","","","","","",""
"null","","audio-keyboard-response","497","2238377","0.0-15.0-0.11","l","COGS219_2020_30","Sounds/cat_sound.wav","null","2","","","","","","",""
"null","","html-keyboard-response","498","2239376","0.0-15.0-1.11","l","COGS219_2020_30","<p style=""font-size: 48px;"">+</p>","null","2","","","","","","",""
"491.440000012517","","image-keyboard-response","499","2239869","0.0-15.0-2.11","l","COGS219_2020_30","Images/frog_orig.png","65","2","1582848765605","non-match","frog","cat","sound","test","true"
"null","","audio-keyboard-response","500","2241879","0.0-15.0-3.11","l","COGS219_2020_30","Sounds/correct.wav","null","2","","","","","","",""
"null","","audio-keyboard-response","501","2242517","0.0-15.0-0.12","l","COGS219_2020_30","Sounds/dog_label.wav","null","2","","","","","","",""
"null","","html-keyboard-response","502","2243510","0.0-15.0-1.12","l","COGS219_2020_30","<p style=""font-size: 48px;"">+</p>","null","2","","","","","","",""
"437.98000004608184","","image-keyboard-response","503","2243949","0.0-15.0-2.12","l","COGS219_2020_30","Images/dog_2.png","76","2","1582848769739","match","dog","dog","label","test","true"
"null","","audio-keyboard-response","504","2245963","0.0-15.0-3.12","l","COGS219_2020_30","Sounds/correct.wav","null","2","","","","","","",""
"null","","audio-keyboard-response","505","2246977","0.0-15.0-0.13","l","COGS219_2020_30","Sounds/cow_label.wav","null","2","","","","","","",""
"null","","html-keyboard-response","506","2247976","0.0-15.0-1.13","l","COGS219_2020_30","<p style=""font-size: 48px;"">+</p>","null","2","","","","","","",""
"435.120000038296","","image-keyboard-response","507","2248413","0.0-15.0-2.13","l","COGS219_2020_30","Images/car_3.png","65","2","1582848774205","non-match","car","cow","label","test","true"
"null","","audio-keyboard-response","508","2250416","0.0-15.0-3.13","l","COGS219_2020_30","Sounds/correct.wav","null","2","","","","","","",""
"null","","audio-keyboard-response","509","2251237","0.0-15.0-0.14","l","COGS219_2020_30","Sounds/cat_sound.wav","null","2","","","","","","",""
"null","","html-keyboard-response","510","2252226","0.0-15.0-1.14","l","COGS219_2020_30","<p style=""font-size: 48px;"">+</p>","null","2","","","","","","",""
"793.3750000083819","","image-keyboard-response","511","2253021","0.0-15.0-2.14","l","COGS219_2020_30","Images/cat_1.png","76","2","1582848778456","match","cat","cat","sound","test","true"
"null","","audio-keyboard-response","512","2255030","0.0-15.0-3.14","l","COGS219_2020_30","Sounds/correct.wav","null","2","","","","","","",""
"null","","audio-keyboard-response","513","2256177","0.0-15.0-0.15","l","COGS219_2020_30","Sounds/motorcycle_label.wav","null","2","","","","","","",""
"null","","html-keyboard-response","514","2257176","0.0-15.0-1.15","l","COGS219_2020_30","<p style=""font-size: 48px;"">+</p>","null","2","","","","","","",""
"451.2400000821799","","image-keyboard-response","515","2257629","0.0-15.0-2.15","l","COGS219_2020_30","Images/car_orig.png","65","2","1582848783406","non-match","car","motorcycle","label","test","true"
"null","","audio-keyboard-response","516","2259632","0.0-15.0-3.15","l","COGS219_2020_30","Sounds/correct.wav","null","2","","","","","","",""
"null","","audio-keyboard-response","517","2260617","0.0-15.0-0.16","l","COGS219_2020_30","Sounds/cow_label.wav","null","2","","","","","","",""
"null","","html-keyboard-response","518","2261610","0.0-15.0-1.16","l","COGS219_2020_30","<p style=""font-size: 48px;"">+</p>","null","2","","","","","","",""
"545.7249999744818","","image-keyboard-response","519","2262157","0.0-15.0-2.16","l","COGS219_2020_30","Images/rooster_1.png","65","2","1582848787839","non-match","rooster","cow","label","test","true"
"null","","audio-keyboard-response","520","2264167","0.0-15.0-3.16","l","COGS219_2020_30","Sounds/correct.wav","null","2","","","","","","",""
"null","","audio-keyboard-response","521","2264737","0.0-15.0-0.17","l","COGS219_2020_30","Sounds/gun_label.wav","null","2","","","","","","",""
"null","","html-keyboard-response","522","2265726","0.0-15.0-1.17","l","COGS219_2020_30","<p style=""font-size: 48px;"">+</p>","null","2","","","","","","",""
"477.3900000145659","","image-keyboard-response","523","2266205","0.0-15.0-2.17","l","COGS219_2020_30","Images/gun_2.png","76","2","1582848791956","match","gun","gun","label","test","true"
"null","","audio-keyboard-response","524","2268215","0.0-15.0-3.17","l","COGS219_2020_30","Sounds/correct.wav","null","2","","","","","","",""
"null","","audio-keyboard-response","525","2269057","0.0-15.0-0.18","l","COGS219_2020_30","Sounds/cat_label.wav","null","2","","","","","","",""
"null","","html-keyboard-response","526","2270060","0.0-15.0-1.18","l","COGS219_2020_30","<p style=""font-size: 48px;"">+</p>","null","2","","","","","","",""
"543.680000002496","","image-keyboard-response","527","2270605","0.0-15.0-2.18","l","COGS219_2020_30","Images/rooster_orig.png","65","2","1582848796289","non-match","rooster","cat","label","test","true"
"null","","audio-keyboard-response","528","2272613","0.0-15.0-3.18","l","COGS219_2020_30","Sounds/correct.wav","null","2","","","","","","",""
"null","","audio-keyboard-response","529","2273317","0.0-15.0-0.19","l","COGS219_2020_30","Sounds/dog_sound.wav","null","2","","","","","","",""
"null","","html-keyboard-response","530","2274310","0.0-15.0-1.19","l","COGS219_2020_30","<p style=""font-size: 48px;"">+</p>","null","2","","","","","","",""
"597.5099999923259","","image-keyboard-response","531","2274909","0.0-15.0-2.19","l","COGS219_2020_30","Images/frog_1.png","65","2","1582848800539","non-match","frog","dog","sound","test","true"
"null","","audio-keyboard-response","532","2276917","0.0-15.0-3.19","l","COGS219_2020_30","Sounds/correct.wav","null","2","","","","","","",""
"null","","audio-keyboard-response","533","2277837","0.0-15.0-0.20","l","COGS219_2020_30","Sounds/frog_sound.wav","null","2","","","","","","",""
"null","","html-keyboard-response","534","2278826","0.0-15.0-1.20","l","COGS219_2020_30","<p style=""font-size: 48px;"">+</p>","null","2","","","","","","",""
"641.7750000255182","","image-keyboard-response","535","2279469","0.0-15.0-2.20","l","COGS219_2020_30","Images/frog_3.png","76","2","1582848805056","match","frog","frog","sound","test","true"
"null","","audio-keyboard-response","536","2281479","0.0-15.0-3.20","l","COGS219_2020_30","Sounds/correct.wav","null","2","","","","","","",""
"null","","audio-keyboard-response","537","2282377","0.0-15.0-0.21","l","COGS219_2020_30","Sounds/frog_label.wav","null","2","","","","","","",""
"null","","html-keyboard-response","538","2283377","0.0-15.0-1.21","l","COGS219_2020_30","<p style=""font-size: 48px;"">+</p>","null","2","","","","","","",""
"507.05499993637204","","image-keyboard-response","539","2283885","0.0-15.0-2.21","l","COGS219_2020_30","Images/motorcycle_1.png","65","2","1582848809606","non-match","motorcycle","frog","label","test","true"
"null","","audio-keyboard-response","540","2285896","0.0-15.0-3.21","l","COGS219_2020_30","Sounds/correct.wav","null","2","","","","","","",""
"null","","audio-keyboard-response","541","2286977","0.0-15.0-0.22","l","COGS219_2020_30","Sounds/car_sound.wav","null","2","","","","","","",""
"null","","html-keyboard-response","542","2287977","0.0-15.0-1.22","l","COGS219_2020_30","<p style=""font-size: 48px;"">+</p>","null","2","","","","","","",""
"546.7100000241771","","image-keyboard-response","543","2288525","0.0-15.0-2.22","l","COGS219_2020_30","Images/whistle_orig.png","65","2","1582848814206","non-match","whistle","car","sound","test","true"
"null","","audio-keyboard-response","544","2290536","0.0-15.0-3.22","l","COGS219_2020_30","Sounds/correct.wav","null","2","","","","","","",""
"null","","audio-keyboard-response","545","2291617","0.0-15.0-0.23","l","COGS219_2020_30","Sounds/car_label.wav","null","2","","","","","","",""
"null","","html-keyboard-response","546","2292610","0.0-15.0-1.23","l","COGS219_2020_30","<p style=""font-size: 48px;"">+</p>","null","2","","","","","","",""
"505.60500007122755","","image-keyboard-response","547","2293117","0.0-15.0-2.23","l","COGS219_2020_30","Images/cow_1.png","65","2","1582848818839","non-match","cow","car","label","test","true"
"null","","audio-keyboard-response","548","2295130","0.0-15.0-3.23","l","COGS219_2020_30","Sounds/correct.wav","null","2","","","","","","",""
"null","","audio-keyboard-response","549","2296157","0.0-15.0-0.24","l","COGS219_2020_30","Sounds/cow_sound.wav","null","2","","","","","","",""
"null","","html-keyboard-response","550","2297160","0.0-15.0-1.24","l","COGS219_2020_30","<p style=""font-size: 48px;"">+</p>","null","2","","","","","","",""
"451.5000000828877","","image-keyboard-response","551","2297612","0.0-15.0-2.24","l","COGS219_2020_30","Images/motorcycle_cartoon.png","65","2","1582848823389","non-match","motorcycle","cow","sound","test","true"
"null","","audio-keyboard-response","552","2299616","0.0-15.0-3.24","l","COGS219_2020_30","Sounds/correct.wav","null","2","","","","","","",""
"null","","audio-keyboard-response","553","2300757","0.0-15.0-0.25","l","COGS219_2020_30","Sounds/motorcycle_label.wav","null","2","","","","","","",""
"null","","html-keyboard-response","554","2301760","0.0-15.0-1.25","l","COGS219_2020_30","<p style=""font-size: 48px;"">+</p>","null","2","","","","","","",""
"507.3250000132248","","image-keyboard-response","555","2302268","0.0-15.0-2.25","l","COGS219_2020_30","Images/motorcycle_orig.png","76","2","1582848827989","match","motorcycle","motorcycle","label","test","true"
"null","","audio-keyboard-response","556","2304280","0.0-15.0-3.25","l","COGS219_2020_30","Sounds/correct.wav","null","2","","","","","","",""
"null","","audio-keyboard-response","557","2305397","0.0-15.0-0.26","l","COGS219_2020_30","Sounds/motorcycle_sound.wav","null","2","","","","","","",""
"null","","html-keyboard-response","558","2306393","0.0-15.0-1.26","l","COGS219_2020_30","<p style=""font-size: 48px;"">+</p>","null","2","","","","","","",""
"802.0249999826774","","image-keyboard-response","559","2307197","0.0-15.0-2.26","l","COGS219_2020_30","Images/motorcycle_2.png","76","2","1582848832623","match","motorcycle","motorcycle","sound","test","true"
"null","","audio-keyboard-response","560","2309201","0.0-15.0-3.26","l","COGS219_2020_30","Sounds/correct.wav","null","2","","","","","","",""
"null","","audio-keyboard-response","561","2309897","0.0-15.0-0.27","l","COGS219_2020_30","Sounds/rooster_sound.wav","null","2","","","","","","",""
"null","","html-keyboard-response","562","2310893","0.0-15.0-1.27","l","COGS219_2020_30","<p style=""font-size: 48px;"">+</p>","null","2","","","","","","",""
"573.7149999476969","","image-keyboard-response","563","2311468","0.0-15.0-2.27","l","COGS219_2020_30","Images/rooster_1.png","76","2","1582848837123","match","rooster","rooster","sound","test","true"
"null","","audio-keyboard-response","564","2313479","0.0-15.0-3.27","l","COGS219_2020_30","Sounds/correct.wav","null","2","","","","","","",""
"null","","audio-keyboard-response","565","2314317","0.0-15.0-0.28","l","COGS219_2020_30","Sounds/cat_sound.wav","null","2","","","","","","",""
"null","","html-keyboard-response","566","2315310","0.0-15.0-1.28","l","COGS219_2020_30","<p style=""font-size: 48px;"">+</p>","null","2","","","","","","",""
"477.06999990623444","","image-keyboard-response","567","2315788","0.0-15.0-2.28","l","COGS219_2020_30","Images/cat_cartoon.png","76","2","1582848841539","match","cat","cat","sound","test","true"
"null","","audio-keyboard-response","568","2317796","0.0-15.0-3.28","l","COGS219_2020_30","Sounds/correct.wav","null","2","","","","","","",""
"null","","audio-keyboard-response","569","2318377","0.0-15.0-0.29","l","COGS219_2020_30","Sounds/gun_label.wav","null","2","","","","","","",""
"null","","html-keyboard-response","570","2319377","0.0-15.0-1.29","l","COGS219_2020_30","<p style=""font-size: 48px;"">+</p>","null","2","","","","","","",""
"426.5550000127405","","image-keyboard-response","571","2319805","0.0-15.0-2.29","l","COGS219_2020_30","Images/gun_1.png","76","2","1582848845606","match","gun","gun","label","test","true"
"null","","audio-keyboard-response","572","2321814","0.0-15.0-3.29","l","COGS219_2020_30","Sounds/correct.wav","null","2","","","","","","",""
"null","","audio-keyboard-response","573","2322397","0.0-15.0-0.30","l","COGS219_2020_30","Sounds/gun_sound.wav","null","2","","","","","","",""
"null","","html-keyboard-response","574","2323394","0.0-15.0-1.30","l","COGS219_2020_30","<p style=""font-size: 48px;"">+</p>","null","2","","","","","","",""
"601.6999999992549","","image-keyboard-response","575","2323996","0.0-15.0-2.30","l","COGS219_2020_30","Images/gun_cartoon.png","76","2","1582848849623","match","gun","gun","sound","test","true"
"null","","audio-keyboard-response","576","2326014","0.0-15.0-3.30","l","COGS219_2020_30","Sounds/correct.wav","null","2","","","","","","",""
"null","","audio-keyboard-response","577","2326557","0.0-15.0-0.31","l","COGS219_2020_30","Sounds/gun_sound.wav","null","2","","","","","","",""
"null","","html-keyboard-response","578","2327560","0.0-15.0-1.31","l","COGS219_2020_30","<p style=""font-size: 48px;"">+</p>","null","2","","","","","","",""
"418.9450000412762","","image-keyboard-response","579","2327980","0.0-15.0-2.31","l","COGS219_2020_30","Images/gun_3.png","76","2","1582848853789","match","gun","gun","sound","test","true"
"null","","audio-keyboard-response","580","2329997","0.0-15.0-3.31","l","COGS219_2020_30","Sounds/correct.wav","null","2","","","","","","",""
"null","","audio-keyboard-response","581","2331297","0.0-15.0-0.32","l","COGS219_2020_30","Sounds/train_sound.wav","null","2","","","","","","",""
"null","","html-keyboard-response","582","2332294","0.0-15.0-1.32","l","COGS219_2020_30","<p style=""font-size: 48px;"">+</p>","null","2","","","","","","",""
"533.7699999799952","","image-keyboard-response","583","2332829","0.0-15.0-2.32","l","COGS219_2020_30","Images/rooster_cartoon.png","65","2","1582848858523","non-match","rooster","train","sound","test","true"
"null","","audio-keyboard-response","584","2334834","0.0-15.0-3.32","l","COGS219_2020_30","Sounds/correct.wav","null","2","","","","","","",""
"null","","audio-keyboard-response","585","2335857","0.0-15.0-0.33","l","COGS219_2020_30","Sounds/cow_label.wav","null","2","","","","","","",""
"null","","html-keyboard-response","586","2336860","0.0-15.0-1.33","l","COGS219_2020_30","<p style=""font-size: 48px;"">+</p>","null","2","","","","","","",""
"654.9100000411272","","image-keyboard-response","587","2337516","0.0-15.0-2.33","l","COGS219_2020_30","Images/gun_2.png","65","2","1582848863090","non-match","gun","cow","label","test","true"
"null","","audio-keyboard-response","588","2339533","0.0-15.0-3.33","l","COGS219_2020_30","Sounds/correct.wav","null","2","","","","","","",""
"null","","audio-keyboard-response","589","2340197","0.0-15.0-0.34","l","COGS219_2020_30","Sounds/dog_label.wav","null","2","","","","","","",""
"null","","html-keyboard-response","590","2341194","0.0-15.0-1.34","l","COGS219_2020_30","<p style=""font-size: 48px;"">+</p>","null","2","","","","","","",""
"417.4549999879673","","image-keyboard-response","591","2341612","0.0-15.0-2.34","l","COGS219_2020_30","Images/dog_orig.png","76","2","1582848867423","match","dog","dog","label","test","true"
"null","","audio-keyboard-response","592","2343617","0.0-15.0-3.34","l","COGS219_2020_30","Sounds/correct.wav","null","2","","","","","","",""
"null","","audio-keyboard-response","593","2344317","0.0-15.0-0.35","l","COGS219_2020_30","Sounds/whistle_sound.wav","null","2","","","","","","",""
"null","","html-keyboard-response","594","2345310","0.0-15.0-1.35","l","COGS219_2020_30","<p style=""font-size: 48px;"">+</p>","null","2","","","","","","",""
"492.8999999538064","","image-keyboard-response","595","2345804","0.0-15.0-2.35","l","COGS219_2020_30","Images/whistle_orig.png","76","2","1582848871540","match","whistle","whistle","sound","test","true"
"null","","audio-keyboard-response","596","2347815","0.0-15.0-3.35","l","COGS219_2020_30","Sounds/correct.wav","null","2","","","","","","",""
"null","","audio-keyboard-response","597","2349097","0.0-15.0-0.36","l","COGS219_2020_30","Sounds/train_sound.wav","null","2","","","","","","",""
"null","","html-keyboard-response","598","2350094","0.0-15.0-1.36","l","COGS219_2020_30","<p style=""font-size: 48px;"">+</p>","null","2","","","","","","",""
"557.5599999865517","","image-keyboard-response","599","2350652","0.0-15.0-2.36","l","COGS219_2020_30","Images/gun_cartoon.png","65","2","1582848876323","non-match","gun","train","sound","test","true"
"null","","audio-keyboard-response","600","2352663","0.0-15.0-3.36","l","COGS219_2020_30","Sounds/correct.wav","null","2","","","","","","",""
"null","","audio-keyboard-response","601","2353936","0.0-15.0-0.37","l","COGS219_2020_30","Sounds/train_sound.wav","null","2","","","","","","",""
"null","","html-keyboard-response","602","2354927","0.0-15.0-1.37","l","COGS219_2020_30","<p style=""font-size: 48px;"">+</p>","null","2","","","","","","",""
"428.15000005066395","","image-keyboard-response","603","2355356","0.0-15.0-2.37","l","COGS219_2020_30","Images/train_orig.png","76","2","1582848881156","match","train","train","sound","test","true"
"null","","audio-keyboard-response","604","2357365","0.0-15.0-3.37","l","COGS219_2020_30","Sounds/correct.wav","null","2","","","","","","",""
