[{"rt":29961.04500000365,"responses":"{\"Q0\":\"COGS219_2020_08\"}","trial_type":"survey-text","trial_index":0,"time_elapsed":30014,"internal_node_id":"0.0-0.0","match_key":"l","participant_id":"COGS219_2020_08"},{"rt":36556.305000092834,"stimulus":"<p>Use KEYBOARD 1 (match RIGHT)</p><p>Press MATCH to continue.</p>","key_press":76,"trial_type":"html-keyboard-response","trial_index":1,"time_elapsed":66572,"internal_node_id":"0.0-1.0","match_key":"l","participant_id":"COGS219_2020_08"},{"rt":2606001.845000079,"stimulus":"<p>Welcome to the experiment.</p>","key_press":32,"trial_type":"html-keyboard-response","trial_index":2,"time_elapsed":2672250,"internal_node_id":"0.0-2.0","match_key":"l","participant_id":"COGS219_2020_08"},{"rt":16536.525000003166,"stimulus":"<p>Thank you for agreeing to participate in this study.</p><p>If during any part of the procedure you must stop for any reason, please inform the researcher that you do not wish to continue.</p>","key_press":32,"trial_type":"html-keyboard-response","trial_index":3,"time_elapsed":2688792,"internal_node_id":"0.0-3.0","match_key":"l","participant_id":"COGS219_2020_08"},{"rt":20350.590000045486,"stimulus":"<p>In this experiment, you will hear various words or sounds and see pictures of various animals and objects.</p><p>Most of the images will be of common everyday objects, such as cars, cats, cows, firearms, frogs, chickens, whistles, trains, motorcycles, and dogs.</p><p>Some of the images will be real-life stills, while others will be cartoons.</p>","key_press":32,"trial_type":"html-keyboard-response","trial_index":4,"time_elapsed":2709144,"internal_node_id":"0.0-4.0","match_key":"l","participant_id":"COGS219_2020_08"},{"rt":16639.30999999866,"stimulus":"<p>Sometimes, the word/sound will match the picture, for example you'll hear a meowing sound and see a cat.</p><p>Other times, the picture will not match the sound or word.</p><p>Your task is to decide as quickly as possible if the word/sound matches the picture or not. </p>","key_press":32,"trial_type":"html-keyboard-response","trial_index":5,"time_elapsed":2725784,"internal_node_id":"0.0-5.0","match_key":"l","participant_id":"COGS219_2020_08"},{"rt":17134.42999997642,"stimulus":"<p>For example, if you hear the word \"cat\" or hear a meowing sound, and then see a picture of a cat, you should press the MATCH key.</p><p> If the sound and image do not match, press the NOT-MATCH key to indicate that there is not a match.</p>","key_press":32,"trial_type":"html-keyboard-response","trial_index":6,"time_elapsed":2742914,"internal_node_id":"0.0-6.0","match_key":"l","participant_id":"COGS219_2020_08"},{"rt":12607.099999906495,"stimulus":"<p>If you make a mistake, you will hear a buzzing sound instead of a more pleasant sound.</p><p> Try to respond as quickly as possible, while making as few errors as possible. If you are making mistakes, you are probably rushing.</p>","key_press":32,"trial_type":"html-keyboard-response","trial_index":7,"time_elapsed":2755522,"internal_node_id":"0.0-7.0","match_key":"l","participant_id":"COGS219_2020_08"},{"rt":11887.26999994833,"stimulus":"<p>Please try to not move or blink your eyes during the presentation of the images. You can move and blink between images.</p><p>During the experiment there will be some breaks during which you can rest your eyes.</p>","key_press":32,"trial_type":"html-keyboard-response","trial_index":8,"time_elapsed":2767410,"internal_node_id":"0.0-8.0","match_key":"l","participant_id":"COGS219_2020_08"},{"rt":23166.80499992799,"stimulus":"<p>We will begin with 10 practice trials. Please let the experimenter know if you have any questions.</p>","key_press":32,"trial_type":"html-keyboard-response","trial_index":9,"time_elapsed":2790578,"internal_node_id":"0.0-9.0","match_key":"l","participant_id":"COGS219_2020_08"},{"rt":null,"stimulus":"Sounds/cow_sound.wav","key_press":null,"block":0,"trial_type":"audio-keyboard-response","trial_index":10,"time_elapsed":2792049,"internal_node_id":"0.0-10.0-0.0","match_key":"l","participant_id":"COGS219_2020_08"},{"rt":null,"stimulus":"<p style=\"font-size: 48px;\">+</p>","key_press":null,"block":0,"trial_type":"html-keyboard-response","trial_index":11,"time_elapsed":2793038,"internal_node_id":"0.0-10.0-1.0","match_key":"l","participant_id":"COGS219_2020_08"},{"rt":1185.8249999349937,"stimulus":"Images/rooster_orig.png","key_press":65,"stim_onset":1581547991975,"block":0,"match_type":"non-match","image_category":"rooster","sound_category":"cow","audio_type":"sound","phase":"practice","trial_type":"image-keyboard-response","trial_index":12,"time_elapsed":2794226,"internal_node_id":"0.0-10.0-2.0","match_key":"l","participant_id":"COGS219_2020_08","correct":true},{"rt":null,"stimulus":"Sounds/correct.wav","key_press":null,"block":0,"trial_type":"audio-keyboard-response","trial_index":13,"time_elapsed":2796231,"internal_node_id":"0.0-10.0-3.0","match_key":"l","participant_id":"COGS219_2020_08"},{"rt":null,"stimulus":"Sounds/dog_label.wav","key_press":null,"block":0,"trial_type":"audio-keyboard-response","trial_index":14,"time_elapsed":2796889,"internal_node_id":"0.0-10.0-0.1","match_key":"l","participant_id":"COGS219_2020_08"},{"rt":null,"stimulus":"<p style=\"font-size: 48px;\">+</p>","key_press":null,"block":0,"trial_type":"html-keyboard-response","trial_index":15,"time_elapsed":2797888,"internal_node_id":"0.0-10.0-1.1","match_key":"l","participant_id":"COGS219_2020_08"},{"rt":704.5049999142066,"stimulus":"Images/frog_1.png","key_press":65,"stim_onset":1581547996824,"block":0,"match_type":"non-match","image_category":"frog","sound_category":"dog","audio_type":"label","phase":"practice","trial_type":"image-keyboard-response","trial_index":16,"time_elapsed":2798594,"internal_node_id":"0.0-10.0-2.1","match_key":"l","participant_id":"COGS219_2020_08","correct":true},{"rt":null,"stimulus":"Sounds/correct.wav","key_press":null,"block":0,"trial_type":"audio-keyboard-response","trial_index":17,"time_elapsed":2800600,"internal_node_id":"0.0-10.0-3.1","match_key":"l","participant_id":"COGS219_2020_08"},{"rt":null,"stimulus":"Sounds/rooster_sound.wav","key_press":null,"block":0,"trial_type":"audio-keyboard-response","trial_index":18,"time_elapsed":2801309,"internal_node_id":"0.0-10.0-0.2","match_key":"l","participant_id":"COGS219_2020_08"},{"rt":null,"stimulus":"<p style=\"font-size: 48px;\">+</p>","key_press":null,"block":0,"trial_type":"html-keyboard-response","trial_index":19,"time_elapsed":2802305,"internal_node_id":"0.0-10.0-1.2","match_key":"l","participant_id":"COGS219_2020_08"},{"rt":1087.870000046678,"stimulus":"Images/rooster_2.png","key_press":76,"stim_onset":1581548001241,"block":0,"match_type":"match","image_category":"rooster","sound_category":"rooster","audio_type":"sound","phase":"practice","trial_type":"image-keyboard-response","trial_index":20,"time_elapsed":2803401,"internal_node_id":"0.0-10.0-2.2","match_key":"l","participant_id":"COGS219_2020_08","correct":true},{"rt":null,"stimulus":"Sounds/correct.wav","key_press":null,"block":0,"trial_type":"audio-keyboard-response","trial_index":21,"time_elapsed":2805413,"internal_node_id":"0.0-10.0-3.2","match_key":"l","participant_id":"COGS219_2020_08"},{"rt":null,"stimulus":"Sounds/gun_sound.wav","key_press":null,"block":0,"trial_type":"audio-keyboard-response","trial_index":22,"time_elapsed":2805995,"internal_node_id":"0.0-10.0-0.3","match_key":"l","participant_id":"COGS219_2020_08"},{"rt":null,"stimulus":"<p style=\"font-size: 48px;\">+</p>","key_press":null,"block":0,"trial_type":"html-keyboard-response","trial_index":23,"time_elapsed":2806995,"internal_node_id":"0.0-10.0-1.3","match_key":"l","participant_id":"COGS219_2020_08"},{"rt":788.4400000330061,"stimulus":"Images/gun_orig.png","key_press":76,"stim_onset":1581548005931,"block":0,"match_type":"match","image_category":"gun","sound_category":"gun","audio_type":"sound","phase":"practice","trial_type":"image-keyboard-response","trial_index":24,"time_elapsed":2807785,"internal_node_id":"0.0-10.0-2.3","match_key":"l","participant_id":"COGS219_2020_08","correct":true},{"rt":null,"stimulus":"Sounds/correct.wav","key_press":null,"block":0,"trial_type":"audio-keyboard-response","trial_index":25,"time_elapsed":2809800,"internal_node_id":"0.0-10.0-3.3","match_key":"l","participant_id":"COGS219_2020_08"},{"rt":null,"stimulus":"Sounds/car_sound.wav","key_press":null,"block":0,"trial_type":"audio-keyboard-response","trial_index":26,"time_elapsed":2810876,"internal_node_id":"0.0-10.0-0.4","match_key":"l","participant_id":"COGS219_2020_08"},{"rt":null,"stimulus":"<p style=\"font-size: 48px;\">+</p>","key_press":null,"block":0,"trial_type":"html-keyboard-response","trial_index":27,"time_elapsed":2811878,"internal_node_id":"0.0-10.0-1.4","match_key":"l","participant_id":"COGS219_2020_08"},{"rt":528.9699999848381,"stimulus":"Images/whistle_2.png","key_press":65,"stim_onset":1581548010815,"block":0,"match_type":"non-match","image_category":"whistle","sound_category":"car","audio_type":"sound","phase":"practice","trial_type":"image-keyboard-response","trial_index":28,"time_elapsed":2812409,"internal_node_id":"0.0-10.0-2.4","match_key":"l","participant_id":"COGS219_2020_08","correct":true},{"rt":null,"stimulus":"Sounds/correct.wav","key_press":null,"block":0,"trial_type":"audio-keyboard-response","trial_index":29,"time_elapsed":2814422,"internal_node_id":"0.0-10.0-3.4","match_key":"l","participant_id":"COGS219_2020_08"},{"rt":null,"stimulus":"Sounds/gun_label.wav","key_press":null,"block":0,"trial_type":"audio-keyboard-response","trial_index":30,"time_elapsed":2814996,"internal_node_id":"0.0-10.0-0.5","match_key":"l","participant_id":"COGS219_2020_08"},{"rt":null,"stimulus":"<p style=\"font-size: 48px;\">+</p>","key_press":null,"block":0,"trial_type":"html-keyboard-response","trial_index":31,"time_elapsed":2815995,"internal_node_id":"0.0-10.0-1.5","match_key":"l","participant_id":"COGS219_2020_08"},{"rt":556.5749999368563,"stimulus":"Images/gun_1.png","key_press":76,"stim_onset":1581548014931,"block":0,"match_type":"match","image_category":"gun","sound_category":"gun","audio_type":"label","phase":"practice","trial_type":"image-keyboard-response","trial_index":32,"time_elapsed":2816553,"internal_node_id":"0.0-10.0-2.5","match_key":"l","participant_id":"COGS219_2020_08","correct":true},{"rt":null,"stimulus":"Sounds/correct.wav","key_press":null,"block":0,"trial_type":"audio-keyboard-response","trial_index":33,"time_elapsed":2818567,"internal_node_id":"0.0-10.0-3.5","match_key":"l","participant_id":"COGS219_2020_08"},{"rt":null,"stimulus":"Sounds/cat_label.wav","key_press":null,"block":0,"trial_type":"audio-keyboard-response","trial_index":34,"time_elapsed":2819395,"internal_node_id":"0.0-10.0-0.6","match_key":"l","participant_id":"COGS219_2020_08"},{"rt":null,"stimulus":"<p style=\"font-size: 48px;\">+</p>","key_press":null,"block":0,"trial_type":"html-keyboard-response","trial_index":35,"time_elapsed":2820395,"internal_node_id":"0.0-10.0-1.6","match_key":"l","participant_id":"COGS219_2020_08"},{"rt":492.41999990772456,"stimulus":"Images/frog_orig.png","key_press":65,"stim_onset":1581548019331,"block":0,"match_type":"non-match","image_category":"frog","sound_category":"cat","audio_type":"label","phase":"practice","trial_type":"image-keyboard-response","trial_index":36,"time_elapsed":2820889,"internal_node_id":"0.0-10.0-2.6","match_key":"l","participant_id":"COGS219_2020_08","correct":true},{"rt":null,"stimulus":"Sounds/correct.wav","key_press":null,"block":0,"trial_type":"audio-keyboard-response","trial_index":37,"time_elapsed":2822899,"internal_node_id":"0.0-10.0-3.6","match_key":"l","participant_id":"COGS219_2020_08"},{"rt":null,"stimulus":"Sounds/cow_label.wav","key_press":null,"block":0,"trial_type":"audio-keyboard-response","trial_index":38,"time_elapsed":2823915,"internal_node_id":"0.0-10.0-0.7","match_key":"l","participant_id":"COGS219_2020_08"},{"rt":null,"stimulus":"<p style=\"font-size: 48px;\">+</p>","key_press":null,"block":0,"trial_type":"html-keyboard-response","trial_index":39,"time_elapsed":2824912,"internal_node_id":"0.0-10.0-1.7","match_key":"l","participant_id":"COGS219_2020_08"},{"rt":599.4099999079481,"stimulus":"Images/cow_1.png","key_press":76,"stim_onset":1581548023848,"block":0,"match_type":"match","image_category":"cow","sound_category":"cow","audio_type":"label","phase":"practice","trial_type":"image-keyboard-response","trial_index":40,"time_elapsed":2825513,"internal_node_id":"0.0-10.0-2.7","match_key":"l","participant_id":"COGS219_2020_08","correct":true},{"rt":null,"stimulus":"Sounds/correct.wav","key_press":null,"block":0,"trial_type":"audio-keyboard-response","trial_index":41,"time_elapsed":2827517,"internal_node_id":"0.0-10.0-3.7","match_key":"l","participant_id":"COGS219_2020_08"},{"rt":null,"stimulus":"Sounds/car_sound.wav","key_press":null,"block":0,"trial_type":"audio-keyboard-response","trial_index":42,"time_elapsed":2828576,"internal_node_id":"0.0-10.0-0.8","match_key":"l","participant_id":"COGS219_2020_08"},{"rt":null,"stimulus":"<p style=\"font-size: 48px;\">+</p>","key_press":null,"block":0,"trial_type":"html-keyboard-response","trial_index":43,"time_elapsed":2829579,"internal_node_id":"0.0-10.0-1.8","match_key":"l","participant_id":"COGS219_2020_08"},{"rt":749.0250000264496,"stimulus":"Images/cow_2.png","key_press":76,"stim_onset":1581548028515,"block":0,"match_type":"non-match","image_category":"cow","sound_category":"car","audio_type":"sound","phase":"practice","trial_type":"image-keyboard-response","trial_index":44,"time_elapsed":2830329,"internal_node_id":"0.0-10.0-2.8","match_key":"l","participant_id":"COGS219_2020_08","correct":false},{"rt":null,"stimulus":"Sounds/incorrect.wav","key_press":null,"block":0,"trial_type":"audio-keyboard-response","trial_index":45,"time_elapsed":2832336,"internal_node_id":"0.0-10.0-3.8","match_key":"l","participant_id":"COGS219_2020_08"},{"rt":null,"stimulus":"Sounds/car_label.wav","key_press":null,"block":0,"trial_type":"audio-keyboard-response","trial_index":46,"time_elapsed":2833416,"internal_node_id":"0.0-10.0-0.9","match_key":"l","participant_id":"COGS219_2020_08"},{"rt":null,"stimulus":"<p style=\"font-size: 48px;\">+</p>","key_press":null,"block":0,"trial_type":"html-keyboard-response","trial_index":47,"time_elapsed":2834412,"internal_node_id":"0.0-10.0-1.9","match_key":"l","participant_id":"COGS219_2020_08"},{"rt":491.38000002130866,"stimulus":"Images/car_1.png","key_press":76,"stim_onset":1581548033348,"block":0,"match_type":"match","image_category":"car","sound_category":"car","audio_type":"label","phase":"practice","trial_type":"image-keyboard-response","trial_index":48,"time_elapsed":2834905,"internal_node_id":"0.0-10.0-2.9","match_key":"l","participant_id":"COGS219_2020_08","correct":true},{"rt":null,"stimulus":"Sounds/correct.wav","key_press":null,"block":0,"trial_type":"audio-keyboard-response","trial_index":49,"time_elapsed":2836922,"internal_node_id":"0.0-10.0-3.9","match_key":"l","participant_id":"COGS219_2020_08"},{"rt":25854.109999956563,"stimulus":"<p>The rest of the experiment is divided into five blocks with 100 trials in each block. It will take about 45 minutes to complete.</p><p>The experimenter will be in the outer room and you can communicate with them through the monitor if you have any questions or wish to stop the experiment.</p>","key_press":32,"trial_type":"html-keyboard-response","trial_index":50,"time_elapsed":2862777,"internal_node_id":"0.0-11.0","match_key":"l","participant_id":"COGS219_2020_08"},{"rt":4654.5449999393895,"stimulus":"<p>Remember, please try not to move or blink your eyes during the presentation of the images. </p><p>At the end of the experiment, we will show you your scores on the task so you can see how you did.</p><p>The experiment will start on the next screen.</p>","key_press":32,"trial_type":"html-keyboard-response","trial_index":51,"time_elapsed":2867424,"internal_node_id":"0.0-12.0","match_key":"l","participant_id":"COGS219_2020_08"},{"rt":null,"stimulus":"Sounds/dog_sound.wav","key_press":null,"block":1,"trial_type":"audio-keyboard-response","trial_index":52,"time_elapsed":2870175,"internal_node_id":"0.0-13.0-0.0","match_key":"l","participant_id":"COGS219_2020_08"},{"rt":null,"stimulus":"<p style=\"font-size: 48px;\">+</p>","key_press":null,"block":1,"trial_type":"html-keyboard-response","trial_index":53,"time_elapsed":2871170,"internal_node_id":"0.0-13.0-1.0","match_key":"l","participant_id":"COGS219_2020_08"},{"rt":524.3999999947846,"stimulus":"Images/dog_3.png","key_press":76,"stim_onset":1581548070106,"block":1,"match_type":"match","image_category":"dog","sound_category":"dog","audio_type":"sound","phase":"test","trial_type":"image-keyboard-response","trial_index":54,"time_elapsed":2871695,"internal_node_id":"0.0-13.0-2.0","match_key":"l","participant_id":"COGS219_2020_08","correct":true},{"rt":null,"stimulus":"Sounds/correct.wav","key_press":null,"block":1,"trial_type":"audio-keyboard-response","trial_index":55,"time_elapsed":2873712,"internal_node_id":"0.0-13.0-3.0","match_key":"l","participant_id":"COGS219_2020_08"},{"rt":null,"stimulus":"Sounds/cat_label.wav","key_press":null,"block":1,"trial_type":"audio-keyboard-response","trial_index":56,"time_elapsed":2874556,"internal_node_id":"0.0-13.0-0.1","match_key":"l","participant_id":"COGS219_2020_08"},{"rt":null,"stimulus":"<p style=\"font-size: 48px;\">+</p>","key_press":null,"block":1,"trial_type":"html-keyboard-response","trial_index":57,"time_elapsed":2875553,"internal_node_id":"0.0-13.0-1.1","match_key":"l","participant_id":"COGS219_2020_08"},{"rt":525.3250000532717,"stimulus":"Images/train_3.png","key_press":65,"stim_onset":1581548074489,"block":1,"match_type":"non-match","image_category":"train","sound_category":"cat","audio_type":"label","phase":"test","trial_type":"image-keyboard-response","trial_index":58,"time_elapsed":2876080,"internal_node_id":"0.0-13.0-2.1","match_key":"l","participant_id":"COGS219_2020_08","correct":true},{"rt":null,"stimulus":"Sounds/correct.wav","key_press":null,"block":1,"trial_type":"audio-keyboard-response","trial_index":59,"time_elapsed":2878084,"internal_node_id":"0.0-13.0-3.1","match_key":"l","participant_id":"COGS219_2020_08"},{"rt":null,"stimulus":"Sounds/motorcycle_sound.wav","key_press":null,"block":1,"trial_type":"audio-keyboard-response","trial_index":60,"time_elapsed":2879195,"internal_node_id":"0.0-13.0-0.2","match_key":"l","participant_id":"COGS219_2020_08"},{"rt":null,"stimulus":"<p style=\"font-size: 48px;\">+</p>","key_press":null,"block":1,"trial_type":"html-keyboard-response","trial_index":61,"time_elapsed":2880187,"internal_node_id":"0.0-13.0-1.2","match_key":"l","participant_id":"COGS219_2020_08"},{"rt":899.7599999420345,"stimulus":"Images/train_1.png","key_press":65,"stim_onset":1581548079123,"block":1,"match_type":"non-match","image_category":"train","sound_category":"motorcycle","audio_type":"sound","phase":"test","trial_type":"image-keyboard-response","trial_index":62,"time_elapsed":2881087,"internal_node_id":"0.0-13.0-2.2","match_key":"l","participant_id":"COGS219_2020_08","correct":true},{"rt":null,"stimulus":"Sounds/correct.wav","key_press":null,"block":1,"trial_type":"audio-keyboard-response","trial_index":63,"time_elapsed":2883101,"internal_node_id":"0.0-13.0-3.2","match_key":"l","participant_id":"COGS219_2020_08"},{"rt":null,"stimulus":"Sounds/rooster_sound.wav","key_press":null,"block":1,"trial_type":"audio-keyboard-response","trial_index":64,"time_elapsed":2883795,"internal_node_id":"0.0-13.0-0.3","match_key":"l","participant_id":"COGS219_2020_08"},{"rt":null,"stimulus":"<p style=\"font-size: 48px;\">+</p>","key_press":null,"block":1,"trial_type":"html-keyboard-response","trial_index":65,"time_elapsed":2884787,"internal_node_id":"0.0-13.0-1.3","match_key":"l","participant_id":"COGS219_2020_08"},{"rt":427.5500000221655,"stimulus":"Images/rooster_cartoon.png","key_press":76,"stim_onset":1581548083723,"block":1,"match_type":"match","image_category":"rooster","sound_category":"rooster","audio_type":"sound","phase":"test","trial_type":"image-keyboard-response","trial_index":66,"time_elapsed":2885215,"internal_node_id":"0.0-13.0-2.3","match_key":"l","participant_id":"COGS219_2020_08","correct":true},{"rt":null,"stimulus":"Sounds/correct.wav","key_press":null,"block":1,"trial_type":"audio-keyboard-response","trial_index":67,"time_elapsed":2887220,"internal_node_id":"0.0-13.0-3.3","match_key":"l","participant_id":"COGS219_2020_08"},{"rt":null,"stimulus":"Sounds/car_sound.wav","key_press":null,"block":1,"trial_type":"audio-keyboard-response","trial_index":68,"time_elapsed":2888295,"internal_node_id":"0.0-13.0-0.4","match_key":"l","participant_id":"COGS219_2020_08"},{"rt":null,"stimulus":"<p style=\"font-size: 48px;\">+</p>","key_press":null,"block":1,"trial_type":"html-keyboard-response","trial_index":69,"time_elapsed":2889303,"internal_node_id":"0.0-13.0-1.4","match_key":"l","participant_id":"COGS219_2020_08"},{"rt":551.0300000896677,"stimulus":"Images/rooster_3.png","key_press":65,"stim_onset":1581548088240,"block":1,"match_type":"non-match","image_category":"rooster","sound_category":"car","audio_type":"sound","phase":"test","trial_type":"image-keyboard-response","trial_index":70,"time_elapsed":2889855,"internal_node_id":"0.0-13.0-2.4","match_key":"l","participant_id":"COGS219_2020_08","correct":true},{"rt":null,"stimulus":"Sounds/correct.wav","key_press":null,"block":1,"trial_type":"audio-keyboard-response","trial_index":71,"time_elapsed":2891862,"internal_node_id":"0.0-13.0-3.4","match_key":"l","participant_id":"COGS219_2020_08"},{"rt":null,"stimulus":"Sounds/dog_sound.wav","key_press":null,"block":1,"trial_type":"audio-keyboard-response","trial_index":72,"time_elapsed":2892555,"internal_node_id":"0.0-13.0-0.5","match_key":"l","participant_id":"COGS219_2020_08"},{"rt":null,"stimulus":"<p style=\"font-size: 48px;\">+</p>","key_press":null,"block":1,"trial_type":"html-keyboard-response","trial_index":73,"time_elapsed":2893553,"internal_node_id":"0.0-13.0-1.5","match_key":"l","participant_id":"COGS219_2020_08"},{"rt":589.064999949187,"stimulus":"Images/gun_2.png","key_press":65,"stim_onset":1581548092490,"block":1,"match_type":"non-match","image_category":"gun","sound_category":"dog","audio_type":"sound","phase":"test","trial_type":"image-keyboard-response","trial_index":74,"time_elapsed":2894143,"internal_node_id":"0.0-13.0-2.5","match_key":"l","participant_id":"COGS219_2020_08","correct":true},{"rt":null,"stimulus":"Sounds/correct.wav","key_press":null,"block":1,"trial_type":"audio-keyboard-response","trial_index":75,"time_elapsed":2896158,"internal_node_id":"0.0-13.0-3.5","match_key":"l","participant_id":"COGS219_2020_08"},{"rt":null,"stimulus":"Sounds/train_label.wav","key_press":null,"block":1,"trial_type":"audio-keyboard-response","trial_index":76,"time_elapsed":2897435,"internal_node_id":"0.0-13.0-0.6","match_key":"l","participant_id":"COGS219_2020_08"},{"rt":null,"stimulus":"<p style=\"font-size: 48px;\">+</p>","key_press":null,"block":1,"trial_type":"html-keyboard-response","trial_index":77,"time_elapsed":2898437,"internal_node_id":"0.0-13.0-1.6","match_key":"l","participant_id":"COGS219_2020_08"},{"rt":537.8000000491738,"stimulus":"Images/motorcycle_2.png","key_press":65,"stim_onset":1581548097373,"block":1,"match_type":"non-match","image_category":"motorcycle","sound_category":"train","audio_type":"label","phase":"test","trial_type":"image-keyboard-response","trial_index":78,"time_elapsed":2898975,"internal_node_id":"0.0-13.0-2.6","match_key":"l","participant_id":"COGS219_2020_08","correct":true},{"rt":null,"stimulus":"Sounds/correct.wav","key_press":null,"block":1,"trial_type":"audio-keyboard-response","trial_index":79,"time_elapsed":2900978,"internal_node_id":"0.0-13.0-3.6","match_key":"l","participant_id":"COGS219_2020_08"},{"rt":null,"stimulus":"Sounds/car_label.wav","key_press":null,"block":1,"trial_type":"audio-keyboard-response","trial_index":80,"time_elapsed":2902055,"internal_node_id":"0.0-13.0-0.7","match_key":"l","participant_id":"COGS219_2020_08"},{"rt":null,"stimulus":"<p style=\"font-size: 48px;\">+</p>","key_press":null,"block":1,"trial_type":"html-keyboard-response","trial_index":81,"time_elapsed":2903054,"internal_node_id":"0.0-13.0-1.7","match_key":"l","participant_id":"COGS219_2020_08"},{"rt":656.9899999303743,"stimulus":"Images/car_3.png","key_press":76,"stim_onset":1581548101990,"block":1,"match_type":"match","image_category":"car","sound_category":"car","audio_type":"label","phase":"test","trial_type":"image-keyboard-response","trial_index":82,"time_elapsed":2903712,"internal_node_id":"0.0-13.0-2.7","match_key":"l","participant_id":"COGS219_2020_08","correct":true},{"rt":null,"stimulus":"Sounds/correct.wav","key_press":null,"block":1,"trial_type":"audio-keyboard-response","trial_index":83,"time_elapsed":2905721,"internal_node_id":"0.0-13.0-3.7","match_key":"l","participant_id":"COGS219_2020_08"},{"rt":null,"stimulus":"Sounds/frog_label.wav","key_press":null,"block":1,"trial_type":"audio-keyboard-response","trial_index":84,"time_elapsed":2906615,"internal_node_id":"0.0-13.0-0.8","match_key":"l","participant_id":"COGS219_2020_08"},{"rt":null,"stimulus":"<p style=\"font-size: 48px;\">+</p>","key_press":null,"block":1,"trial_type":"html-keyboard-response","trial_index":85,"time_elapsed":2907604,"internal_node_id":"0.0-13.0-1.8","match_key":"l","participant_id":"COGS219_2020_08"},{"rt":442.73000000976026,"stimulus":"Images/frog_cartoon.png","key_press":76,"stim_onset":1581548106540,"block":1,"match_type":"match","image_category":"frog","sound_category":"frog","audio_type":"label","phase":"test","trial_type":"image-keyboard-response","trial_index":86,"time_elapsed":2908047,"internal_node_id":"0.0-13.0-2.8","match_key":"l","participant_id":"COGS219_2020_08","correct":true},{"rt":null,"stimulus":"Sounds/correct.wav","key_press":null,"block":1,"trial_type":"audio-keyboard-response","trial_index":87,"time_elapsed":2910053,"internal_node_id":"0.0-13.0-3.8","match_key":"l","participant_id":"COGS219_2020_08"},{"rt":null,"stimulus":"Sounds/train_label.wav","key_press":null,"block":1,"trial_type":"audio-keyboard-response","trial_index":88,"time_elapsed":2911295,"internal_node_id":"0.0-13.0-0.9","match_key":"l","participant_id":"COGS219_2020_08"},{"rt":null,"stimulus":"<p style=\"font-size: 48px;\">+</p>","key_press":null,"block":1,"trial_type":"html-keyboard-response","trial_index":89,"time_elapsed":2912287,"internal_node_id":"0.0-13.0-1.9","match_key":"l","participant_id":"COGS219_2020_08"},{"rt":703.5350000951439,"stimulus":"Images/car_1.png","key_press":65,"stim_onset":1581548111223,"block":1,"match_type":"non-match","image_category":"car","sound_category":"train","audio_type":"label","phase":"test","trial_type":"image-keyboard-response","trial_index":90,"time_elapsed":2912991,"internal_node_id":"0.0-13.0-2.9","match_key":"l","participant_id":"COGS219_2020_08","correct":true},{"rt":null,"stimulus":"Sounds/correct.wav","key_press":null,"block":1,"trial_type":"audio-keyboard-response","trial_index":91,"time_elapsed":2915008,"internal_node_id":"0.0-13.0-3.9","match_key":"l","participant_id":"COGS219_2020_08"},{"rt":null,"stimulus":"Sounds/whistle_sound.wav","key_press":null,"block":1,"trial_type":"audio-keyboard-response","trial_index":92,"time_elapsed":2915715,"internal_node_id":"0.0-13.0-0.10","match_key":"l","participant_id":"COGS219_2020_08"},{"rt":null,"stimulus":"<p style=\"font-size: 48px;\">+</p>","key_press":null,"block":1,"trial_type":"html-keyboard-response","trial_index":93,"time_elapsed":2916704,"internal_node_id":"0.0-13.0-1.10","match_key":"l","participant_id":"COGS219_2020_08"},{"rt":558.8249999564141,"stimulus":"Images/whistle_orig.png","key_press":76,"stim_onset":1581548115640,"block":1,"match_type":"match","image_category":"whistle","sound_category":"whistle","audio_type":"sound","phase":"test","trial_type":"image-keyboard-response","trial_index":94,"time_elapsed":2917264,"internal_node_id":"0.0-13.0-2.10","match_key":"l","participant_id":"COGS219_2020_08","correct":true},{"rt":null,"stimulus":"Sounds/correct.wav","key_press":null,"block":1,"trial_type":"audio-keyboard-response","trial_index":95,"time_elapsed":2919276,"internal_node_id":"0.0-13.0-3.10","match_key":"l","participant_id":"COGS219_2020_08"},{"rt":null,"stimulus":"Sounds/cat_sound.wav","key_press":null,"block":1,"trial_type":"audio-keyboard-response","trial_index":96,"time_elapsed":2920115,"internal_node_id":"0.0-13.0-0.11","match_key":"l","participant_id":"COGS219_2020_08"},{"rt":null,"stimulus":"<p style=\"font-size: 48px;\">+</p>","key_press":null,"block":1,"trial_type":"html-keyboard-response","trial_index":97,"time_elapsed":2921104,"internal_node_id":"0.0-13.0-1.11","match_key":"l","participant_id":"COGS219_2020_08"},{"rt":590.4550000559539,"stimulus":"Images/cat_orig.png","key_press":76,"stim_onset":1581548120040,"block":1,"match_type":"match","image_category":"cat","sound_category":"cat","audio_type":"sound","phase":"test","trial_type":"image-keyboard-response","trial_index":98,"time_elapsed":2921695,"internal_node_id":"0.0-13.0-2.11","match_key":"l","participant_id":"COGS219_2020_08","correct":true},{"rt":null,"stimulus":"Sounds/correct.wav","key_press":null,"block":1,"trial_type":"audio-keyboard-response","trial_index":99,"time_elapsed":2923708,"internal_node_id":"0.0-13.0-3.11","match_key":"l","participant_id":"COGS219_2020_08"},{"rt":null,"stimulus":"Sounds/gun_label.wav","key_press":null,"block":1,"trial_type":"audio-keyboard-response","trial_index":100,"time_elapsed":2924295,"internal_node_id":"0.0-13.0-0.12","match_key":"l","participant_id":"COGS219_2020_08"},{"rt":null,"stimulus":"<p style=\"font-size: 48px;\">+</p>","key_press":null,"block":1,"trial_type":"html-keyboard-response","trial_index":101,"time_elapsed":2925287,"internal_node_id":"0.0-13.0-1.12","match_key":"l","participant_id":"COGS219_2020_08"},{"rt":407.08499995525926,"stimulus":"Images/gun_3.png","key_press":76,"stim_onset":1581548124223,"block":1,"match_type":"match","image_category":"gun","sound_category":"gun","audio_type":"label","phase":"test","trial_type":"image-keyboard-response","trial_index":102,"time_elapsed":2925695,"internal_node_id":"0.0-13.0-2.12","match_key":"l","participant_id":"COGS219_2020_08","correct":true},{"rt":null,"stimulus":"Sounds/correct.wav","key_press":null,"block":1,"trial_type":"audio-keyboard-response","trial_index":103,"time_elapsed":2927713,"internal_node_id":"0.0-13.0-3.12","match_key":"l","participant_id":"COGS219_2020_08"},{"rt":null,"stimulus":"Sounds/frog_label.wav","key_press":null,"block":1,"trial_type":"audio-keyboard-response","trial_index":104,"time_elapsed":2928602,"internal_node_id":"0.0-13.0-0.13","match_key":"l","participant_id":"COGS219_2020_08"},{"rt":null,"stimulus":"<p style=\"font-size: 48px;\">+</p>","key_press":null,"block":1,"trial_type":"html-keyboard-response","trial_index":105,"time_elapsed":2929595,"internal_node_id":"0.0-13.0-1.13","match_key":"l","participant_id":"COGS219_2020_08"},{"rt":747.4649999057874,"stimulus":"Images/frog_3.png","key_press":76,"stim_onset":1581548128531,"block":1,"match_type":"match","image_category":"frog","sound_category":"frog","audio_type":"label","phase":"test","trial_type":"image-keyboard-response","trial_index":106,"time_elapsed":2930343,"internal_node_id":"0.0-13.0-2.13","match_key":"l","participant_id":"COGS219_2020_08","correct":true},{"rt":null,"stimulus":"Sounds/correct.wav","key_press":null,"block":1,"trial_type":"audio-keyboard-response","trial_index":107,"time_elapsed":2932357,"internal_node_id":"0.0-13.0-3.13","match_key":"l","participant_id":"COGS219_2020_08"},{"rt":null,"stimulus":"Sounds/motorcycle_label.wav","key_press":null,"block":1,"trial_type":"audio-keyboard-response","trial_index":108,"time_elapsed":2933502,"internal_node_id":"0.0-13.0-0.14","match_key":"l","participant_id":"COGS219_2020_08"},{"rt":null,"stimulus":"<p style=\"font-size: 48px;\">+</p>","key_press":null,"block":1,"trial_type":"html-keyboard-response","trial_index":109,"time_elapsed":2934495,"internal_node_id":"0.0-13.0-1.14","match_key":"l","participant_id":"COGS219_2020_08"},{"rt":615.4749999986961,"stimulus":"Images/rooster_orig.png","key_press":65,"stim_onset":1581548133431,"block":1,"match_type":"non-match","image_category":"rooster","sound_category":"motorcycle","audio_type":"label","phase":"test","trial_type":"image-keyboard-response","trial_index":110,"time_elapsed":2935111,"internal_node_id":"0.0-13.0-2.14","match_key":"l","participant_id":"COGS219_2020_08","correct":true},{"rt":null,"stimulus":"Sounds/correct.wav","key_press":null,"block":1,"trial_type":"audio-keyboard-response","trial_index":111,"time_elapsed":2937117,"internal_node_id":"0.0-13.0-3.14","match_key":"l","participant_id":"COGS219_2020_08"},{"rt":null,"stimulus":"Sounds/motorcycle_label.wav","key_press":null,"block":1,"trial_type":"audio-keyboard-response","trial_index":112,"time_elapsed":2938222,"internal_node_id":"0.0-13.0-0.15","match_key":"l","participant_id":"COGS219_2020_08"},{"rt":null,"stimulus":"<p style=\"font-size: 48px;\">+</p>","key_press":null,"block":1,"trial_type":"html-keyboard-response","trial_index":113,"time_elapsed":2939228,"internal_node_id":"0.0-13.0-1.15","match_key":"l","participant_id":"COGS219_2020_08"},{"rt":681.4999999478459,"stimulus":"Images/car_3.png","key_press":65,"stim_onset":1581548138164,"block":1,"match_type":"non-match","image_category":"car","sound_category":"motorcycle","audio_type":"label","phase":"test","trial_type":"image-keyboard-response","trial_index":114,"time_elapsed":2939911,"internal_node_id":"0.0-13.0-2.15","match_key":"l","participant_id":"COGS219_2020_08","correct":true},{"rt":null,"stimulus":"Sounds/correct.wav","key_press":null,"block":1,"trial_type":"audio-keyboard-response","trial_index":115,"time_elapsed":2941925,"internal_node_id":"0.0-13.0-3.15","match_key":"l","participant_id":"COGS219_2020_08"},{"rt":null,"stimulus":"Sounds/train_label.wav","key_press":null,"block":1,"trial_type":"audio-keyboard-response","trial_index":116,"time_elapsed":2943202,"internal_node_id":"0.0-13.0-0.16","match_key":"l","participant_id":"COGS219_2020_08"},{"rt":null,"stimulus":"<p style=\"font-size: 48px;\">+</p>","key_press":null,"block":1,"trial_type":"html-keyboard-response","trial_index":117,"time_elapsed":2944195,"internal_node_id":"0.0-13.0-1.16","match_key":"l","participant_id":"COGS219_2020_08"},{"rt":691.179999965243,"stimulus":"Images/train_cartoon.png","key_press":76,"stim_onset":1581548143131,"block":1,"match_type":"match","image_category":"train","sound_category":"train","audio_type":"label","phase":"test","trial_type":"image-keyboard-response","trial_index":118,"time_elapsed":2944887,"internal_node_id":"0.0-13.0-2.16","match_key":"l","participant_id":"COGS219_2020_08","correct":true},{"rt":null,"stimulus":"Sounds/correct.wav","key_press":null,"block":1,"trial_type":"audio-keyboard-response","trial_index":119,"time_elapsed":2946891,"internal_node_id":"0.0-13.0-3.16","match_key":"l","participant_id":"COGS219_2020_08"},{"rt":null,"stimulus":"Sounds/rooster_sound.wav","key_press":null,"block":1,"trial_type":"audio-keyboard-response","trial_index":120,"time_elapsed":2947582,"internal_node_id":"0.0-13.0-0.17","match_key":"l","participant_id":"COGS219_2020_08"},{"rt":null,"stimulus":"<p style=\"font-size: 48px;\">+</p>","key_press":null,"block":1,"trial_type":"html-keyboard-response","trial_index":121,"time_elapsed":2948578,"internal_node_id":"0.0-13.0-1.17","match_key":"l","participant_id":"COGS219_2020_08"},{"rt":771.6449999716133,"stimulus":"Images/motorcycle_cartoon.png","key_press":65,"stim_onset":1581548147514,"block":1,"match_type":"non-match","image_category":"motorcycle","sound_category":"rooster","audio_type":"sound","phase":"test","trial_type":"image-keyboard-response","trial_index":122,"time_elapsed":2949351,"internal_node_id":"0.0-13.0-2.17","match_key":"l","participant_id":"COGS219_2020_08","correct":true},{"rt":null,"stimulus":"Sounds/correct.wav","key_press":null,"block":1,"trial_type":"audio-keyboard-response","trial_index":123,"time_elapsed":2951354,"internal_node_id":"0.0-13.0-3.17","match_key":"l","participant_id":"COGS219_2020_08"},{"rt":null,"stimulus":"Sounds/gun_sound.wav","key_press":null,"block":1,"trial_type":"audio-keyboard-response","trial_index":124,"time_elapsed":2951942,"internal_node_id":"0.0-13.0-0.18","match_key":"l","participant_id":"COGS219_2020_08"},{"rt":null,"stimulus":"<p style=\"font-size: 48px;\">+</p>","key_press":null,"block":1,"trial_type":"html-keyboard-response","trial_index":125,"time_elapsed":2952945,"internal_node_id":"0.0-13.0-1.18","match_key":"l","participant_id":"COGS219_2020_08"},{"rt":500.8800000650808,"stimulus":"Images/dog_2.png","key_press":65,"stim_onset":1581548151881,"block":1,"match_type":"non-match","image_category":"dog","sound_category":"gun","audio_type":"sound","phase":"test","trial_type":"image-keyboard-response","trial_index":126,"time_elapsed":2953447,"internal_node_id":"0.0-13.0-2.18","match_key":"l","participant_id":"COGS219_2020_08","correct":true},{"rt":null,"stimulus":"Sounds/correct.wav","key_press":null,"block":1,"trial_type":"audio-keyboard-response","trial_index":127,"time_elapsed":2955456,"internal_node_id":"0.0-13.0-3.18","match_key":"l","participant_id":"COGS219_2020_08"},{"rt":null,"stimulus":"Sounds/train_sound.wav","key_press":null,"block":1,"trial_type":"audio-keyboard-response","trial_index":128,"time_elapsed":2956762,"internal_node_id":"0.0-13.0-0.19","match_key":"l","participant_id":"COGS219_2020_08"},{"rt":null,"stimulus":"<p style=\"font-size: 48px;\">+</p>","key_press":null,"block":1,"trial_type":"html-keyboard-response","trial_index":129,"time_elapsed":2957762,"internal_node_id":"0.0-13.0-1.19","match_key":"l","participant_id":"COGS219_2020_08"},{"rt":451.70500001404434,"stimulus":"Images/gun_3.png","key_press":65,"stim_onset":1581548156698,"block":1,"match_type":"non-match","image_category":"gun","sound_category":"train","audio_type":"sound","phase":"test","trial_type":"image-keyboard-response","trial_index":130,"time_elapsed":2958215,"internal_node_id":"0.0-13.0-2.19","match_key":"l","participant_id":"COGS219_2020_08","correct":true},{"rt":null,"stimulus":"Sounds/correct.wav","key_press":null,"block":1,"trial_type":"audio-keyboard-response","trial_index":131,"time_elapsed":2960232,"internal_node_id":"0.0-13.0-3.19","match_key":"l","participant_id":"COGS219_2020_08"},{"rt":null,"stimulus":"Sounds/dog_sound.wav","key_press":null,"block":1,"trial_type":"audio-keyboard-response","trial_index":132,"time_elapsed":2960942,"internal_node_id":"0.0-13.0-0.20","match_key":"l","participant_id":"COGS219_2020_08"},{"rt":null,"stimulus":"<p style=\"font-size: 48px;\">+</p>","key_press":null,"block":1,"trial_type":"html-keyboard-response","trial_index":133,"time_elapsed":2961945,"internal_node_id":"0.0-13.0-1.20","match_key":"l","participant_id":"COGS219_2020_08"},{"rt":573.0650000041351,"stimulus":"Images/frog_2.png","key_press":65,"stim_onset":1581548160881,"block":1,"match_type":"non-match","image_category":"frog","sound_category":"dog","audio_type":"sound","phase":"test","trial_type":"image-keyboard-response","trial_index":134,"time_elapsed":2962519,"internal_node_id":"0.0-13.0-2.20","match_key":"l","participant_id":"COGS219_2020_08","correct":true},{"rt":null,"stimulus":"Sounds/correct.wav","key_press":null,"block":1,"trial_type":"audio-keyboard-response","trial_index":135,"time_elapsed":2964533,"internal_node_id":"0.0-13.0-3.20","match_key":"l","participant_id":"COGS219_2020_08"},{"rt":null,"stimulus":"Sounds/whistle_sound.wav","key_press":null,"block":1,"trial_type":"audio-keyboard-response","trial_index":136,"time_elapsed":2965222,"internal_node_id":"0.0-13.0-0.21","match_key":"l","participant_id":"COGS219_2020_08"},{"rt":null,"stimulus":"<p style=\"font-size: 48px;\">+</p>","key_press":null,"block":1,"trial_type":"html-keyboard-response","trial_index":137,"time_elapsed":2966212,"internal_node_id":"0.0-13.0-1.21","match_key":"l","participant_id":"COGS219_2020_08"},{"rt":529.880000045523,"stimulus":"Images/whistle_cartoon.png","key_press":76,"stim_onset":1581548165148,"block":1,"match_type":"match","image_category":"whistle","sound_category":"whistle","audio_type":"sound","phase":"test","trial_type":"image-keyboard-response","trial_index":138,"time_elapsed":2966743,"internal_node_id":"0.0-13.0-2.21","match_key":"l","participant_id":"COGS219_2020_08","correct":true},{"rt":null,"stimulus":"Sounds/correct.wav","key_press":null,"block":1,"trial_type":"audio-keyboard-response","trial_index":139,"time_elapsed":2968753,"internal_node_id":"0.0-13.0-3.21","match_key":"l","participant_id":"COGS219_2020_08"},{"rt":null,"stimulus":"Sounds/whistle_sound.wav","key_press":null,"block":1,"trial_type":"audio-keyboard-response","trial_index":140,"time_elapsed":2969422,"internal_node_id":"0.0-13.0-0.22","match_key":"l","participant_id":"COGS219_2020_08"},{"rt":null,"stimulus":"<p style=\"font-size: 48px;\">+</p>","key_press":null,"block":1,"trial_type":"html-keyboard-response","trial_index":141,"time_elapsed":2970429,"internal_node_id":"0.0-13.0-1.22","match_key":"l","participant_id":"COGS219_2020_08"},{"rt":585.3900000220165,"stimulus":"Images/motorcycle_3.png","key_press":65,"stim_onset":1581548169364,"block":1,"match_type":"non-match","image_category":"motorcycle","sound_category":"whistle","audio_type":"sound","phase":"test","trial_type":"image-keyboard-response","trial_index":142,"time_elapsed":2971015,"internal_node_id":"0.0-13.0-2.22","match_key":"l","participant_id":"COGS219_2020_08","correct":true},{"rt":null,"stimulus":"Sounds/correct.wav","key_press":null,"block":1,"trial_type":"audio-keyboard-response","trial_index":143,"time_elapsed":2973032,"internal_node_id":"0.0-13.0-3.22","match_key":"l","participant_id":"COGS219_2020_08"},{"rt":null,"stimulus":"Sounds/cow_sound.wav","key_press":null,"block":1,"trial_type":"audio-keyboard-response","trial_index":144,"time_elapsed":2974042,"internal_node_id":"0.0-13.0-0.23","match_key":"l","participant_id":"COGS219_2020_08"},{"rt":null,"stimulus":"<p style=\"font-size: 48px;\">+</p>","key_press":null,"block":1,"trial_type":"html-keyboard-response","trial_index":145,"time_elapsed":2975045,"internal_node_id":"0.0-13.0-1.23","match_key":"l","participant_id":"COGS219_2020_08"},{"rt":432.68999992869794,"stimulus":"Images/cow_2.png","key_press":76,"stim_onset":1581548173981,"block":1,"match_type":"match","image_category":"cow","sound_category":"cow","audio_type":"sound","phase":"test","trial_type":"image-keyboard-response","trial_index":146,"time_elapsed":2975479,"internal_node_id":"0.0-13.0-2.23","match_key":"l","participant_id":"COGS219_2020_08","correct":true},{"rt":null,"stimulus":"Sounds/correct.wav","key_press":null,"block":1,"trial_type":"audio-keyboard-response","trial_index":147,"time_elapsed":2977494,"internal_node_id":"0.0-13.0-3.23","match_key":"l","participant_id":"COGS219_2020_08"},{"rt":null,"stimulus":"Sounds/gun_label.wav","key_press":null,"block":1,"trial_type":"audio-keyboard-response","trial_index":148,"time_elapsed":2978062,"internal_node_id":"0.0-13.0-0.24","match_key":"l","participant_id":"COGS219_2020_08"},{"rt":null,"stimulus":"<p style=\"font-size: 48px;\">+</p>","key_press":null,"block":1,"trial_type":"html-keyboard-response","trial_index":149,"time_elapsed":2979062,"internal_node_id":"0.0-13.0-1.24","match_key":"l","participant_id":"COGS219_2020_08"},{"rt":464.10500002093613,"stimulus":"Images/car_cartoon.png","key_press":65,"stim_onset":1581548177998,"block":1,"match_type":"non-match","image_category":"car","sound_category":"gun","audio_type":"label","phase":"test","trial_type":"image-keyboard-response","trial_index":150,"time_elapsed":2979527,"internal_node_id":"0.0-13.0-2.24","match_key":"l","participant_id":"COGS219_2020_08","correct":true},{"rt":null,"stimulus":"Sounds/correct.wav","key_press":null,"block":1,"trial_type":"audio-keyboard-response","trial_index":151,"time_elapsed":2981543,"internal_node_id":"0.0-13.0-3.24","match_key":"l","participant_id":"COGS219_2020_08"},{"rt":null,"stimulus":"Sounds/gun_sound.wav","key_press":null,"block":1,"trial_type":"audio-keyboard-response","trial_index":152,"time_elapsed":2982122,"internal_node_id":"0.0-13.0-0.25","match_key":"l","participant_id":"COGS219_2020_08"},{"rt":null,"stimulus":"<p style=\"font-size: 48px;\">+</p>","key_press":null,"block":1,"trial_type":"html-keyboard-response","trial_index":153,"time_elapsed":2983112,"internal_node_id":"0.0-13.0-1.25","match_key":"l","participant_id":"COGS219_2020_08"},{"rt":654.2149999877438,"stimulus":"Images/train_cartoon.png","key_press":65,"stim_onset":1581548182048,"block":1,"match_type":"non-match","image_category":"train","sound_category":"gun","audio_type":"sound","phase":"test","trial_type":"image-keyboard-response","trial_index":154,"time_elapsed":2983767,"internal_node_id":"0.0-13.0-2.25","match_key":"l","participant_id":"COGS219_2020_08","correct":true},{"rt":null,"stimulus":"Sounds/correct.wav","key_press":null,"block":1,"trial_type":"audio-keyboard-response","trial_index":155,"time_elapsed":2985778,"internal_node_id":"0.0-13.0-3.25","match_key":"l","participant_id":"COGS219_2020_08"},{"rt":null,"stimulus":"Sounds/frog_label.wav","key_press":null,"block":1,"trial_type":"audio-keyboard-response","trial_index":156,"time_elapsed":2986682,"internal_node_id":"0.0-13.0-0.26","match_key":"l","participant_id":"COGS219_2020_08"},{"rt":null,"stimulus":"<p style=\"font-size: 48px;\">+</p>","key_press":null,"block":1,"trial_type":"html-keyboard-response","trial_index":157,"time_elapsed":2987679,"internal_node_id":"0.0-13.0-1.26","match_key":"l","participant_id":"COGS219_2020_08"},{"rt":839.2150000436231,"stimulus":"Images/frog_orig.png","key_press":76,"stim_onset":1581548186615,"block":1,"match_type":"match","image_category":"frog","sound_category":"frog","audio_type":"label","phase":"test","trial_type":"image-keyboard-response","trial_index":158,"time_elapsed":2988515,"internal_node_id":"0.0-13.0-2.26","match_key":"l","participant_id":"COGS219_2020_08","correct":true},{"rt":null,"stimulus":"Sounds/correct.wav","key_press":null,"block":1,"trial_type":"audio-keyboard-response","trial_index":159,"time_elapsed":2990528,"internal_node_id":"0.0-13.0-3.26","match_key":"l","participant_id":"COGS219_2020_08"},{"rt":null,"stimulus":"Sounds/train_sound.wav","key_press":null,"block":1,"trial_type":"audio-keyboard-response","trial_index":160,"time_elapsed":2991819,"internal_node_id":"0.0-13.0-0.27","match_key":"l","participant_id":"COGS219_2020_08"},{"rt":null,"stimulus":"<p style=\"font-size: 48px;\">+</p>","key_press":null,"block":1,"trial_type":"html-keyboard-response","trial_index":161,"time_elapsed":2992808,"internal_node_id":"0.0-13.0-1.27","match_key":"l","participant_id":"COGS219_2020_08"},{"rt":458.07500008959323,"stimulus":"Images/train_2.png","key_press":76,"stim_onset":1581548191744,"block":1,"match_type":"match","image_category":"train","sound_category":"train","audio_type":"sound","phase":"test","trial_type":"image-keyboard-response","trial_index":162,"time_elapsed":2993267,"internal_node_id":"0.0-13.0-2.27","match_key":"l","participant_id":"COGS219_2020_08","correct":true},{"rt":null,"stimulus":"Sounds/correct.wav","key_press":null,"block":1,"trial_type":"audio-keyboard-response","trial_index":163,"time_elapsed":2995273,"internal_node_id":"0.0-13.0-3.27","match_key":"l","participant_id":"COGS219_2020_08"},{"rt":null,"stimulus":"Sounds/motorcycle_sound.wav","key_press":null,"block":1,"trial_type":"audio-keyboard-response","trial_index":164,"time_elapsed":2996399,"internal_node_id":"0.0-13.0-0.28","match_key":"l","participant_id":"COGS219_2020_08"},{"rt":null,"stimulus":"<p style=\"font-size: 48px;\">+</p>","key_press":null,"block":1,"trial_type":"html-keyboard-response","trial_index":165,"time_elapsed":2997392,"internal_node_id":"0.0-13.0-1.28","match_key":"l","participant_id":"COGS219_2020_08"},{"rt":466.72000002581626,"stimulus":"Images/motorcycle_1.png","key_press":76,"stim_onset":1581548196328,"block":1,"match_type":"match","image_category":"motorcycle","sound_category":"motorcycle","audio_type":"sound","phase":"test","trial_type":"image-keyboard-response","trial_index":166,"time_elapsed":2997859,"internal_node_id":"0.0-13.0-2.28","match_key":"l","participant_id":"COGS219_2020_08","correct":true},{"rt":null,"stimulus":"Sounds/correct.wav","key_press":null,"block":1,"trial_type":"audio-keyboard-response","trial_index":167,"time_elapsed":2999865,"internal_node_id":"0.0-13.0-3.28","match_key":"l","participant_id":"COGS219_2020_08"},{"rt":null,"stimulus":"Sounds/whistle_sound.wav","key_press":null,"block":1,"trial_type":"audio-keyboard-response","trial_index":168,"time_elapsed":3000559,"internal_node_id":"0.0-13.0-0.29","match_key":"l","participant_id":"COGS219_2020_08"},{"rt":null,"stimulus":"<p style=\"font-size: 48px;\">+</p>","key_press":null,"block":1,"trial_type":"html-keyboard-response","trial_index":169,"time_elapsed":3001558,"internal_node_id":"0.0-13.0-1.29","match_key":"l","participant_id":"COGS219_2020_08"},{"rt":1099.8499999986961,"stimulus":"Images/whistle_1.png","key_press":76,"stim_onset":1581548200494,"block":1,"match_type":"match","image_category":"whistle","sound_category":"whistle","audio_type":"sound","phase":"test","trial_type":"image-keyboard-response","trial_index":170,"time_elapsed":3002659,"internal_node_id":"0.0-13.0-2.29","match_key":"l","participant_id":"COGS219_2020_08","correct":true},{"rt":null,"stimulus":"Sounds/correct.wav","key_press":null,"block":1,"trial_type":"audio-keyboard-response","trial_index":171,"time_elapsed":3004674,"internal_node_id":"0.0-13.0-3.29","match_key":"l","participant_id":"COGS219_2020_08"},{"rt":null,"stimulus":"Sounds/car_sound.wav","key_press":null,"block":1,"trial_type":"audio-keyboard-response","trial_index":172,"time_elapsed":3005759,"internal_node_id":"0.0-13.0-0.30","match_key":"l","participant_id":"COGS219_2020_08"},{"rt":null,"stimulus":"<p style=\"font-size: 48px;\">+</p>","key_press":null,"block":1,"trial_type":"html-keyboard-response","trial_index":173,"time_elapsed":3006759,"internal_node_id":"0.0-13.0-1.30","match_key":"l","participant_id":"COGS219_2020_08"},{"rt":491.65500001981854,"stimulus":"Images/car_2.png","key_press":76,"stim_onset":1581548205695,"block":1,"match_type":"match","image_category":"car","sound_category":"car","audio_type":"sound","phase":"test","trial_type":"image-keyboard-response","trial_index":174,"time_elapsed":3007251,"internal_node_id":"0.0-13.0-2.30","match_key":"l","participant_id":"COGS219_2020_08","correct":true},{"rt":null,"stimulus":"Sounds/correct.wav","key_press":null,"block":1,"trial_type":"audio-keyboard-response","trial_index":175,"time_elapsed":3009261,"internal_node_id":"0.0-13.0-3.30","match_key":"l","participant_id":"COGS219_2020_08"},{"rt":null,"stimulus":"Sounds/gun_sound.wav","key_press":null,"block":1,"trial_type":"audio-keyboard-response","trial_index":176,"time_elapsed":3009839,"internal_node_id":"0.0-13.0-0.31","match_key":"l","participant_id":"COGS219_2020_08"},{"rt":null,"stimulus":"<p style=\"font-size: 48px;\">+</p>","key_press":null,"block":1,"trial_type":"html-keyboard-response","trial_index":177,"time_elapsed":3010842,"internal_node_id":"0.0-13.0-1.31","match_key":"l","participant_id":"COGS219_2020_08"},{"rt":696.4849999640137,"stimulus":"Images/whistle_1.png","key_press":65,"stim_onset":1581548209778,"block":1,"match_type":"non-match","image_category":"whistle","sound_category":"gun","audio_type":"sound","phase":"test","trial_type":"image-keyboard-response","trial_index":178,"time_elapsed":3011539,"internal_node_id":"0.0-13.0-2.31","match_key":"l","participant_id":"COGS219_2020_08","correct":true},{"rt":null,"stimulus":"Sounds/correct.wav","key_press":null,"block":1,"trial_type":"audio-keyboard-response","trial_index":179,"time_elapsed":3013555,"internal_node_id":"0.0-13.0-3.31","match_key":"l","participant_id":"COGS219_2020_08"},{"rt":null,"stimulus":"Sounds/rooster_label.wav","key_press":null,"block":1,"trial_type":"audio-keyboard-response","trial_index":180,"time_elapsed":3014259,"internal_node_id":"0.0-13.0-0.32","match_key":"l","participant_id":"COGS219_2020_08"},{"rt":null,"stimulus":"<p style=\"font-size: 48px;\">+</p>","key_press":null,"block":1,"trial_type":"html-keyboard-response","trial_index":181,"time_elapsed":3015258,"internal_node_id":"0.0-13.0-1.32","match_key":"l","participant_id":"COGS219_2020_08"},{"rt":423.76999999396503,"stimulus":"Images/gun_1.png","key_press":65,"stim_onset":1581548214195,"block":1,"match_type":"non-match","image_category":"gun","sound_category":"rooster","audio_type":"label","phase":"test","trial_type":"image-keyboard-response","trial_index":182,"time_elapsed":3015683,"internal_node_id":"0.0-13.0-2.32","match_key":"l","participant_id":"COGS219_2020_08","correct":true},{"rt":null,"stimulus":"Sounds/correct.wav","key_press":null,"block":1,"trial_type":"audio-keyboard-response","trial_index":183,"time_elapsed":3017695,"internal_node_id":"0.0-13.0-3.32","match_key":"l","participant_id":"COGS219_2020_08"},{"rt":null,"stimulus":"Sounds/car_label.wav","key_press":null,"block":1,"trial_type":"audio-keyboard-response","trial_index":184,"time_elapsed":3018759,"internal_node_id":"0.0-13.0-0.33","match_key":"l","participant_id":"COGS219_2020_08"},{"rt":null,"stimulus":"<p style=\"font-size: 48px;\">+</p>","key_press":null,"block":1,"trial_type":"html-keyboard-response","trial_index":185,"time_elapsed":3019758,"internal_node_id":"0.0-13.0-1.33","match_key":"l","participant_id":"COGS219_2020_08"},{"rt":531.8899999838322,"stimulus":"Images/motorcycle_1.png","key_press":65,"stim_onset":1581548218695,"block":1,"match_type":"non-match","image_category":"motorcycle","sound_category":"car","audio_type":"label","phase":"test","trial_type":"image-keyboard-response","trial_index":186,"time_elapsed":3020291,"internal_node_id":"0.0-13.0-2.33","match_key":"l","participant_id":"COGS219_2020_08","correct":true},{"rt":null,"stimulus":"Sounds/correct.wav","key_press":null,"block":1,"trial_type":"audio-keyboard-response","trial_index":187,"time_elapsed":3022302,"internal_node_id":"0.0-13.0-3.33","match_key":"l","participant_id":"COGS219_2020_08"},{"rt":null,"stimulus":"Sounds/dog_label.wav","key_press":null,"block":1,"trial_type":"audio-keyboard-response","trial_index":188,"time_elapsed":3022959,"internal_node_id":"0.0-13.0-0.34","match_key":"l","participant_id":"COGS219_2020_08"},{"rt":null,"stimulus":"<p style=\"font-size: 48px;\">+</p>","key_press":null,"block":1,"trial_type":"html-keyboard-response","trial_index":189,"time_elapsed":3023958,"internal_node_id":"0.0-13.0-1.34","match_key":"l","participant_id":"COGS219_2020_08"},{"rt":506.4299999503419,"stimulus":"Images/dog_1.png","key_press":76,"stim_onset":1581548222895,"block":1,"match_type":"match","image_category":"dog","sound_category":"dog","audio_type":"label","phase":"test","trial_type":"image-keyboard-response","trial_index":190,"time_elapsed":3024467,"internal_node_id":"0.0-13.0-2.34","match_key":"l","participant_id":"COGS219_2020_08","correct":true},{"rt":null,"stimulus":"Sounds/correct.wav","key_press":null,"block":1,"trial_type":"audio-keyboard-response","trial_index":191,"time_elapsed":3026485,"internal_node_id":"0.0-13.0-3.34","match_key":"l","participant_id":"COGS219_2020_08"},{"rt":null,"stimulus":"Sounds/whistle_sound.wav","key_press":null,"block":1,"trial_type":"audio-keyboard-response","trial_index":192,"time_elapsed":3027179,"internal_node_id":"0.0-13.0-0.35","match_key":"l","participant_id":"COGS219_2020_08"},{"rt":null,"stimulus":"<p style=\"font-size: 48px;\">+</p>","key_press":null,"block":1,"trial_type":"html-keyboard-response","trial_index":193,"time_elapsed":3028175,"internal_node_id":"0.0-13.0-1.35","match_key":"l","participant_id":"COGS219_2020_08"},{"rt":594.8749999515712,"stimulus":"Images/gun_orig.png","key_press":65,"stim_onset":1581548227111,"block":1,"match_type":"non-match","image_category":"gun","sound_category":"whistle","audio_type":"sound","phase":"test","trial_type":"image-keyboard-response","trial_index":194,"time_elapsed":3028771,"internal_node_id":"0.0-13.0-2.35","match_key":"l","participant_id":"COGS219_2020_08","correct":true},{"rt":null,"stimulus":"Sounds/correct.wav","key_press":null,"block":1,"trial_type":"audio-keyboard-response","trial_index":195,"time_elapsed":3030781,"internal_node_id":"0.0-13.0-3.35","match_key":"l","participant_id":"COGS219_2020_08"},{"rt":null,"stimulus":"Sounds/frog_label.wav","key_press":null,"block":1,"trial_type":"audio-keyboard-response","trial_index":196,"time_elapsed":3031679,"internal_node_id":"0.0-13.0-0.36","match_key":"l","participant_id":"COGS219_2020_08"},{"rt":null,"stimulus":"<p style=\"font-size: 48px;\">+</p>","key_press":null,"block":1,"trial_type":"html-keyboard-response","trial_index":197,"time_elapsed":3032675,"internal_node_id":"0.0-13.0-1.36","match_key":"l","participant_id":"COGS219_2020_08"},{"rt":990.9800000023097,"stimulus":"Images/frog_2.png","key_press":76,"stim_onset":1581548231612,"block":1,"match_type":"match","image_category":"frog","sound_category":"frog","audio_type":"label","phase":"test","trial_type":"image-keyboard-response","trial_index":198,"time_elapsed":3033667,"internal_node_id":"0.0-13.0-2.36","match_key":"l","participant_id":"COGS219_2020_08","correct":true},{"rt":null,"stimulus":"Sounds/correct.wav","key_press":null,"block":1,"trial_type":"audio-keyboard-response","trial_index":199,"time_elapsed":3035682,"internal_node_id":"0.0-13.0-3.36","match_key":"l","participant_id":"COGS219_2020_08"},{"rt":null,"stimulus":"Sounds/cow_sound.wav","key_press":null,"block":1,"trial_type":"audio-keyboard-response","trial_index":200,"time_elapsed":3036699,"internal_node_id":"0.0-13.0-0.37","match_key":"l","participant_id":"COGS219_2020_08"},{"rt":null,"stimulus":"<p style=\"font-size: 48px;\">+</p>","key_press":null,"block":1,"trial_type":"html-keyboard-response","trial_index":201,"time_elapsed":3037692,"internal_node_id":"0.0-13.0-1.37","match_key":"l","participant_id":"COGS219_2020_08"},{"rt":582.4700000230223,"stimulus":"Images/train_orig.png","key_press":65,"stim_onset":1581548236628,"block":1,"match_type":"non-match","image_category":"train","sound_category":"cow","audio_type":"sound","phase":"test","trial_type":"image-keyboard-response","trial_index":202,"time_elapsed":3038276,"internal_node_id":"0.0-13.0-2.37","match_key":"l","participant_id":"COGS219_2020_08","correct":true},{"rt":null,"stimulus":"Sounds/correct.wav","key_press":null,"block":1,"trial_type":"audio-keyboard-response","trial_index":203,"time_elapsed":3040281,"internal_node_id":"0.0-13.0-3.37","match_key":"l","participant_id":"COGS219_2020_08"},{"rt":null,"stimulus":"Sounds/cat_sound.wav","key_press":null,"block":1,"trial_type":"audio-keyboard-response","trial_index":204,"time_elapsed":3041119,"internal_node_id":"0.0-13.0-0.38","match_key":"l","participant_id":"COGS219_2020_08"},{"rt":null,"stimulus":"<p style=\"font-size: 48px;\">+</p>","key_press":null,"block":1,"trial_type":"html-keyboard-response","trial_index":205,"time_elapsed":3042109,"internal_node_id":"0.0-13.0-1.38","match_key":"l","participant_id":"COGS219_2020_08"},{"rt":437.389999977313,"stimulus":"Images/cat_cartoon.png","key_press":76,"stim_onset":1581548241045,"block":1,"match_type":"match","image_category":"cat","sound_category":"cat","audio_type":"sound","phase":"test","trial_type":"image-keyboard-response","trial_index":206,"time_elapsed":3042547,"internal_node_id":"0.0-13.0-2.38","match_key":"l","participant_id":"COGS219_2020_08","correct":true},{"rt":null,"stimulus":"Sounds/correct.wav","key_press":null,"block":1,"trial_type":"audio-keyboard-response","trial_index":207,"time_elapsed":3044558,"internal_node_id":"0.0-13.0-3.38","match_key":"l","participant_id":"COGS219_2020_08"},{"rt":null,"stimulus":"Sounds/gun_label.wav","key_press":null,"block":1,"trial_type":"audio-keyboard-response","trial_index":208,"time_elapsed":3045139,"internal_node_id":"0.0-13.0-0.39","match_key":"l","participant_id":"COGS219_2020_08"},{"rt":null,"stimulus":"<p style=\"font-size: 48px;\">+</p>","key_press":null,"block":1,"trial_type":"html-keyboard-response","trial_index":209,"time_elapsed":3046142,"internal_node_id":"0.0-13.0-1.39","match_key":"l","participant_id":"COGS219_2020_08"},{"rt":531.955000013113,"stimulus":"Images/gun_2.png","key_press":76,"stim_onset":1581548245078,"block":1,"match_type":"match","image_category":"gun","sound_category":"gun","audio_type":"label","phase":"test","trial_type":"image-keyboard-response","trial_index":210,"time_elapsed":3046675,"internal_node_id":"0.0-13.0-2.39","match_key":"l","participant_id":"COGS219_2020_08","correct":true},{"rt":null,"stimulus":"Sounds/correct.wav","key_press":null,"block":1,"trial_type":"audio-keyboard-response","trial_index":211,"time_elapsed":3048681,"internal_node_id":"0.0-13.0-3.39","match_key":"l","participant_id":"COGS219_2020_08"},{"rt":null,"stimulus":"Sounds/dog_sound.wav","key_press":null,"block":1,"trial_type":"audio-keyboard-response","trial_index":212,"time_elapsed":3049396,"internal_node_id":"0.0-13.0-0.40","match_key":"l","participant_id":"COGS219_2020_08"},{"rt":null,"stimulus":"<p style=\"font-size: 48px;\">+</p>","key_press":null,"block":1,"trial_type":"html-keyboard-response","trial_index":213,"time_elapsed":3050389,"internal_node_id":"0.0-13.0-1.40","match_key":"l","participant_id":"COGS219_2020_08"},{"rt":490.1850000023842,"stimulus":"Images/train_2.png","key_press":65,"stim_onset":1581548249325,"block":1,"match_type":"non-match","image_category":"train","sound_category":"dog","audio_type":"sound","phase":"test","trial_type":"image-keyboard-response","trial_index":214,"time_elapsed":3050880,"internal_node_id":"0.0-13.0-2.40","match_key":"l","participant_id":"COGS219_2020_08","correct":true},{"rt":null,"stimulus":"Sounds/correct.wav","key_press":null,"block":1,"trial_type":"audio-keyboard-response","trial_index":215,"time_elapsed":3052884,"internal_node_id":"0.0-13.0-3.40","match_key":"l","participant_id":"COGS219_2020_08"},{"rt":null,"stimulus":"Sounds/gun_label.wav","key_press":null,"block":1,"trial_type":"audio-keyboard-response","trial_index":216,"time_elapsed":3053435,"internal_node_id":"0.0-13.0-0.41","match_key":"l","participant_id":"COGS219_2020_08"},{"rt":null,"stimulus":"<p style=\"font-size: 48px;\">+</p>","key_press":null,"block":1,"trial_type":"html-keyboard-response","trial_index":217,"time_elapsed":3054439,"internal_node_id":"0.0-13.0-1.41","match_key":"l","participant_id":"COGS219_2020_08"},{"rt":439.8899999214336,"stimulus":"Images/gun_1.png","key_press":76,"stim_onset":1581548253375,"block":1,"match_type":"match","image_category":"gun","sound_category":"gun","audio_type":"label","phase":"test","trial_type":"image-keyboard-response","trial_index":218,"time_elapsed":3054880,"internal_node_id":"0.0-13.0-2.41","match_key":"l","participant_id":"COGS219_2020_08","correct":true},{"rt":null,"stimulus":"Sounds/correct.wav","key_press":null,"block":1,"trial_type":"audio-keyboard-response","trial_index":219,"time_elapsed":3056888,"internal_node_id":"0.0-13.0-3.41","match_key":"l","participant_id":"COGS219_2020_08"},{"rt":null,"stimulus":"Sounds/cat_sound.wav","key_press":null,"block":1,"trial_type":"audio-keyboard-response","trial_index":220,"time_elapsed":3057695,"internal_node_id":"0.0-13.0-0.42","match_key":"l","participant_id":"COGS219_2020_08"},{"rt":null,"stimulus":"<p style=\"font-size: 48px;\">+</p>","key_press":null,"block":1,"trial_type":"html-keyboard-response","trial_index":221,"time_elapsed":3058689,"internal_node_id":"0.0-13.0-1.42","match_key":"l","participant_id":"COGS219_2020_08"},{"rt":509.8549999529496,"stimulus":"Images/car_2.png","key_press":65,"stim_onset":1581548257625,"block":1,"match_type":"non-match","image_category":"car","sound_category":"cat","audio_type":"sound","phase":"test","trial_type":"image-keyboard-response","trial_index":222,"time_elapsed":3059200,"internal_node_id":"0.0-13.0-2.42","match_key":"l","participant_id":"COGS219_2020_08","correct":true},{"rt":null,"stimulus":"Sounds/correct.wav","key_press":null,"block":1,"trial_type":"audio-keyboard-response","trial_index":223,"time_elapsed":3061216,"internal_node_id":"0.0-13.0-3.42","match_key":"l","participant_id":"COGS219_2020_08"},{"rt":null,"stimulus":"Sounds/whistle_sound.wav","key_press":null,"block":1,"trial_type":"audio-keyboard-response","trial_index":224,"time_elapsed":3061916,"internal_node_id":"0.0-13.0-0.43","match_key":"l","participant_id":"COGS219_2020_08"},{"rt":null,"stimulus":"<p style=\"font-size: 48px;\">+</p>","key_press":null,"block":1,"trial_type":"html-keyboard-response","trial_index":225,"time_elapsed":3062906,"internal_node_id":"0.0-13.0-1.43","match_key":"l","participant_id":"COGS219_2020_08"},{"rt":613.6299999197945,"stimulus":"Images/whistle_2.png","key_press":76,"stim_onset":1581548261842,"block":1,"match_type":"match","image_category":"whistle","sound_category":"whistle","audio_type":"sound","phase":"test","trial_type":"image-keyboard-response","trial_index":226,"time_elapsed":3063520,"internal_node_id":"0.0-13.0-2.43","match_key":"l","participant_id":"COGS219_2020_08","correct":true},{"rt":null,"stimulus":"Sounds/correct.wav","key_press":null,"block":1,"trial_type":"audio-keyboard-response","trial_index":227,"time_elapsed":3065526,"internal_node_id":"0.0-13.0-3.43","match_key":"l","participant_id":"COGS219_2020_08"},{"rt":null,"stimulus":"Sounds/car_label.wav","key_press":null,"block":1,"trial_type":"audio-keyboard-response","trial_index":228,"time_elapsed":3066595,"internal_node_id":"0.0-13.0-0.44","match_key":"l","participant_id":"COGS219_2020_08"},{"rt":null,"stimulus":"<p style=\"font-size: 48px;\">+</p>","key_press":null,"block":1,"trial_type":"html-keyboard-response","trial_index":229,"time_elapsed":3067589,"internal_node_id":"0.0-13.0-1.44","match_key":"l","participant_id":"COGS219_2020_08"},{"rt":505.8450000360608,"stimulus":"Images/cat_orig.png","key_press":65,"stim_onset":1581548266525,"block":1,"match_type":"non-match","image_category":"cat","sound_category":"car","audio_type":"label","phase":"test","trial_type":"image-keyboard-response","trial_index":230,"time_elapsed":3068096,"internal_node_id":"0.0-13.0-2.44","match_key":"l","participant_id":"COGS219_2020_08","correct":true},{"rt":null,"stimulus":"Sounds/correct.wav","key_press":null,"block":1,"trial_type":"audio-keyboard-response","trial_index":231,"time_elapsed":3070101,"internal_node_id":"0.0-13.0-3.44","match_key":"l","participant_id":"COGS219_2020_08"},{"rt":null,"stimulus":"Sounds/motorcycle_sound.wav","key_press":null,"block":1,"trial_type":"audio-keyboard-response","trial_index":232,"time_elapsed":3071215,"internal_node_id":"0.0-13.0-0.45","match_key":"l","participant_id":"COGS219_2020_08"},{"rt":null,"stimulus":"<p style=\"font-size: 48px;\">+</p>","key_press":null,"block":1,"trial_type":"html-keyboard-response","trial_index":233,"time_elapsed":3072206,"internal_node_id":"0.0-13.0-1.45","match_key":"l","participant_id":"COGS219_2020_08"},{"rt":479.6250000363216,"stimulus":"Images/motorcycle_3.png","key_press":76,"stim_onset":1581548271142,"block":1,"match_type":"match","image_category":"motorcycle","sound_category":"motorcycle","audio_type":"sound","phase":"test","trial_type":"image-keyboard-response","trial_index":234,"time_elapsed":3072688,"internal_node_id":"0.0-13.0-2.45","match_key":"l","participant_id":"COGS219_2020_08","correct":true},{"rt":null,"stimulus":"Sounds/correct.wav","key_press":null,"block":1,"trial_type":"audio-keyboard-response","trial_index":235,"time_elapsed":3074695,"internal_node_id":"0.0-13.0-3.45","match_key":"l","participant_id":"COGS219_2020_08"},{"rt":null,"stimulus":"Sounds/cow_sound.wav","key_press":null,"block":1,"trial_type":"audio-keyboard-response","trial_index":236,"time_elapsed":3075715,"internal_node_id":"0.0-13.0-0.46","match_key":"l","participant_id":"COGS219_2020_08"},{"rt":null,"stimulus":"<p style=\"font-size: 48px;\">+</p>","key_press":null,"block":1,"trial_type":"html-keyboard-response","trial_index":237,"time_elapsed":3076706,"internal_node_id":"0.0-13.0-1.46","match_key":"l","participant_id":"COGS219_2020_08"},{"rt":717.4050000030547,"stimulus":"Images/dog_cartoon.png","key_press":65,"stim_onset":1581548275642,"block":1,"match_type":"non-match","image_category":"dog","sound_category":"cow","audio_type":"sound","phase":"test","trial_type":"image-keyboard-response","trial_index":238,"time_elapsed":3077424,"internal_node_id":"0.0-13.0-2.46","match_key":"l","participant_id":"COGS219_2020_08","correct":true},{"rt":null,"stimulus":"Sounds/correct.wav","key_press":null,"block":1,"trial_type":"audio-keyboard-response","trial_index":239,"time_elapsed":3079436,"internal_node_id":"0.0-13.0-3.46","match_key":"l","participant_id":"COGS219_2020_08"},{"rt":null,"stimulus":"Sounds/cow_label.wav","key_press":null,"block":1,"trial_type":"audio-keyboard-response","trial_index":240,"time_elapsed":3080455,"internal_node_id":"0.0-13.0-0.47","match_key":"l","participant_id":"COGS219_2020_08"},{"rt":null,"stimulus":"<p style=\"font-size: 48px;\">+</p>","key_press":null,"block":1,"trial_type":"html-keyboard-response","trial_index":241,"time_elapsed":3081456,"internal_node_id":"0.0-13.0-1.47","match_key":"l","participant_id":"COGS219_2020_08"},{"rt":782.9650000203401,"stimulus":"Images/cow_3.png","key_press":76,"stim_onset":1581548280392,"block":1,"match_type":"match","image_category":"cow","sound_category":"cow","audio_type":"label","phase":"test","trial_type":"image-keyboard-response","trial_index":242,"time_elapsed":3082240,"internal_node_id":"0.0-13.0-2.47","match_key":"l","participant_id":"COGS219_2020_08","correct":true},{"rt":null,"stimulus":"Sounds/correct.wav","key_press":null,"block":1,"trial_type":"audio-keyboard-response","trial_index":243,"time_elapsed":3084246,"internal_node_id":"0.0-13.0-3.47","match_key":"l","participant_id":"COGS219_2020_08"},{"rt":null,"stimulus":"Sounds/cow_sound.wav","key_press":null,"block":1,"trial_type":"audio-keyboard-response","trial_index":244,"time_elapsed":3085235,"internal_node_id":"0.0-13.0-0.48","match_key":"l","participant_id":"COGS219_2020_08"},{"rt":null,"stimulus":"<p style=\"font-size: 48px;\">+</p>","key_press":null,"block":1,"trial_type":"html-keyboard-response","trial_index":245,"time_elapsed":3086240,"internal_node_id":"0.0-13.0-1.48","match_key":"l","participant_id":"COGS219_2020_08"},{"rt":687.2849999926984,"stimulus":"Images/cow_cartoon.png","key_press":76,"stim_onset":1581548285175,"block":1,"match_type":"match","image_category":"cow","sound_category":"cow","audio_type":"sound","phase":"test","trial_type":"image-keyboard-response","trial_index":246,"time_elapsed":3086928,"internal_node_id":"0.0-13.0-2.48","match_key":"l","participant_id":"COGS219_2020_08","correct":true},{"rt":null,"stimulus":"Sounds/correct.wav","key_press":null,"block":1,"trial_type":"audio-keyboard-response","trial_index":247,"time_elapsed":3088936,"internal_node_id":"0.0-13.0-3.48","match_key":"l","participant_id":"COGS219_2020_08"},{"rt":null,"stimulus":"Sounds/frog_sound.wav","key_press":null,"block":1,"trial_type":"audio-keyboard-response","trial_index":248,"time_elapsed":3089835,"internal_node_id":"0.0-13.0-0.49","match_key":"l","participant_id":"COGS219_2020_08"},{"rt":null,"stimulus":"<p style=\"font-size: 48px;\">+</p>","key_press":null,"block":1,"trial_type":"html-keyboard-response","trial_index":249,"time_elapsed":3090840,"internal_node_id":"0.0-13.0-1.49","match_key":"l","participant_id":"COGS219_2020_08"},{"rt":487.42500005755574,"stimulus":"Images/cat_cartoon.png","key_press":65,"stim_onset":1581548289775,"block":1,"match_type":"non-match","image_category":"cat","sound_category":"frog","audio_type":"sound","phase":"test","trial_type":"image-keyboard-response","trial_index":250,"time_elapsed":3091328,"internal_node_id":"0.0-13.0-2.49","match_key":"l","participant_id":"COGS219_2020_08","correct":true},{"rt":null,"stimulus":"Sounds/correct.wav","key_press":null,"block":1,"trial_type":"audio-keyboard-response","trial_index":251,"time_elapsed":3093334,"internal_node_id":"0.0-13.0-3.49","match_key":"l","participant_id":"COGS219_2020_08"},{"rt":null,"stimulus":"Sounds/frog_sound.wav","key_press":null,"block":1,"trial_type":"audio-keyboard-response","trial_index":252,"time_elapsed":3094235,"internal_node_id":"0.0-13.0-0.50","match_key":"l","participant_id":"COGS219_2020_08"},{"rt":null,"stimulus":"<p style=\"font-size: 48px;\">+</p>","key_press":null,"block":1,"trial_type":"html-keyboard-response","trial_index":253,"time_elapsed":3095240,"internal_node_id":"0.0-13.0-1.50","match_key":"l","participant_id":"COGS219_2020_08"},{"rt":439.27000008989125,"stimulus":"Images/frog_1.png","key_press":76,"stim_onset":1581548294176,"block":1,"match_type":"match","image_category":"frog","sound_category":"frog","audio_type":"sound","phase":"test","trial_type":"image-keyboard-response","trial_index":254,"time_elapsed":3095680,"internal_node_id":"0.0-13.0-2.50","match_key":"l","participant_id":"COGS219_2020_08","correct":true},{"rt":null,"stimulus":"Sounds/correct.wav","key_press":null,"block":1,"trial_type":"audio-keyboard-response","trial_index":255,"time_elapsed":3097687,"internal_node_id":"0.0-13.0-3.50","match_key":"l","participant_id":"COGS219_2020_08"},{"rt":null,"stimulus":"Sounds/rooster_sound.wav","key_press":null,"block":1,"trial_type":"audio-keyboard-response","trial_index":256,"time_elapsed":3098395,"internal_node_id":"0.0-13.0-0.51","match_key":"l","participant_id":"COGS219_2020_08"},{"rt":null,"stimulus":"<p style=\"font-size: 48px;\">+</p>","key_press":null,"block":1,"trial_type":"html-keyboard-response","trial_index":257,"time_elapsed":3099390,"internal_node_id":"0.0-13.0-1.51","match_key":"l","participant_id":"COGS219_2020_08"},{"rt":593.3900000527501,"stimulus":"Images/cow_2.png","key_press":65,"stim_onset":1581548298326,"block":1,"match_type":"non-match","image_category":"cow","sound_category":"rooster","audio_type":"sound","phase":"test","trial_type":"image-keyboard-response","trial_index":258,"time_elapsed":3099984,"internal_node_id":"0.0-13.0-2.51","match_key":"l","participant_id":"COGS219_2020_08","correct":true},{"rt":null,"stimulus":"Sounds/correct.wav","key_press":null,"block":1,"trial_type":"audio-keyboard-response","trial_index":259,"time_elapsed":3101994,"internal_node_id":"0.0-13.0-3.51","match_key":"l","participant_id":"COGS219_2020_08"},{"rt":null,"stimulus":"Sounds/cat_label.wav","key_press":null,"block":1,"trial_type":"audio-keyboard-response","trial_index":260,"time_elapsed":3102835,"internal_node_id":"0.0-13.0-0.52","match_key":"l","participant_id":"COGS219_2020_08"},{"rt":null,"stimulus":"<p style=\"font-size: 48px;\">+</p>","key_press":null,"block":1,"trial_type":"html-keyboard-response","trial_index":261,"time_elapsed":3103840,"internal_node_id":"0.0-13.0-1.52","match_key":"l","participant_id":"COGS219_2020_08"},{"rt":447.3299999954179,"stimulus":"Images/cat_1.png","key_press":76,"stim_onset":1581548302776,"block":1,"match_type":"match","image_category":"cat","sound_category":"cat","audio_type":"label","phase":"test","trial_type":"image-keyboard-response","trial_index":262,"time_elapsed":3104288,"internal_node_id":"0.0-13.0-2.52","match_key":"l","participant_id":"COGS219_2020_08","correct":true},{"rt":null,"stimulus":"Sounds/correct.wav","key_press":null,"block":1,"trial_type":"audio-keyboard-response","trial_index":263,"time_elapsed":3106305,"internal_node_id":"0.0-13.0-3.52","match_key":"l","participant_id":"COGS219_2020_08"},{"rt":null,"stimulus":"Sounds/rooster_label.wav","key_press":null,"block":1,"trial_type":"audio-keyboard-response","trial_index":264,"time_elapsed":3106996,"internal_node_id":"0.0-13.0-0.53","match_key":"l","participant_id":"COGS219_2020_08"},{"rt":null,"stimulus":"<p style=\"font-size: 48px;\">+</p>","key_press":null,"block":1,"trial_type":"html-keyboard-response","trial_index":265,"time_elapsed":3107990,"internal_node_id":"0.0-13.0-1.53","match_key":"l","participant_id":"COGS219_2020_08"},{"rt":569.2900000140071,"stimulus":"Images/cat_1.png","key_press":65,"stim_onset":1581548306926,"block":1,"match_type":"non-match","image_category":"cat","sound_category":"rooster","audio_type":"label","phase":"test","trial_type":"image-keyboard-response","trial_index":266,"time_elapsed":3108560,"internal_node_id":"0.0-13.0-2.53","match_key":"l","participant_id":"COGS219_2020_08","correct":true},{"rt":null,"stimulus":"Sounds/correct.wav","key_press":null,"block":1,"trial_type":"audio-keyboard-response","trial_index":267,"time_elapsed":3110560,"internal_node_id":"0.0-13.0-3.53","match_key":"l","participant_id":"COGS219_2020_08"},{"rt":null,"stimulus":"Sounds/train_label.wav","key_press":null,"block":1,"trial_type":"audio-keyboard-response","trial_index":268,"time_elapsed":3111832,"internal_node_id":"0.0-13.0-0.54","match_key":"l","participant_id":"COGS219_2020_08"},{"rt":null,"stimulus":"<p style=\"font-size: 48px;\">+</p>","key_press":null,"block":1,"trial_type":"html-keyboard-response","trial_index":269,"time_elapsed":3112836,"internal_node_id":"0.0-13.0-1.54","match_key":"l","participant_id":"COGS219_2020_08"},{"rt":455.2850000327453,"stimulus":"Images/train_3.png","key_press":76,"stim_onset":1581548311772,"block":1,"match_type":"match","image_category":"train","sound_category":"train","audio_type":"label","phase":"test","trial_type":"image-keyboard-response","trial_index":270,"time_elapsed":3113293,"internal_node_id":"0.0-13.0-2.54","match_key":"l","participant_id":"COGS219_2020_08","correct":true},{"rt":null,"stimulus":"Sounds/correct.wav","key_press":null,"block":1,"trial_type":"audio-keyboard-response","trial_index":271,"time_elapsed":3115300,"internal_node_id":"0.0-13.0-3.54","match_key":"l","participant_id":"COGS219_2020_08"},{"rt":null,"stimulus":"Sounds/car_sound.wav","key_press":null,"block":1,"trial_type":"audio-keyboard-response","trial_index":272,"time_elapsed":3116372,"internal_node_id":"0.0-13.0-0.55","match_key":"l","participant_id":"COGS219_2020_08"},{"rt":null,"stimulus":"<p style=\"font-size: 48px;\">+</p>","key_press":null,"block":1,"trial_type":"html-keyboard-response","trial_index":273,"time_elapsed":3117369,"internal_node_id":"0.0-13.0-1.55","match_key":"l","participant_id":"COGS219_2020_08"},{"rt":720.8850000752136,"stimulus":"Images/car_orig.png","key_press":76,"stim_onset":1581548316306,"block":1,"match_type":"match","image_category":"car","sound_category":"car","audio_type":"sound","phase":"test","trial_type":"image-keyboard-response","trial_index":274,"time_elapsed":3118093,"internal_node_id":"0.0-13.0-2.55","match_key":"l","participant_id":"COGS219_2020_08","correct":true},{"rt":null,"stimulus":"Sounds/correct.wav","key_press":null,"block":1,"trial_type":"audio-keyboard-response","trial_index":275,"time_elapsed":3120098,"internal_node_id":"0.0-13.0-3.55","match_key":"l","participant_id":"COGS219_2020_08"},{"rt":null,"stimulus":"Sounds/rooster_label.wav","key_press":null,"block":1,"trial_type":"audio-keyboard-response","trial_index":276,"time_elapsed":3120772,"internal_node_id":"0.0-13.0-0.56","match_key":"l","participant_id":"COGS219_2020_08"},{"rt":null,"stimulus":"<p style=\"font-size: 48px;\">+</p>","key_press":null,"block":1,"trial_type":"html-keyboard-response","trial_index":277,"time_elapsed":3121770,"internal_node_id":"0.0-13.0-1.56","match_key":"l","participant_id":"COGS219_2020_08"},{"rt":513.8099999167025,"stimulus":"Images/whistle_2.png","key_press":65,"stim_onset":1581548320706,"block":1,"match_type":"non-match","image_category":"whistle","sound_category":"rooster","audio_type":"label","phase":"test","trial_type":"image-keyboard-response","trial_index":278,"time_elapsed":3122284,"internal_node_id":"0.0-13.0-2.56","match_key":"l","participant_id":"COGS219_2020_08","correct":true},{"rt":null,"stimulus":"Sounds/correct.wav","key_press":null,"block":1,"trial_type":"audio-keyboard-response","trial_index":279,"time_elapsed":3124296,"internal_node_id":"0.0-13.0-3.56","match_key":"l","participant_id":"COGS219_2020_08"},{"rt":null,"stimulus":"Sounds/train_label.wav","key_press":null,"block":1,"trial_type":"audio-keyboard-response","trial_index":280,"time_elapsed":3125552,"internal_node_id":"0.0-13.0-0.57","match_key":"l","participant_id":"COGS219_2020_08"},{"rt":null,"stimulus":"<p style=\"font-size: 48px;\">+</p>","key_press":null,"block":1,"trial_type":"html-keyboard-response","trial_index":281,"time_elapsed":3126569,"internal_node_id":"0.0-13.0-1.57","match_key":"l","participant_id":"COGS219_2020_08"},{"rt":450.0849999021739,"stimulus":"Images/train_orig.png","key_press":76,"stim_onset":1581548325506,"block":1,"match_type":"match","image_category":"train","sound_category":"train","audio_type":"label","phase":"test","trial_type":"image-keyboard-response","trial_index":282,"time_elapsed":3127021,"internal_node_id":"0.0-13.0-2.57","match_key":"l","participant_id":"COGS219_2020_08","correct":true},{"rt":null,"stimulus":"Sounds/correct.wav","key_press":null,"block":1,"trial_type":"audio-keyboard-response","trial_index":283,"time_elapsed":3129032,"internal_node_id":"0.0-13.0-3.57","match_key":"l","participant_id":"COGS219_2020_08"},{"rt":null,"stimulus":"Sounds/cow_label.wav","key_press":null,"block":1,"trial_type":"audio-keyboard-response","trial_index":284,"time_elapsed":3130052,"internal_node_id":"0.0-13.0-0.58","match_key":"l","participant_id":"COGS219_2020_08"},{"rt":null,"stimulus":"<p style=\"font-size: 48px;\">+</p>","key_press":null,"block":1,"trial_type":"html-keyboard-response","trial_index":285,"time_elapsed":3131070,"internal_node_id":"0.0-13.0-1.58","match_key":"l","participant_id":"COGS219_2020_08"},{"rt":541.8800000334159,"stimulus":"Images/cat_2.png","key_press":76,"stim_onset":1581548330006,"block":1,"match_type":"non-match","image_category":"cat","sound_category":"cow","audio_type":"label","phase":"test","trial_type":"image-keyboard-response","trial_index":286,"time_elapsed":3131613,"internal_node_id":"0.0-13.0-2.58","match_key":"l","participant_id":"COGS219_2020_08","correct":false},{"rt":null,"stimulus":"Sounds/incorrect.wav","key_press":null,"block":1,"trial_type":"audio-keyboard-response","trial_index":287,"time_elapsed":3133625,"internal_node_id":"0.0-13.0-3.58","match_key":"l","participant_id":"COGS219_2020_08"},{"rt":null,"stimulus":"Sounds/cat_sound.wav","key_press":null,"block":1,"trial_type":"audio-keyboard-response","trial_index":288,"time_elapsed":3134472,"internal_node_id":"0.0-13.0-0.59","match_key":"l","participant_id":"COGS219_2020_08"},{"rt":null,"stimulus":"<p style=\"font-size: 48px;\">+</p>","key_press":null,"block":1,"trial_type":"html-keyboard-response","trial_index":289,"time_elapsed":3135470,"internal_node_id":"0.0-13.0-1.59","match_key":"l","participant_id":"COGS219_2020_08"},{"rt":557.7449999982491,"stimulus":"Images/cow_1.png","key_press":65,"stim_onset":1581548334406,"block":1,"match_type":"non-match","image_category":"cow","sound_category":"cat","audio_type":"sound","phase":"test","trial_type":"image-keyboard-response","trial_index":290,"time_elapsed":3136029,"internal_node_id":"0.0-13.0-2.59","match_key":"l","participant_id":"COGS219_2020_08","correct":true},{"rt":null,"stimulus":"Sounds/correct.wav","key_press":null,"block":1,"trial_type":"audio-keyboard-response","trial_index":291,"time_elapsed":3138042,"internal_node_id":"0.0-13.0-3.59","match_key":"l","participant_id":"COGS219_2020_08"},{"rt":null,"stimulus":"Sounds/frog_label.wav","key_press":null,"block":1,"trial_type":"audio-keyboard-response","trial_index":292,"time_elapsed":3138932,"internal_node_id":"0.0-13.0-0.60","match_key":"l","participant_id":"COGS219_2020_08"},{"rt":null,"stimulus":"<p style=\"font-size: 48px;\">+</p>","key_press":null,"block":1,"trial_type":"html-keyboard-response","trial_index":293,"time_elapsed":3139937,"internal_node_id":"0.0-13.0-1.60","match_key":"l","participant_id":"COGS219_2020_08"},{"rt":458.7750000646338,"stimulus":"Images/cow_cartoon.png","key_press":65,"stim_onset":1581548338872,"block":1,"match_type":"non-match","image_category":"cow","sound_category":"frog","audio_type":"label","phase":"test","trial_type":"image-keyboard-response","trial_index":294,"time_elapsed":3140396,"internal_node_id":"0.0-13.0-2.60","match_key":"l","participant_id":"COGS219_2020_08","correct":true},{"rt":null,"stimulus":"Sounds/correct.wav","key_press":null,"block":1,"trial_type":"audio-keyboard-response","trial_index":295,"time_elapsed":3142401,"internal_node_id":"0.0-13.0-3.60","match_key":"l","participant_id":"COGS219_2020_08"},{"rt":null,"stimulus":"Sounds/rooster_label.wav","key_press":null,"block":1,"trial_type":"audio-keyboard-response","trial_index":296,"time_elapsed":3143092,"internal_node_id":"0.0-13.0-0.61","match_key":"l","participant_id":"COGS219_2020_08"},{"rt":null,"stimulus":"<p style=\"font-size: 48px;\">+</p>","key_press":null,"block":1,"trial_type":"html-keyboard-response","trial_index":297,"time_elapsed":3144086,"internal_node_id":"0.0-13.0-1.61","match_key":"l","participant_id":"COGS219_2020_08"},{"rt":677.629999932833,"stimulus":"Images/rooster_1.png","key_press":76,"stim_onset":1581548343023,"block":1,"match_type":"match","image_category":"rooster","sound_category":"rooster","audio_type":"label","phase":"test","trial_type":"image-keyboard-response","trial_index":298,"time_elapsed":3144765,"internal_node_id":"0.0-13.0-2.61","match_key":"l","participant_id":"COGS219_2020_08","correct":true},{"rt":null,"stimulus":"Sounds/correct.wav","key_press":null,"block":1,"trial_type":"audio-keyboard-response","trial_index":299,"time_elapsed":3146783,"internal_node_id":"0.0-13.0-3.61","match_key":"l","participant_id":"COGS219_2020_08"},{"rt":null,"stimulus":"Sounds/dog_sound.wav","key_press":null,"block":1,"trial_type":"audio-keyboard-response","trial_index":300,"time_elapsed":3147492,"internal_node_id":"0.0-13.0-0.62","match_key":"l","participant_id":"COGS219_2020_08"},{"rt":null,"stimulus":"<p style=\"font-size: 48px;\">+</p>","key_press":null,"block":1,"trial_type":"html-keyboard-response","trial_index":301,"time_elapsed":3148486,"internal_node_id":"0.0-13.0-1.62","match_key":"l","participant_id":"COGS219_2020_08"},{"rt":468.9250000519678,"stimulus":"Images/whistle_orig.png","key_press":65,"stim_onset":1581548347423,"block":1,"match_type":"non-match","image_category":"whistle","sound_category":"dog","audio_type":"sound","phase":"test","trial_type":"image-keyboard-response","trial_index":302,"time_elapsed":3148956,"internal_node_id":"0.0-13.0-2.62","match_key":"l","participant_id":"COGS219_2020_08","correct":true},{"rt":null,"stimulus":"Sounds/correct.wav","key_press":null,"block":1,"trial_type":"audio-keyboard-response","trial_index":303,"time_elapsed":3150966,"internal_node_id":"0.0-13.0-3.62","match_key":"l","participant_id":"COGS219_2020_08"},{"rt":null,"stimulus":"Sounds/motorcycle_label.wav","key_press":null,"block":1,"trial_type":"audio-keyboard-response","trial_index":304,"time_elapsed":3152112,"internal_node_id":"0.0-13.0-0.63","match_key":"l","participant_id":"COGS219_2020_08"},{"rt":null,"stimulus":"<p style=\"font-size: 48px;\">+</p>","key_press":null,"block":1,"trial_type":"html-keyboard-response","trial_index":305,"time_elapsed":3153103,"internal_node_id":"0.0-13.0-1.63","match_key":"l","participant_id":"COGS219_2020_08"},{"rt":476.12999996636063,"stimulus":"Images/dog_3.png","key_press":65,"stim_onset":1581548352039,"block":1,"match_type":"non-match","image_category":"dog","sound_category":"motorcycle","audio_type":"label","phase":"test","trial_type":"image-keyboard-response","trial_index":306,"time_elapsed":3153580,"internal_node_id":"0.0-13.0-2.63","match_key":"l","participant_id":"COGS219_2020_08","correct":true},{"rt":null,"stimulus":"Sounds/correct.wav","key_press":null,"block":1,"trial_type":"audio-keyboard-response","trial_index":307,"time_elapsed":3155584,"internal_node_id":"0.0-13.0-3.63","match_key":"l","participant_id":"COGS219_2020_08"},{"rt":null,"stimulus":"Sounds/motorcycle_label.wav","key_press":null,"block":1,"trial_type":"audio-keyboard-response","trial_index":308,"time_elapsed":3156692,"internal_node_id":"0.0-13.0-0.64","match_key":"l","participant_id":"COGS219_2020_08"},{"rt":null,"stimulus":"<p style=\"font-size: 48px;\">+</p>","key_press":null,"block":1,"trial_type":"html-keyboard-response","trial_index":309,"time_elapsed":3157687,"internal_node_id":"0.0-13.0-1.64","match_key":"l","participant_id":"COGS219_2020_08"},{"rt":580.904999980703,"stimulus":"Images/motorcycle_orig.png","key_press":76,"stim_onset":1581548356623,"block":1,"match_type":"match","image_category":"motorcycle","sound_category":"motorcycle","audio_type":"label","phase":"test","trial_type":"image-keyboard-response","trial_index":310,"time_elapsed":3158269,"internal_node_id":"0.0-13.0-2.64","match_key":"l","participant_id":"COGS219_2020_08","correct":true},{"rt":null,"stimulus":"Sounds/correct.wav","key_press":null,"block":1,"trial_type":"audio-keyboard-response","trial_index":311,"time_elapsed":3160276,"internal_node_id":"0.0-13.0-3.64","match_key":"l","participant_id":"COGS219_2020_08"},{"rt":null,"stimulus":"Sounds/dog_sound.wav","key_press":null,"block":1,"trial_type":"audio-keyboard-response","trial_index":312,"time_elapsed":3160972,"internal_node_id":"0.0-13.0-0.65","match_key":"l","participant_id":"COGS219_2020_08"},{"rt":null,"stimulus":"<p style=\"font-size: 48px;\">+</p>","key_press":null,"block":1,"trial_type":"html-keyboard-response","trial_index":313,"time_elapsed":3161970,"internal_node_id":"0.0-13.0-1.65","match_key":"l","participant_id":"COGS219_2020_08"},{"rt":697.4450000561774,"stimulus":"Images/dog_2.png","key_press":76,"stim_onset":1581548360906,"block":1,"match_type":"match","image_category":"dog","sound_category":"dog","audio_type":"sound","phase":"test","trial_type":"image-keyboard-response","trial_index":314,"time_elapsed":3162669,"internal_node_id":"0.0-13.0-2.65","match_key":"l","participant_id":"COGS219_2020_08","correct":true},{"rt":null,"stimulus":"Sounds/correct.wav","key_press":null,"block":1,"trial_type":"audio-keyboard-response","trial_index":315,"time_elapsed":3164683,"internal_node_id":"0.0-13.0-3.65","match_key":"l","participant_id":"COGS219_2020_08"},{"rt":null,"stimulus":"Sounds/cow_label.wav","key_press":null,"block":1,"trial_type":"audio-keyboard-response","trial_index":316,"time_elapsed":3165692,"internal_node_id":"0.0-13.0-0.66","match_key":"l","participant_id":"COGS219_2020_08"},{"rt":null,"stimulus":"<p style=\"font-size: 48px;\">+</p>","key_press":null,"block":1,"trial_type":"html-keyboard-response","trial_index":317,"time_elapsed":3166687,"internal_node_id":"0.0-13.0-1.66","match_key":"l","participant_id":"COGS219_2020_08"},{"rt":540.7499999273568,"stimulus":"Images/rooster_cartoon.png","key_press":65,"stim_onset":1581548365623,"block":1,"match_type":"non-match","image_category":"rooster","sound_category":"cow","audio_type":"label","phase":"test","trial_type":"image-keyboard-response","trial_index":318,"time_elapsed":3167229,"internal_node_id":"0.0-13.0-2.66","match_key":"l","participant_id":"COGS219_2020_08","correct":true},{"rt":null,"stimulus":"Sounds/correct.wav","key_press":null,"block":1,"trial_type":"audio-keyboard-response","trial_index":319,"time_elapsed":3169243,"internal_node_id":"0.0-13.0-3.66","match_key":"l","participant_id":"COGS219_2020_08"},{"rt":null,"stimulus":"Sounds/rooster_label.wav","key_press":null,"block":1,"trial_type":"audio-keyboard-response","trial_index":320,"time_elapsed":3169932,"internal_node_id":"0.0-13.0-0.67","match_key":"l","participant_id":"COGS219_2020_08"},{"rt":null,"stimulus":"<p style=\"font-size: 48px;\">+</p>","key_press":null,"block":1,"trial_type":"html-keyboard-response","trial_index":321,"time_elapsed":3170934,"internal_node_id":"0.0-13.0-1.67","match_key":"l","participant_id":"COGS219_2020_08"},{"rt":514.6849999437109,"stimulus":"Images/rooster_orig.png","key_press":76,"stim_onset":1581548369869,"block":1,"match_type":"match","image_category":"rooster","sound_category":"rooster","audio_type":"label","phase":"test","trial_type":"image-keyboard-response","trial_index":322,"time_elapsed":3171449,"internal_node_id":"0.0-13.0-2.67","match_key":"l","participant_id":"COGS219_2020_08","correct":true},{"rt":null,"stimulus":"Sounds/correct.wav","key_press":null,"block":1,"trial_type":"audio-keyboard-response","trial_index":323,"time_elapsed":3173460,"internal_node_id":"0.0-13.0-3.67","match_key":"l","participant_id":"COGS219_2020_08"},{"rt":null,"stimulus":"Sounds/dog_label.wav","key_press":null,"block":1,"trial_type":"audio-keyboard-response","trial_index":324,"time_elapsed":3174109,"internal_node_id":"0.0-13.0-0.68","match_key":"l","participant_id":"COGS219_2020_08"},{"rt":null,"stimulus":"<p style=\"font-size: 48px;\">+</p>","key_press":null,"block":1,"trial_type":"html-keyboard-response","trial_index":325,"time_elapsed":3175100,"internal_node_id":"0.0-13.0-1.68","match_key":"l","participant_id":"COGS219_2020_08"},{"rt":427.80500010121614,"stimulus":"Images/dog_cartoon.png","key_press":76,"stim_onset":1581548374036,"block":1,"match_type":"match","image_category":"dog","sound_category":"dog","audio_type":"label","phase":"test","trial_type":"image-keyboard-response","trial_index":326,"time_elapsed":3175529,"internal_node_id":"0.0-13.0-2.68","match_key":"l","participant_id":"COGS219_2020_08","correct":true},{"rt":null,"stimulus":"Sounds/correct.wav","key_press":null,"block":1,"trial_type":"audio-keyboard-response","trial_index":327,"time_elapsed":3177534,"internal_node_id":"0.0-13.0-3.68","match_key":"l","participant_id":"COGS219_2020_08"},{"rt":null,"stimulus":"Sounds/motorcycle_sound.wav","key_press":null,"block":1,"trial_type":"audio-keyboard-response","trial_index":328,"time_elapsed":3178649,"internal_node_id":"0.0-13.0-0.69","match_key":"l","participant_id":"COGS219_2020_08"},{"rt":null,"stimulus":"<p style=\"font-size: 48px;\">+</p>","key_press":null,"block":1,"trial_type":"html-keyboard-response","trial_index":329,"time_elapsed":3179667,"internal_node_id":"0.0-13.0-1.69","match_key":"l","participant_id":"COGS219_2020_08"},{"rt":1140.940000070259,"stimulus":"Images/motorcycle_2.png","key_press":76,"stim_onset":1581548378603,"block":1,"match_type":"match","image_category":"motorcycle","sound_category":"motorcycle","audio_type":"sound","phase":"test","trial_type":"image-keyboard-response","trial_index":330,"time_elapsed":3180809,"internal_node_id":"0.0-13.0-2.69","match_key":"l","participant_id":"COGS219_2020_08","correct":true},{"rt":null,"stimulus":"Sounds/correct.wav","key_press":null,"block":1,"trial_type":"audio-keyboard-response","trial_index":331,"time_elapsed":3182812,"internal_node_id":"0.0-13.0-3.69","match_key":"l","participant_id":"COGS219_2020_08"},{"rt":null,"stimulus":"Sounds/cat_sound.wav","key_press":null,"block":1,"trial_type":"audio-keyboard-response","trial_index":332,"time_elapsed":3183649,"internal_node_id":"0.0-13.0-0.70","match_key":"l","participant_id":"COGS219_2020_08"},{"rt":null,"stimulus":"<p style=\"font-size: 48px;\">+</p>","key_press":null,"block":1,"trial_type":"html-keyboard-response","trial_index":333,"time_elapsed":3184667,"internal_node_id":"0.0-13.0-1.70","match_key":"l","participant_id":"COGS219_2020_08"},{"rt":541.2950000027195,"stimulus":"Images/frog_3.png","key_press":65,"stim_onset":1581548383603,"block":1,"match_type":"non-match","image_category":"frog","sound_category":"cat","audio_type":"sound","phase":"test","trial_type":"image-keyboard-response","trial_index":334,"time_elapsed":3185209,"internal_node_id":"0.0-13.0-2.70","match_key":"l","participant_id":"COGS219_2020_08","correct":true},{"rt":null,"stimulus":"Sounds/correct.wav","key_press":null,"block":1,"trial_type":"audio-keyboard-response","trial_index":335,"time_elapsed":3187224,"internal_node_id":"0.0-13.0-3.70","match_key":"l","participant_id":"COGS219_2020_08"},{"rt":null,"stimulus":"Sounds/car_label.wav","key_press":null,"block":1,"trial_type":"audio-keyboard-response","trial_index":336,"time_elapsed":3188309,"internal_node_id":"0.0-13.0-0.71","match_key":"l","participant_id":"COGS219_2020_08"},{"rt":null,"stimulus":"<p style=\"font-size: 48px;\">+</p>","key_press":null,"block":1,"trial_type":"html-keyboard-response","trial_index":337,"time_elapsed":3189300,"internal_node_id":"0.0-13.0-1.71","match_key":"l","participant_id":"COGS219_2020_08"},{"rt":691.8649999424815,"stimulus":"Images/car_cartoon.png","key_press":76,"stim_onset":1581548388236,"block":1,"match_type":"match","image_category":"car","sound_category":"car","audio_type":"label","phase":"test","trial_type":"image-keyboard-response","trial_index":338,"time_elapsed":3189993,"internal_node_id":"0.0-13.0-2.71","match_key":"l","participant_id":"COGS219_2020_08","correct":true},{"rt":null,"stimulus":"Sounds/correct.wav","key_press":null,"block":1,"trial_type":"audio-keyboard-response","trial_index":339,"time_elapsed":3192004,"internal_node_id":"0.0-13.0-3.71","match_key":"l","participant_id":"COGS219_2020_08"},{"rt":null,"stimulus":"Sounds/dog_label.wav","key_press":null,"block":1,"trial_type":"audio-keyboard-response","trial_index":340,"time_elapsed":3192649,"internal_node_id":"0.0-13.0-0.72","match_key":"l","participant_id":"COGS219_2020_08"},{"rt":null,"stimulus":"<p style=\"font-size: 48px;\">+</p>","key_press":null,"block":1,"trial_type":"html-keyboard-response","trial_index":341,"time_elapsed":3193667,"internal_node_id":"0.0-13.0-1.72","match_key":"l","participant_id":"COGS219_2020_08"},{"rt":453.16999999340624,"stimulus":"Images/dog_orig.png","key_press":76,"stim_onset":1581548392603,"block":1,"match_type":"match","image_category":"dog","sound_category":"dog","audio_type":"label","phase":"test","trial_type":"image-keyboard-response","trial_index":342,"time_elapsed":3194121,"internal_node_id":"0.0-13.0-2.72","match_key":"l","participant_id":"COGS219_2020_08","correct":true},{"rt":null,"stimulus":"Sounds/correct.wav","key_press":null,"block":1,"trial_type":"audio-keyboard-response","trial_index":343,"time_elapsed":3196138,"internal_node_id":"0.0-13.0-3.72","match_key":"l","participant_id":"COGS219_2020_08"},{"rt":null,"stimulus":"Sounds/motorcycle_sound.wav","key_press":null,"block":1,"trial_type":"audio-keyboard-response","trial_index":344,"time_elapsed":3197249,"internal_node_id":"0.0-13.0-0.73","match_key":"l","participant_id":"COGS219_2020_08"},{"rt":null,"stimulus":"<p style=\"font-size: 48px;\">+</p>","key_press":null,"block":1,"trial_type":"html-keyboard-response","trial_index":345,"time_elapsed":3198267,"internal_node_id":"0.0-13.0-1.73","match_key":"l","participant_id":"COGS219_2020_08"},{"rt":429.1700000176206,"stimulus":"Images/frog_1.png","key_press":65,"stim_onset":1581548397203,"block":1,"match_type":"non-match","image_category":"frog","sound_category":"motorcycle","audio_type":"sound","phase":"test","trial_type":"image-keyboard-response","trial_index":346,"time_elapsed":3198697,"internal_node_id":"0.0-13.0-2.73","match_key":"l","participant_id":"COGS219_2020_08","correct":true},{"rt":null,"stimulus":"Sounds/correct.wav","key_press":null,"block":1,"trial_type":"audio-keyboard-response","trial_index":347,"time_elapsed":3200714,"internal_node_id":"0.0-13.0-3.73","match_key":"l","participant_id":"COGS219_2020_08"},{"rt":null,"stimulus":"Sounds/cow_sound.wav","key_press":null,"block":1,"trial_type":"audio-keyboard-response","trial_index":348,"time_elapsed":3201729,"internal_node_id":"0.0-13.0-0.74","match_key":"l","participant_id":"COGS219_2020_08"},{"rt":null,"stimulus":"<p style=\"font-size: 48px;\">+</p>","key_press":null,"block":1,"trial_t