[{"rt":3389.2200000118464,"stimulus":"<p>Use KEYBOARD 2 (match LEFT)</p><p>Press MATCH to continue.</p>","key_press":65,"trial_type":"html-keyboard-response","trial_index":0,"time_elapsed":3391,"internal_node_id":"0.0-0.0","participant_id":"longtest"},{"rt":8982.164999993984,"responses":"{\"Q0\":\"longtest\"}","trial_type":"survey-text","trial_index":1,"time_elapsed":12379,"internal_node_id":"0.0-1.0","participant_id":"longtest"},{"rt":2199.0249999944353,"stimulus":"<p>Thank you for agreeing to participate in this study.</p><p>If during any part of the procedure you must stop for any reason, please inform the researcher that you do not wish to continue.</p>","key_press":13,"trial_type":"html-keyboard-response","trial_index":2,"time_elapsed":14582,"internal_node_id":"0.0-2.0","participant_id":"longtest"},{"rt":1078.1850000057602,"stimulus":"<p>In this experiment, you will hear various words or sounds and see pictures of various animals and objects.</p><p>Most of the images will be of common everyday objects, such as cars, cats, cows, firearms, frogs, chickens, whistles, trains, motorcycles, and dogs.</p><p>Some of the images will be real-life stills, while others will be cartoons.</p>","key_press":13,"trial_type":"html-keyboard-response","trial_index":3,"time_elapsed":15662,"internal_node_id":"0.0-3.0","participant_id":"longtest"},{"rt":407.3950000019977,"stimulus":"<p>Sometimes, the word/sound will match the picture, for example you'll hear a meowing sound and see a cat.</p><p>Other times, the picture will not match the sound or word.</p><p>Your task is to decide as quickly as possible if the word/sound matches the picture or not. </p>","key_press":13,"trial_type":"html-keyboard-response","trial_index":4,"time_elapsed":16070,"internal_node_id":"0.0-4.0","participant_id":"longtest"},{"rt":351.0799999930896,"stimulus":"<p>For example, if you hear the word \"cat\" or hear a meowing sound, and then see a picture of a cat, you should press the MATCH key.</p><p> If the sound and image do not match, press NON-MATCH.</p><p> Either key can be used to continue the experiment.</p><p> If you make a mistake, you will hear a buzzing sound.</p><p> Try to respond as quickly as possible, while making as few errors as possible. If you are making mistakes, you are probably rushing.</p>","key_press":13,"trial_type":"html-keyboard-response","trial_index":5,"time_elapsed":16422,"internal_node_id":"0.0-5.0","participant_id":"longtest"},{"rt":575.5300000018906,"stimulus":"<p>During the experiment there will be some breaks during which you can rest your eyes.</p>","key_press":13,"trial_type":"html-keyboard-response","trial_index":6,"time_elapsed":16998,"internal_node_id":"0.0-6.0","participant_id":"longtest"},{"rt":375.1100000081351,"stimulus":"<p>We will begin with 10 practice trials. Please let the experimenter know if you have any questions.</p>","key_press":13,"trial_type":"html-keyboard-response","trial_index":7,"time_elapsed":17374,"internal_node_id":"0.0-7.0","participant_id":"longtest"},{"rt":null,"stimulus":"Sounds/cow_label.wav","key_press":null,"block":0,"trial_type":"audio-keyboard-response","trial_index":8,"time_elapsed":18387,"internal_node_id":"0.0-8.0-0.0","participant_id":"longtest"},{"rt":null,"stimulus":"<p style=\"font-size: 48px;\">+</p>","key_press":null,"block":0,"trial_type":"html-keyboard-response","trial_index":9,"time_elapsed":19396,"internal_node_id":"0.0-8.0-1.0","participant_id":"longtest"},{"rt":null,"stimulus":"Images/frog_3.png","key_press":null,"stim_onset":1580682366550,"block":0,"match_type":"non-match","image_category":"frog","sound_category":"cow","audio_type":"label","phase":"practice","trial_type":"image-keyboard-response","trial_index":10,"time_elapsed":19649,"internal_node_id":"0.0-8.0-2.0","participant_id":"longtest","correct":false},{"rt":null,"stimulus":"Sounds/incorrect.wav","key_press":null,"block":0,"trial_type":"audio-keyboard-response","trial_index":11,"time_elapsed":21653,"internal_node_id":"0.0-8.0-3.0","participant_id":"longtest"},{"rt":null,"stimulus":"Sounds/rooster_sound.wav","key_press":null,"block":0,"trial_type":"audio-keyboard-response","trial_index":12,"time_elapsed":22347,"internal_node_id":"0.0-8.0-0.1","participant_id":"longtest"},{"rt":null,"stimulus":"<p style=\"font-size: 48px;\">+</p>","key_press":null,"block":0,"trial_type":"html-keyboard-response","trial_index":13,"time_elapsed":23346,"internal_node_id":"0.0-8.0-1.1","participant_id":"longtest"},{"rt":null,"stimulus":"Images/cat_3.png","key_press":null,"stim_onset":1580682370500,"block":0,"match_type":"non-match","image_category":"cat","sound_category":"rooster","audio_type":"sound","phase":"practice","trial_type":"image-keyboard-response","trial_index":14,"time_elapsed":23599,"internal_node_id":"0.0-8.0-2.1","participant_id":"longtest","correct":false},{"rt":null,"stimulus":"Sounds/incorrect.wav","key_press":null,"block":0,"trial_type":"audio-keyboard-response","trial_index":15,"time_elapsed":25606,"internal_node_id":"0.0-8.0-3.1","participant_id":"longtest"},{"rt":null,"stimulus":"Sounds/cat_label.wav","key_press":null,"block":0,"trial_type":"audio-keyboard-response","trial_index":16,"time_elapsed":26427,"internal_node_id":"0.0-8.0-0.2","participant_id":"longtest"},{"rt":null,"stimulus":"<p style=\"font-size: 48px;\">+</p>","key_press":null,"block":0,"trial_type":"html-keyboard-response","trial_index":17,"time_elapsed":27430,"internal_node_id":"0.0-8.0-1.2","participant_id":"longtest"},{"rt":null,"stimulus":"Images/car_orig.png","key_press":null,"stim_onset":1580682374583,"block":0,"match_type":"non-match","image_category":"car","sound_category":"cat","audio_type":"label","phase":"practice","trial_type":"image-keyboard-response","trial_index":18,"time_elapsed":27684,"internal_node_id":"0.0-8.0-2.2","participant_id":"longtest","correct":false},{"rt":null,"stimulus":"Sounds/incorrect.wav","key_press":null,"block":0,"trial_type":"audio-keyboard-response","trial_index":19,"time_elapsed":29699,"internal_node_id":"0.0-8.0-3.2","participant_id":"longtest"},{"rt":null,"stimulus":"Sounds/cat_sound.wav","key_press":null,"block":0,"trial_type":"audio-keyboard-response","trial_index":20,"time_elapsed":30527,"internal_node_id":"0.0-8.0-0.3","participant_id":"longtest"},{"rt":null,"stimulus":"<p style=\"font-size: 48px;\">+</p>","key_press":null,"block":0,"trial_type":"html-keyboard-response","trial_index":21,"time_elapsed":31530,"internal_node_id":"0.0-8.0-1.3","participant_id":"longtest"},{"rt":null,"stimulus":"Images/motorcycle_3.png","key_press":null,"stim_onset":1580682378683,"block":0,"match_type":"non-match","image_category":"motorcycle","sound_category":"cat","audio_type":"sound","phase":"practice","trial_type":"image-keyboard-response","trial_index":22,"time_elapsed":31782,"internal_node_id":"0.0-8.0-2.3","participant_id":"longtest","correct":false},{"rt":null,"stimulus":"Sounds/incorrect.wav","key_press":null,"block":0,"trial_type":"audio-keyboard-response","trial_index":23,"time_elapsed":33799,"internal_node_id":"0.0-8.0-3.3","participant_id":"longtest"},{"rt":null,"stimulus":"Sounds/frog_label.wav","key_press":null,"block":0,"trial_type":"audio-keyboard-response","trial_index":24,"time_elapsed":34707,"internal_node_id":"0.0-8.0-0.4","participant_id":"longtest"},{"rt":null,"stimulus":"<p style=\"font-size: 48px;\">+</p>","key_press":null,"block":0,"trial_type":"html-keyboard-response","trial_index":25,"time_elapsed":35713,"internal_node_id":"0.0-8.0-1.4","participant_id":"longtest"},{"rt":null,"stimulus":"Images/frog_cartoon.png","key_press":null,"stim_onset":1580682382866,"block":0,"match_type":"match","image_category":"frog","sound_category":"frog","audio_type":"label","phase":"practice","trial_type":"image-keyboard-response","trial_index":26,"time_elapsed":35966,"internal_node_id":"0.0-8.0-2.4","participant_id":"longtest","correct":false},{"rt":null,"stimulus":"Sounds/incorrect.wav","key_press":null,"block":0,"trial_type":"audio-keyboard-response","trial_index":27,"time_elapsed":37971,"internal_node_id":"0.0-8.0-3.4","participant_id":"longtest"},{"rt":null,"stimulus":"Sounds/car_label.wav","key_press":null,"block":0,"trial_type":"audio-keyboard-response","trial_index":28,"time_elapsed":39047,"internal_node_id":"0.0-8.0-0.5","participant_id":"longtest"},{"rt":null,"stimulus":"<p style=\"font-size: 48px;\">+</p>","key_press":null,"block":0,"trial_type":"html-keyboard-response","trial_index":29,"time_elapsed":40047,"internal_node_id":"0.0-8.0-1.5","participant_id":"longtest"},{"rt":null,"stimulus":"Images/car_1.png","key_press":null,"stim_onset":1580682387200,"block":0,"match_type":"match","image_category":"car","sound_category":"car","audio_type":"label","phase":"practice","trial_type":"image-keyboard-response","trial_index":30,"time_elapsed":40300,"internal_node_id":"0.0-8.0-2.5","participant_id":"longtest","correct":false},{"rt":null,"stimulus":"Sounds/incorrect.wav","key_press":null,"block":0,"trial_type":"audio-keyboard-response","trial_index":31,"time_elapsed":42318,"internal_node_id":"0.0-8.0-3.5","participant_id":"longtest"},{"rt":null,"stimulus":"Sounds/train_sound.wav","key_press":null,"block":0,"trial_type":"audio-keyboard-response","trial_index":32,"time_elapsed":43607,"internal_node_id":"0.0-8.0-0.6","participant_id":"longtest"},{"rt":null,"stimulus":"<p style=\"font-size: 48px;\">+</p>","key_press":null,"block":0,"trial_type":"html-keyboard-response","trial_index":33,"time_elapsed":44613,"internal_node_id":"0.0-8.0-1.6","participant_id":"longtest"},{"rt":null,"stimulus":"Images/rooster_2.png","key_press":null,"stim_onset":1580682391766,"block":0,"match_type":"non-match","image_category":"rooster","sound_category":"train","audio_type":"sound","phase":"practice","trial_type":"image-keyboard-response","trial_index":34,"time_elapsed":44866,"internal_node_id":"0.0-8.0-2.6","participant_id":"longtest","correct":false},{"rt":null,"stimulus":"Sounds/incorrect.wav","key_press":null,"block":0,"trial_type":"audio-keyboard-response","trial_index":35,"time_elapsed":46869,"internal_node_id":"0.0-8.0-3.6","participant_id":"longtest"},{"rt":null,"stimulus":"Sounds/car_sound.wav","key_press":null,"block":0,"trial_type":"audio-keyboard-response","trial_index":36,"time_elapsed":47947,"internal_node_id":"0.0-8.0-0.7","participant_id":"longtest"},{"rt":null,"stimulus":"<p style=\"font-size: 48px;\">+</p>","key_press":null,"block":0,"trial_type":"html-keyboard-response","trial_index":37,"time_elapsed":48947,"internal_node_id":"0.0-8.0-1.7","participant_id":"longtest"},{"rt":null,"stimulus":"Images/car_3.png","key_press":null,"stim_onset":1580682396100,"block":0,"match_type":"match","image_category":"car","sound_category":"car","audio_type":"sound","phase":"practice","trial_type":"image-keyboard-response","trial_index":38,"time_elapsed":49200,"internal_node_id":"0.0-8.0-2.7","participant_id":"longtest","correct":false},{"rt":null,"stimulus":"Sounds/incorrect.wav","key_press":null,"block":0,"trial_type":"audio-keyboard-response","trial_index":39,"time_elapsed":51219,"internal_node_id":"0.0-8.0-3.7","participant_id":"longtest"},{"rt":null,"stimulus":"Sounds/cat_sound.wav","key_press":null,"block":0,"trial_type":"audio-keyboard-response","trial_index":40,"time_elapsed":52047,"internal_node_id":"0.0-8.0-0.8","participant_id":"longtest"},{"rt":null,"stimulus":"<p style=\"font-size: 48px;\">+</p>","key_press":null,"block":0,"trial_type":"html-keyboard-response","trial_index":41,"time_elapsed":53047,"internal_node_id":"0.0-8.0-1.8","participant_id":"longtest"},{"rt":null,"stimulus":"Images/dog_cartoon.png","key_press":null,"stim_onset":1580682400201,"block":0,"match_type":"non-match","image_category":"dog","sound_category":"cat","audio_type":"sound","phase":"practice","trial_type":"image-keyboard-response","trial_index":42,"time_elapsed":53301,"internal_node_id":"0.0-8.0-2.8","participant_id":"longtest","correct":false},{"rt":null,"stimulus":"Sounds/incorrect.wav","key_press":null,"block":0,"trial_type":"audio-keyboard-response","trial_index":43,"time_elapsed":55316,"internal_node_id":"0.0-8.0-3.8","participant_id":"longtest"},{"rt":null,"stimulus":"Sounds/rooster_sound.wav","key_press":null,"block":0,"trial_type":"audio-keyboard-response","trial_index":44,"time_elapsed":56008,"internal_node_id":"0.0-8.0-0.9","participant_id":"longtest"},{"rt":null,"stimulus":"<p style=\"font-size: 48px;\">+</p>","key_press":null,"block":0,"trial_type":"html-keyboard-response","trial_index":45,"time_elapsed":57014,"internal_node_id":"0.0-8.0-1.9","participant_id":"longtest"},{"rt":null,"stimulus":"Images/cow_2.png","key_press":null,"stim_onset":1580682404167,"block":0,"match_type":"non-match","image_category":"cow","sound_category":"rooster","audio_type":"sound","phase":"practice","trial_type":"image-keyboard-response","trial_index":46,"time_elapsed":57267,"internal_node_id":"0.0-8.0-2.9","participant_id":"longtest","correct":false},{"rt":null,"stimulus":"Sounds/incorrect.wav","key_press":null,"block":0,"trial_type":"audio-keyboard-response","trial_index":47,"time_elapsed":59271,"internal_node_id":"0.0-8.0-3.9","participant_id":"longtest"},{"rt":1686.7249999922933,"stimulus":"<p>The rest of the experiment is divided into five blocks with 100 trials in each block. It will take about 45 minutes to complete.</p>","key_press":13,"trial_type":"html-keyboard-response","trial_index":48,"time_elapsed":60959,"internal_node_id":"0.0-9.0","participant_id":"longtest"},{"rt":655.045000006794,"stimulus":"<p>Remember, please do not to move or blink your eyes during the presentation of the images. </p><p>At the end of the experiment, we will show you your scores on the task so you can see how you did.</p><p>The experiment will start on the next screen.</p>","key_press":13,"trial_type":"html-keyboard-response","trial_index":49,"time_elapsed":61615,"internal_node_id":"0.0-10.0","participant_id":"longtest"},{"rt":null,"stimulus":"Sounds/rooster_sound.wav","key_press":null,"block":1,"trial_type":"audio-keyboard-response","trial_index":50,"time_elapsed":64287,"internal_node_id":"0.0-11.0-0.0","participant_id":"longtest"},{"rt":null,"stimulus":"<p style=\"font-size: 48px;\">+</p>","key_press":null,"block":1,"trial_type":"html-keyboard-response","trial_index":51,"time_elapsed":65298,"internal_node_id":"0.0-11.0-1.0","participant_id":"longtest"},{"rt":null,"stimulus":"Images/rooster_1.png","key_press":null,"stim_onset":1580682412451,"block":1,"match_type":"match","image_category":"rooster","sound_category":"rooster","audio_type":"sound","phase":"test","trial_type":"image-keyboard-response","trial_index":52,"time_elapsed":65550,"internal_node_id":"0.0-11.0-2.0","participant_id":"longtest","correct":false},{"rt":null,"stimulus":"Sounds/incorrect.wav","key_press":null,"block":1,"trial_type":"audio-keyboard-response","trial_index":53,"time_elapsed":67555,"internal_node_id":"0.0-11.0-3.0","participant_id":"longtest"},{"rt":null,"stimulus":"Sounds/motorcycle_label.wav","key_press":null,"block":1,"trial_type":"audio-keyboard-response","trial_index":54,"time_elapsed":68688,"internal_node_id":"0.0-11.0-0.1","participant_id":"longtest"},{"rt":null,"stimulus":"<p style=\"font-size: 48px;\">+</p>","key_press":null,"block":1,"trial_type":"html-keyboard-response","trial_index":55,"time_elapsed":69698,"internal_node_id":"0.0-11.0-1.1","participant_id":"longtest"},{"rt":null,"stimulus":"Images/dog_1.png","key_press":null,"stim_onset":1580682416851,"block":1,"match_type":"non-match","image_category":"dog","sound_category":"motorcycle","audio_type":"label","phase":"test","trial_type":"image-keyboard-response","trial_index":56,"time_elapsed":69965,"internal_node_id":"0.0-11.0-2.1","participant_id":"longtest","correct":false},{"rt":null,"stimulus":"Sounds/incorrect.wav","key_press":null,"block":1,"trial_type":"audio-keyboard-response","trial_index":57,"time_elapsed":71972,"internal_node_id":"0.0-11.0-3.1","participant_id":"longtest"},{"rt":null,"stimulus":"Sounds/gun_sound.wav","key_press":null,"block":1,"trial_type":"audio-keyboard-response","trial_index":58,"time_elapsed":72548,"internal_node_id":"0.0-11.0-0.2","participant_id":"longtest"},{"rt":null,"stimulus":"<p style=\"font-size: 48px;\">+</p>","key_press":null,"block":1,"trial_type":"html-keyboard-response","trial_index":59,"time_elapsed":73548,"internal_node_id":"0.0-11.0-1.2","participant_id":"longtest"},{"rt":null,"stimulus":"Images/gun_3.png","key_press":null,"stim_onset":1580682420701,"block":1,"match_type":"match","image_category":"gun","sound_category":"gun","audio_type":"sound","phase":"test","trial_type":"image-keyboard-response","trial_index":60,"time_elapsed":73801,"internal_node_id":"0.0-11.0-2.2","participant_id":"longtest","correct":false},{"rt":null,"stimulus":"Sounds/incorrect.wav","key_press":null,"block":1,"trial_type":"audio-keyboard-response","trial_index":61,"time_elapsed":75817,"internal_node_id":"0.0-11.0-3.2","participant_id":"longtest"},{"rt":null,"stimulus":"Sounds/rooster_sound.wav","key_press":null,"block":1,"trial_type":"audio-keyboard-response","trial_index":62,"time_elapsed":76487,"internal_node_id":"0.0-11.0-0.3","participant_id":"longtest"},{"rt":null,"stimulus":"<p style=\"font-size: 48px;\">+</p>","key_press":null,"block":1,"trial_type":"html-keyboard-response","trial_index":63,"time_elapsed":77498,"internal_node_id":"0.0-11.0-1.3","participant_id":"longtest"},{"rt":null,"stimulus":"Images/rooster_3.png","key_press":null,"stim_onset":1580682424651,"block":1,"match_type":"match","image_category":"rooster","sound_category":"rooster","audio_type":"sound","phase":"test","trial_type":"image-keyboard-response","trial_index":64,"time_elapsed":77764,"internal_node_id":"0.0-11.0-2.3","participant_id":"longtest","correct":false},{"rt":null,"stimulus":"Sounds/incorrect.wav","key_press":null,"block":1,"trial_type":"audio-keyboard-response","trial_index":65,"time_elapsed":79770,"internal_node_id":"0.0-11.0-3.3","participant_id":"longtest"},{"rt":null,"stimulus":"Sounds/car_sound.wav","key_press":null,"block":1,"trial_type":"audio-keyboard-response","trial_index":66,"time_elapsed":80847,"internal_node_id":"0.0-11.0-0.4","participant_id":"longtest"},{"rt":null,"stimulus":"<p style=\"font-size: 48px;\">+</p>","key_press":null,"block":1,"trial_type":"html-keyboard-response","trial_index":67,"time_elapsed":81848,"internal_node_id":"0.0-11.0-1.4","participant_id":"longtest"},{"rt":null,"stimulus":"Images/cat_3.png","key_press":null,"stim_onset":1580682429001,"block":1,"match_type":"non-match","image_category":"cat","sound_category":"car","audio_type":"sound","phase":"test","trial_type":"image-keyboard-response","trial_index":68,"time_elapsed":82100,"internal_node_id":"0.0-11.0-2.4","participant_id":"longtest","correct":false},{"rt":null,"stimulus":"Sounds/incorrect.wav","key_press":null,"block":1,"trial_type":"audio-keyboard-response","trial_index":69,"time_elapsed":84120,"internal_node_id":"0.0-11.0-3.4","participant_id":"longtest"},{"rt":null,"stimulus":"Sounds/whistle_label.wav","key_press":null,"block":1,"trial_type":"audio-keyboard-response","trial_index":70,"time_elapsed":84827,"internal_node_id":"0.0-11.0-0.5","participant_id":"longtest"},{"rt":null,"stimulus":"<p style=\"font-size: 48px;\">+</p>","key_press":null,"block":1,"trial_type":"html-keyboard-response","trial_index":71,"time_elapsed":85831,"internal_node_id":"0.0-11.0-1.5","participant_id":"longtest"},{"rt":null,"stimulus":"Images/car_3.png","key_press":null,"stim_onset":1580682432984,"block":1,"match_type":"non-match","image_category":"car","sound_category":"whistle","audio_type":"label","phase":"test","trial_type":"image-keyboard-response","trial_index":72,"time_elapsed":86085,"internal_node_id":"0.0-11.0-2.5","participant_id":"longtest","correct":false},{"rt":null,"stimulus":"Sounds/incorrect.wav","key_press":null,"block":1,"trial_type":"audio-keyboard-response","trial_index":73,"time_elapsed":88089,"internal_node_id":"0.0-11.0-3.5","participant_id":"longtest"},{"rt":null,"stimulus":"Sounds/train_label.wav","key_press":null,"block":1,"trial_type":"audio-keyboard-response","trial_index":74,"time_elapsed":89368,"internal_node_id":"0.0-11.0-0.6","participant_id":"longtest"},{"rt":null,"stimulus":"<p style=\"font-size: 48px;\">+</p>","key_press":null,"block":1,"trial_type":"html-keyboard-response","trial_index":75,"time_elapsed":90364,"internal_node_id":"0.0-11.0-1.6","participant_id":"longtest"},{"rt":null,"stimulus":"Images/train_2.png","key_press":null,"stim_onset":1580682437518,"block":1,"match_type":"match","image_category":"train","sound_category":"train","audio_type":"label","phase":"test","trial_type":"image-keyboard-response","trial_index":76,"time_elapsed":90618,"internal_node_id":"0.0-11.0-2.6","participant_id":"longtest","correct":false},{"rt":null,"stimulus":"Sounds/incorrect.wav","key_press":null,"block":1,"trial_type":"audio-keyboard-response","trial_index":77,"time_elapsed":92620,"internal_node_id":"0.0-11.0-3.6","participant_id":"longtest"},{"rt":null,"stimulus":"Sounds/cow_sound.wav","key_press":null,"block":1,"trial_type":"audio-keyboard-response","trial_index":78,"time_elapsed":93647,"internal_node_id":"0.0-11.0-0.7","participant_id":"longtest"},{"rt":null,"stimulus":"<p style=\"font-size: 48px;\">+</p>","key_press":null,"block":1,"trial_type":"html-keyboard-response","trial_index":79,"time_elapsed":94648,"internal_node_id":"0.0-11.0-1.7","participant_id":"longtest"},{"rt":null,"stimulus":"Images/motorcycle_3.png","key_press":null,"stim_onset":1580682441801,"block":1,"match_type":"non-match","image_category":"motorcycle","sound_category":"cow","audio_type":"sound","phase":"test","trial_type":"image-keyboard-response","trial_index":80,"time_elapsed":94901,"internal_node_id":"0.0-11.0-2.7","participant_id":"longtest","correct":false},{"rt":null,"stimulus":"Sounds/incorrect.wav","key_press":null,"block":1,"trial_type":"audio-keyboard-response","trial_index":81,"time_elapsed":96917,"internal_node_id":"0.0-11.0-3.7","participant_id":"longtest"},{"rt":null,"stimulus":"Sounds/whistle_sound.wav","key_press":null,"block":1,"trial_type":"audio-keyboard-response","trial_index":82,"time_elapsed":97607,"internal_node_id":"0.0-11.0-0.8","participant_id":"longtest"},{"rt":null,"stimulus":"<p style=\"font-size: 48px;\">+</p>","key_press":null,"block":1,"trial_type":"html-keyboard-response","trial_index":83,"time_elapsed":98615,"internal_node_id":"0.0-11.0-1.8","participant_id":"longtest"},{"rt":null,"stimulus":"Images/dog_orig.png","key_press":null,"stim_onset":1580682445768,"block":1,"match_type":"non-match","image_category":"dog","sound_category":"whistle","audio_type":"sound","phase":"test","trial_type":"image-keyboard-response","trial_index":84,"time_elapsed":98867,"internal_node_id":"0.0-11.0-2.8","participant_id":"longtest","correct":false},{"rt":null,"stimulus":"Sounds/incorrect.wav","key_press":null,"block":1,"trial_type":"audio-keyboard-response","trial_index":85,"time_elapsed":100884,"internal_node_id":"0.0-11.0-3.8","participant_id":"longtest"},{"rt":null,"stimulus":"Sounds/frog_sound.wav","key_press":null,"block":1,"trial_type":"audio-keyboard-response","trial_index":86,"time_elapsed":101787,"internal_node_id":"0.0-11.0-0.9","participant_id":"longtest"},{"rt":null,"stimulus":"<p style=\"font-size: 48px;\">+</p>","key_press":null,"block":1,"trial_type":"html-keyboard-response","trial_index":87,"time_elapsed":102798,"internal_node_id":"0.0-11.0-1.9","participant_id":"longtest"},{"rt":null,"stimulus":"Images/cat_orig.png","key_press":null,"stim_onset":1580682449954,"block":1,"match_type":"non-match","image_category":"cat","sound_category":"frog","audio_type":"sound","phase":"test","trial_type":"image-keyboard-response","trial_index":88,"time_elapsed":103051,"internal_node_id":"0.0-11.0-2.9","participant_id":"longtest","correct":false},{"rt":null,"stimulus":"Sounds/incorrect.wav","key_press":null,"block":1,"trial_type":"audio-keyboard-response","trial_index":89,"time_elapsed":105054,"internal_node_id":"0.0-11.0-3.9","participant_id":"longtest"},{"rt":null,"stimulus":"Sounds/cat_sound.wav","key_press":null,"block":1,"trial_type":"audio-keyboard-response","trial_index":90,"time_elapsed":105887,"internal_node_id":"0.0-11.0-0.10","participant_id":"longtest"},{"rt":null,"stimulus":"<p style=\"font-size: 48px;\">+</p>","key_press":null,"block":1,"trial_type":"html-keyboard-response","trial_index":91,"time_elapsed":106881,"internal_node_id":"0.0-11.0-1.10","participant_id":"longtest"},{"rt":null,"stimulus":"Images/gun_orig.png","key_press":null,"stim_onset":1580682454035,"block":1,"match_type":"non-match","image_category":"gun","sound_category":"cat","audio_type":"sound","phase":"test","trial_type":"image-keyboard-response","trial_index":92,"time_elapsed":107134,"internal_node_id":"0.0-11.0-2.10","participant_id":"longtest","correct":false},{"rt":null,"stimulus":"Sounds/incorrect.wav","key_press":null,"block":1,"trial_type":"audio-keyboard-response","trial_index":93,"time_elapsed":109137,"internal_node_id":"0.0-11.0-3.10","participant_id":"longtest"},{"rt":null,"stimulus":"Sounds/train_sound.wav","key_press":null,"block":1,"trial_type":"audio-keyboard-response","trial_index":94,"time_elapsed":110427,"internal_node_id":"0.0-11.0-0.11","participant_id":"longtest"},{"rt":null,"stimulus":"<p style=\"font-size: 48px;\">+</p>","key_press":null,"block":1,"trial_type":"html-keyboard-response","trial_index":95,"time_elapsed":111432,"internal_node_id":"0.0-11.0-1.11","participant_id":"longtest"},{"rt":null,"stimulus":"Images/train_1.png","key_press":null,"stim_onset":1580682458585,"block":1,"match_type":"match","image_category":"train","sound_category":"train","audio_type":"sound","phase":"test","trial_type":"image-keyboard-response","trial_index":96,"time_elapsed":111686,"internal_node_id":"0.0-11.0-2.11","participant_id":"longtest","correct":false},{"rt":null,"stimulus":"Sounds/incorrect.wav","key_press":null,"block":1,"trial_type":"audio-keyboard-response","trial_index":97,"time_elapsed":113704,"internal_node_id":"0.0-11.0-3.11","participant_id":"longtest"},{"rt":null,"stimulus":"Sounds/train_label.wav","key_press":null,"block":1,"trial_type":"audio-keyboard-response","trial_index":98,"time_elapsed":114988,"internal_node_id":"0.0-11.0-0.12","participant_id":"longtest"},{"rt":null,"stimulus":"<p style=\"font-size: 48px;\">+</p>","key_press":null,"block":1,"trial_type":"html-keyboard-response","trial_index":99,"time_elapsed":115999,"internal_node_id":"0.0-11.0-1.12","participant_id":"longtest"},{"rt":null,"stimulus":"Images/car_cartoon.png","key_press":null,"stim_onset":1580682463152,"block":1,"match_type":"non-match","image_category":"car","sound_category":"train","audio_type":"label","phase":"test","trial_type":"image-keyboard-response","trial_index":100,"time_elapsed":116252,"internal_node_id":"0.0-11.0-2.12","participant_id":"longtest","correct":false},{"rt":null,"stimulus":"Sounds/incorrect.wav","key_press":null,"block":1,"trial_type":"audio-keyboard-response","trial_index":101,"time_elapsed":118255,"internal_node_id":"0.0-11.0-3.12","participant_id":"longtest"},{"rt":null,"stimulus":"Sounds/car_sound.wav","key_press":null,"block":1,"trial_type":"audio-keyboard-response","trial_index":102,"time_elapsed":119328,"internal_node_id":"0.0-11.0-0.13","participant_id":"longtest"},{"rt":null,"stimulus":"<p style=\"font-size: 48px;\">+</p>","key_press":null,"block":1,"trial_type":"html-keyboard-response","trial_index":103,"time_elapsed":120332,"internal_node_id":"0.0-11.0-1.13","participant_id":"longtest"},{"rt":null,"stimulus":"Images/car_1.png","key_press":null,"stim_onset":1580682467485,"block":1,"match_type":"match","image_category":"car","sound_category":"car","audio_type":"sound","phase":"test","trial_type":"image-keyboard-response","trial_index":104,"time_elapsed":120585,"internal_node_id":"0.0-11.0-2.13","participant_id":"longtest","correct":false},{"rt":null,"stimulus":"Sounds/incorrect.wav","key_press":null,"block":1,"trial_type":"audio-keyboard-response","trial_index":105,"time_elapsed":122602,"internal_node_id":"0.0-11.0-3.13","participant_id":"longtest"},{"rt":null,"stimulus":"Sounds/motorcycle_sound.wav","key_press":null,"block":1,"trial_type":"audio-keyboard-response","trial_index":106,"time_elapsed":123728,"internal_node_id":"0.0-11.0-0.14","participant_id":"longtest"},{"rt":null,"stimulus":"<p style=\"font-size: 48px;\">+</p>","key_press":null,"block":1,"trial_type":"html-keyboard-response","trial_index":107,"time_elapsed":124732,"internal_node_id":"0.0-11.0-1.14","participant_id":"longtest"},{"rt":null,"stimulus":"Images/train_3.png","key_press":null,"stim_onset":1580682471885,"block":1,"match_type":"non-match","image_category":"train","sound_category":"motorcycle","audio_type":"sound","phase":"test","trial_type":"image-keyboard-response","trial_index":108,"time_elapsed":124986,"internal_node_id":"0.0-11.0-2.14","participant_id":"longtest","correct":false},{"rt":null,"stimulus":"Sounds/incorrect.wav","key_press":null,"block":1,"trial_type":"audio-keyboard-response","trial_index":109,"time_elapsed":127002,"internal_node_id":"0.0-11.0-3.14","participant_id":"longtest"},{"rt":null,"stimulus":"Sounds/cow_sound.wav","key_press":null,"block":1,"trial_type":"audio-keyboard-response","trial_index":110,"time_elapsed":128028,"internal_node_id":"0.0-11.0-0.15","participant_id":"longtest"},{"rt":null,"stimulus":"<p style=\"font-size: 48px;\">+</p>","key_press":null,"block":1,"trial_type":"html-keyboard-response","trial_index":111,"time_elapsed":129032,"internal_node_id":"0.0-11.0-1.15","participant_id":"longtest"},{"rt":null,"stimulus":"Images/cat_1.png","key_press":null,"stim_onset":1580682476185,"block":1,"match_type":"non-match","image_category":"cat","sound_category":"cow","audio_type":"sound","phase":"test","trial_type":"image-keyboard-response","trial_index":112,"time_elapsed":129284,"internal_node_id":"0.0-11.0-2.15","participant_id":"longtest","correct":false},{"rt":null,"stimulus":"Sounds/incorrect.wav","key_press":null,"block":1,"trial_type":"audio-keyboard-response","trial_index":113,"time_elapsed":131289,"internal_node_id":"0.0-11.0-3.15","participant_id":"longtest"},{"rt":null,"stimulus":"Sounds/cow_label.wav","key_press":null,"block":1,"trial_type":"audio-keyboard-response","trial_index":114,"time_elapsed":132308,"internal_node_id":"0.0-11.0-0.16","participant_id":"longtest"},{"rt":null,"stimulus":"<p style=\"font-size: 48px;\">+</p>","key_press":null,"block":1,"trial_type":"html-keyboard-response","trial_index":115,"time_elapsed":133315,"internal_node_id":"0.0-11.0-1.16","participant_id":"longtest"},{"rt":null,"stimulus":"Images/cow_cartoon.png","key_press":null,"stim_onset":1580682480469,"block":1,"match_type":"match","image_category":"cow","sound_category":"cow","audio_type":"label","phase":"test","trial_type":"image-keyboard-response","trial_index":116,"time_elapsed":133568,"internal_node_id":"0.0-11.0-2.16","participant_id":"longtest","correct":false},{"rt":null,"stimulus":"Sounds/incorrect.wav","key_press":null,"block":1,"trial_type":"audio-keyboard-response","trial_index":117,"time_elapsed":135585,"internal_node_id":"0.0-11.0-3.16","participant_id":"longtest"},{"rt":null,"stimulus":"Sounds/frog_sound.wav","key_press":null,"block":1,"trial_type":"audio-keyboard-response","trial_index":118,"time_elapsed":136488,"internal_node_id":"0.0-11.0-0.17","participant_id":"longtest"},{"rt":null,"stimulus":"<p style=\"font-size: 48px;\">+</p>","key_press":null,"block":1,"trial_type":"html-keyboard-response","trial_index":119,"time_elapsed":137482,"internal_node_id":"0.0-11.0-1.17","participant_id":"longtest"},{"rt":null,"stimulus":"Images/frog_3.png","key_press":null,"stim_onset":1580682484636,"block":1,"match_type":"match","image_category":"frog","sound_category":"frog","audio_type":"sound","phase":"test","trial_type":"image-keyboard-response","trial_index":120,"time_elapsed":137735,"internal_node_id":"0.0-11.0-2.17","participant_id":"longtest","correct":false},{"rt":null,"stimulus":"Sounds/incorrect.wav","key_press":null,"block":1,"trial_type":"audio-keyboard-response","trial_index":121,"time_elapsed":139738,"internal_node_id":"0.0-11.0-3.17","participant_id":"longtest"},{"rt":null,"stimulus":"Sounds/dog_label.wav","key_press":null,"block":1,"trial_type":"audio-keyboard-response","trial_index":122,"time_elapsed":140408,"internal_node_id":"0.0-11.0-0.18","participant_id":"longtest"},{"rt":null,"stimulus":"<p style=\"font-size: 48px;\">+</p>","key_press":null,"block":1,"trial_type":"html-keyboard-response","trial_index":123,"time_elapsed":141416,"internal_node_id":"0.0-11.0-1.18","participant_id":"longtest"},{"rt":null,"stimulus":"Images/frog_2.png","key_press":null,"stim_onset":1580682488569,"block":1,"match_type":"non-match","image_category":"frog","sound_category":"dog","audio_type":"label","phase":"test","trial_type":"image-keyboard-response","trial_index":124,"time_elapsed":141670,"internal_node_id":"0.0-11.0-2.18","participant_id":"longtest","correct":false},{"rt":null,"stimulus":"Sounds/incorrect.wav","key_press":null,"block":1,"trial_type":"audio-keyboard-response","trial_index":125,"time_elapsed":143687,"internal_node_id":"0.0-11.0-3.18","participant_id":"longtest"},{"rt":null,"stimulus":"Sounds/dog_sound.wav","key_press":null,"block":1,"trial_type":"audio-keyboard-response","trial_index":126,"time_elapsed":144388,"internal_node_id":"0.0-11.0-0.19","participant_id":"longtest"},{"rt":null,"stimulus":"<p style=\"font-size: 48px;\">+</p>","key_press":null,"block":1,"trial_type":"html-keyboard-response","trial_index":127,"time_elapsed":145399,"internal_node_id":"0.0-11.0-1.19","participant_id":"longtest"},{"rt":null,"stimulus":"Images/dog_orig.png","key_press":null,"stim_onset":1580682492552,"block":1,"match_type":"match","image_category":"dog","sound_category":"dog","audio_type":"sound","phase":"test","trial_type":"image-keyboard-response","trial_index":128,"time_elapsed":145652,"internal_node_id":"0.0-11.0-2.19","participant_id":"longtest","correct":false},{"rt":null,"stimulus":"Sounds/incorrect.wav","key_press":null,"block":1,"trial_type":"audio-keyboard-response","trial_index":129,"time_elapsed":147655,"internal_node_id":"0.0-11.0-3.19","participant_id":"longtest"},{"rt":null,"stimulus":"Sounds/train_label.wav","key_press":null,"block":1,"trial_type":"audio-keyboard-response","trial_index":130,"time_elapsed":148928,"internal_node_id":"0.0-11.0-0.20","participant_id":"longtest"},{"rt":null,"stimulus":"<p style=\"font-size: 48px;\">+</p>","key_press":null,"block":1,"trial_type":"html-keyboard-response","trial_index":131,"time_elapsed":149932,"internal_node_id":"0.0-11.0-1.20","participant_id":"longtest"},{"rt":null,"stimulus":"Images/whistle_2.png","key_press":null,"stim_onset":1580682497086,"block":1,"match_type":"non-match","image_category":"whistle","sound_category":"train","audio_type":"label","phase":"test","trial_type":"image-keyboard-response","trial_index":132,"time_elapsed":150186,"internal_node_id":"0.0-11.0-2.20","participant_id":"longtest","correct":false},{"rt":null,"stimulus":"Sounds/incorrect.wav","key_press":null,"block":1,"trial_type":"audio-keyboard-response","trial_index":133,"time_elapsed":152203,"internal_node_id":"0.0-11.0-3.20","participant_id":"longtest"},{"rt":null,"stimulus":"Sounds/whistle_label.wav","key_press":null,"block":1,"trial_type":"audio-keyboard-response","trial_index":134,"time_elapsed":152908,"internal_node_id":"0.0-11.0-0.21","participant_id":"longtest"},{"rt":null,"stimulus":"<p style=\"font-size: 48px;\">+</p>","key_press":null,"block":1,"trial_type":"html-keyboard-response","trial_index":135,"time_elapsed":153916,"internal_node_id":"0.0-11.0-1.21","participant_id":"longtest"},{"rt":null,"stimulus":"Images/whistle_cartoon.png","key_press":null,"stim_onset":1580682501069,"block":1,"match_type":"match","image_category":"whistle","sound_category":"whistle","audio_type":"label","phase":"test","trial_type":"image-keyboard-response","trial_index":136,"time_elapsed":154168,"internal_node_id":"0.0-11.0-2.21","participant_id":"longtest","correct":false},{"rt":null,"stimulus":"Sounds/incorrect.wav","key_press":null,"block":1,"trial_type":"audio-keyboard-response","trial_index":137,"time_elapsed":156171,"internal_node_id":"0.0-11.0-3.21","participant_id":"longtest"},{"rt":null,"stimulus":"Sounds/motorcycle_label.wav","key_press":null,"block":1,"trial_type":"audio-keyboard-response","trial_index":138,"time_elapsed":157308,"internal_node_id":"0.0-11.0-0.22","participant_id":"longtest"},{"rt":null,"stimulus":"<p style=\"font-size: 48px;\">+</p>","key_press":null,"block":1,"trial_type":"html-keyboard-response","trial_index":139,"time_elapsed":158316,"internal_node_id":"0.0-11.0-1.22","participant_id":"longtest"},{"rt":null,"stimulus":"Images/gun_3.png","key_press":null,"stim_onset":1580682505469,"block":1,"match_type":"non-match","image_category":"gun","sound_category":"motorcycle","audio_type":"label","phase":"test","trial_type":"image-keyboard-response","trial_index":140,"time_elapsed":158568,"internal_node_id":"0.0-11.0-2.22","participant_id":"longtest","correct":false},{"rt":null,"stimulus":"Sounds/incorrect.wav","key_press":null,"block":1,"trial_type":"audio-keyboard-response","trial_index":141,"time_elapsed":160572,"internal_node_id":"0.0-11.0-3.22","participant_id":"longtest"},{"rt":null,"stimulus":"Sounds/motorcycle_label.wav","key_press":null,"block":1,"trial_type":"audio-keyboard-response","trial_index":142,"time_elapsed":161668,"internal_node_id":"0.0-11.0-0.23","participant_id":"longtest"},{"rt":null,"stimulus":"<p style=\"font-size: 48px;\">+</p>","key_press":null,"block":1,"trial_type":"html-keyboard-response","trial_index":143,"time_elapsed":162666,"internal_node_id":"0.0-11.0-1.23","participant_id":"longtest"},{"rt":null,"stimulus":"Images/motorcycle_cartoon.png","key_press":null,"stim_onset":1580682509819,"block":1,"match_type":"match","image_category":"motorcycle","sound_category":"motorcycle","audio_type":"label","phase":"test","trial_type":"image-keyboard-response","trial_index":144,"time_elapsed":162918,"internal_node_id":"0.0-11.0-2.23","participant_id":"longtest","correct":false},{"rt":null,"stimulus":"Sounds/incorrect.wav","key_press":null,"block":1,"trial_type":"audio-keyboard-response","trial_index":145,"time_elapsed":164922,"internal_node_id":"0.0-11.0-3.23","participant_id":"longtest"},{"rt":null,"stimulus":"Sounds/motorcycle_sound.wav","key_press":null,"block":1,"trial_type":"audio-keyboard-response","trial_index":146,"time_elapsed":166048,"internal_node_id":"0.0-11.0-0.24","participant_id":"longtest"},{"rt":null,"stimulus":"<p style=\"font-size: 48px;\">+</p>","key_press":null,"block":1,"trial_type":"html-keyboard-response","trial_index":147,"time_elapsed":167099,"internal_node_id":"0.0-11.0-1.24","participant_id":"longtest"},{"rt":null,"stimulus":"Images/motorcycle_1.png","key_press":null,"stim_onset":1580682514252,"block":1,"match_type":"match","image_category":"motorcycle","sound_category":"motorcycle","audio_type":"sound","phase":"test","trial_type":"image-keyboard-response","trial_index":148,"time_elapsed":167352,"internal_node_id":"0.0-11.0-2.24","participant_id":"longtest","correct":false},{"rt":null,"stimulus":"Sounds/incorrect.wav","key_press":null,"block":1,"trial_type":"audio-keyboard-response","trial_index":149,"time_elapsed":169356,"internal_node_id":"0.0-11.0-3.24","participant_id":"longtest"},{"rt":null,"stimulus":"Sounds/cow_label.wav","key_press":null,"block":1,"trial_type":"audio-keyboard-response","trial_index":150,"time_elapsed":170368,"internal_node_id":"0.0-11.0-0.25","participant_id":"longtest"},{"rt":null,"stimulus":"<p style=\"font-size: 48px;\">+</p>","key_press":null,"block":1,"trial_type":"html-keyboard-response","trial_index":151,"time_elapsed":171366,"internal_node_id":"0.0-11.0-1.25","participant_id":"longtest"},{"rt":null,"stimulus":"Images/cow_orig.png","key_press":null,"stim_onset":1580682518519,"block":1,"match_type":"match","image_category":"cow","sound_category":"cow","audio_type":"label","phase":"test","trial_type":"image-keyboard-response","trial_index":152,"time_elapsed":171619,"internal_node_id":"0.0-11.0-2.25","participant_id":"longtest","correct":false},{"rt":null,"stimulus":"Sounds/incorrect.wav","key_press":null,"block":1,"trial_type":"audio-keyboard-response","trial_index":153,"time_elapsed":173623,"internal_node_id":"0.0-11.0-3.25","participant_id":"longtest"},{"rt":null,"stimulus":"Sounds/motorcycle_sound.wav","key_press":null,"block":1,"trial_type":"audio-keyboard-response","trial_index":154,"time_elapsed":174708,"internal_node_id":"0.0-11.0-0.26","participant_id":"longtest"},{"rt":null,"stimulus":"<p style=\"font-size: 48px;\">+</p>","key_press":null,"block":1,"trial_type":"html-keyboard-response","trial_index":155,"time_elapsed":175716,"internal_node_id":"0.0-11.0-1.26","participant_id":"longtest"},{"rt":null,"stimulus":"Images/whistle_cartoon.png","key_press":null,"stim_onset":1580682522869,"block":1,"match_type":"non-match","image_category":"whistle","sound_category":"motorcycle","audio_type":"sound","phase":"test","trial_type":"image-keyboard-response","trial_index":156,"time_elapsed":175969,"internal_node_id":"0.0-11.0-2.26","participant_id":"longtest","correct":false},{"rt":null,"stimulus":"Sounds/incorrect.wav","key_press":null,"block":1,"trial_type":"audio-keyboard-response","trial_index":157,"time_elapsed":177987,"internal_node_id":"0.0-11.0-3.26","participant_id":"longtest"},{"rt":null,"stimulus":"Sounds/train_sound.wav","key_press":null,"block":1,"trial_type":"audio-keyboard-response","trial_index":158,"time_elapsed":179288,"internal_node_id":"0.0-11.0-0.27","participant_id":"longtest"},{"rt":null,"stimulus":"<p style=\"font-size: 48px;\">+</p>","key_press":null,"block":1,"trial_type":"html-keyboard-response","trial_index":159,"time_elapsed":180300,"internal_node_id":"0.0-11.0-1.27","participant_id":"longtest"},{"rt":null,"stimulus":"Images/train_cartoon.png","key_press":null,"stim_onset":1580682527453,"block":1,"match_type":"match","image_category":"train","sound_category":"train","audio_type":"sound","phase":"test","trial_type":"image-keyboard-response","trial_index":160,"time_elapsed":180553,"internal_node_id":"0.0-11.0-2.27","participant_id":"longtest","correct":false},{"rt":null,"stimulus":"Sounds/incorrect.wav","key_press":null,"block":1,"trial_type":"audio-keyboard-response","trial_index":161,"time_elapsed":182571,"internal_node_id":"0.0-11.0-3.27","participant_id":"longtest"},{"rt":null,"stimulus":"Sounds/cow_sound.wav","key_press":null,"block":1,"trial_type":"audio-keyboard-response","trial_index":162,"time_elapsed":183608,"internal_node_id":"0.0-11.0-0.28","participant_id":"longtest"},{"rt":null,"stimulus":"<p style=\"font-size: 48px;\">+</p>","key_press":null,"block":1,"trial_type":"html-keyboard-response","trial_index":163,"time_elapsed":184616,"internal_node_id":"0.0-11.0-1.28","participant_id":"longtest"},{"rt":null,"stimulus":"Images/gun_2.png","key_press":null,"stim_onset":1580682531769,"block":1,"match_type":"non-match","image_category":"gun","sound_category":"cow","audio_type":"sound","phase":"test","trial_type":"image-keyboard-response","trial_index":164,"time_elapsed":184869,"internal_node_id":"0.0-11.0-2.28","participant_id":"longtest","correct":false},{"rt":null,"stimulus":"Sounds/incorrect.wav","key_press":null,"block":1,"trial_type":"audio-keyboard-response","trial_index":165,"time_elapsed":186887,"internal_node_id":"0.0-11.0-3.28","participant_id":"longtest"},{"rt":null,"stimulus":"Sounds/car_label.wav","key_press":null,"block":1,"trial_type":"audio-keyboard-response","trial_index":166,"time_elapsed":187968,"internal_node_id":"0.0-11.0-0.29","participant_id":"longtest"},{"rt":null,"stimulus":"<p style=\"font-size: 48px;\">+</p>","key_press":null,"block":1,"trial_type":"html-keyboard-response","trial_index":167,"time_elapsed":188966,"internal_node_id":"0.0-11.0-1.29","participant_id":"longtest"},{"rt":null,"stimulus":"Images/train_cartoon.png","key_press":null,"stim_onset":1580682536120,"block":1,"match_type":"non-match","image_category":"train","sound_category":"car","audio_type":"label","phase":"test","trial_type":"image-keyboard-response","trial_index":168,"time_elapsed":189222,"internal_node_id":"0.0-11.0-2.29","participant_id":"longtest","correct":false},{"rt":null,"stimulus":"Sounds/incorrect.wav","key_press":null,"block":1,"trial_type":"audio-keyboard-response","trial_index":169,"time_elapsed":191238,"internal_node_id":"0.0-11.0-3.29","participant_id":"longtest"},{"rt":null,"stimulus":"Sounds/rooster_label.wav","key_press":null,"block":1,"trial_type":"audio-keyboard-response","trial_index":170,"time_elapsed":191928,"internal_node_id":"0.0-11.0-0.30","participant_id":"longtest"},{"rt":null,"stimulus":"<p style=\"font-size: 48px;\">+</p>","key_press":null,"block":1,"trial_type":"html-keyboard-response","trial_index":171,"time_elapsed":192933,"internal_node_id":"0.0-11.0-1.30","participant_id":"longtest"},{"rt":null,"stimulus":"Images/car_orig.png","key_press":null,"stim_onset":1580682540087,"block":1,"match_type":"non-match","image_category":"car","sound_category":"rooster","audio_type":"label","phase":"test","trial_type":"image-keyboard-response","trial_index":172,"time_elapsed":193186,"internal_node_id":"0.0-11.0-2.30","participant_id":"longtest","correct":false},{"rt":null,"stimulus":"Sounds/incorrect.wav","key_press":null,"block":1,"trial_type":"audio-keyboard-response","trial_index":173,"time_elapsed":195203,"internal_node_id":"0.0-11.0-3.30","participant_id":"longtest"},{"rt":null,"stimulus":"Sounds/rooster_sound.wav","key_press":null,"block":1,"trial_type":"audio-keyboard-response","trial_index":174,"time_elapsed":195908,"internal_node_id":"0.0-11.0-0.31","participant_id":"longtest"},{"rt":null,"stimulus":"<p style=\"font-size: 48px;\">+</p>","key_press":null,"block":1,"trial_type":"html-keyboard-response","trial_index":175,"time_elapsed":196916,"internal_node_id":"0.0-11.0-1.31","participant_id":"longtest"},{"rt":null,"stimulus":"Images/rooster_cartoon.png","key_press":null,"stim_onset":1580682544070,"block":1,"match_type":"match","image_category":"rooster","sound_category":"rooster","audio_type":"sound","phase":"test","trial_type":"image-keyboard-response","trial_index":176,"time_elapsed":197169,"internal_node_id":"0.0-11.0-2.31","participant_id":"longtest","correct":false},{"rt":null,"stimulus":"Sounds/incorrect.wav","key_press":null,"block":1,"trial_type":"audio-keyboard-response","trial_index":177,"time_elapsed":199173,"internal_node_id":"0.0-11.0-3.31","participant_id":"longtest"},{"rt":null,"stimulus":"Sounds/gun_label.wav","key_press":null,"block":1,"trial_type":"audio-keyboard-response","trial_index":178,"time_elapsed":199748,"internal_node_id":"0.0-11.0-0.32","participant_id":"longtest"},{"rt":null,"stimulus":"<p style=\"font-size: 48px;\">+</p>","key_press":null,"block":1,"trial_type":"html-keyboard-response","trial_index":179,"time_elapsed":200766,"internal_node_id":"0.0-11.0-1.32","participant_id":"longtest"},{"rt":null,"stimulus":"Images/gun_2.png","key_press":null,"stim_onset":1580682547920,"block":1,"match_type":"match","image_category":"gun","sound_category":"gun","audio_type":"label","phase":"test","trial_type":"image-keyboard-response","trial_index":180,"time_elapsed":201019,"internal_node_id":"0.0-11.0-2.32","participant_id":"longtest","correct":false},{"rt":null,"stimulus":"Sounds/incorrect.wav","key_press":null,"block":1,"trial_type":"audio-keyboard-response","trial_index":181,"time_elapsed":203023,"internal_node_id":"0.0-11.0-3.32","participant_id":"longtest"},{"rt":null,"stimulus":"Sounds/car_label.wav","key_press":null,"block":1,"trial_type":"audio-keyboard-response","trial_index":182,"time_elapsed":204068,"internal_node_id":"0.0-11.0-0.33","participant_id":"longtest"},{"rt":null,"stimulus":"<p style=\"font-size: 48px;\">+</p>","key_press":null,"block":1,"trial_type":"html-keyboard-response","trial_index":183,"time_elapsed":205067,"internal_node_id":"0.0-11.0-1.33","participant_id":"longtest"},{"rt":null,"stimulus":"Images/car_orig.png","key_press":null,"stim_onset":1580682552220,"block":1,"match_type":"match","image_category":"car","sound_category":"car","audio_type":"label","phase":"test","trial_type":"image-keyboard-response","trial_index":184,"time_elapsed":205320,"internal_node_id":"0.0-11.0-2.33","participant_id":"longtest","correct":false},{"rt":null,"stimulus":"Sounds/incorrect.wav","key_press":null,"block":1,"trial_type":"audio-keyboard-response","trial_index":185,"time_elapsed":207338,"internal_node_id":"0.0-11.0-3.33","participant_id":"longtest"},{"rt":null,"stimulus":"Sounds/cow_label.wav","key_press":null,"block":1,"trial_type":"audio-keyboard-response","trial_index":186,"time_elapsed":208368,"internal_node_id":"0.0-11.0-0.34","participant_id":"longtest"},{"rt":null,"stimulus":"<p style=\"font-size: 48px;\">+</p>","key_press":null,"block":1,"trial_type":"html-keyboard-response","trial_index":187,"time_elapsed":209366,"internal_node_id":"0.0-11.0-1.34","participant_id":"longtest"},{"rt":null,"stimulus":"Images/cow_3.png","key_press":null,"stim_onset":1580682556520,"block":1,"match_type":"match","image_category":"cow","sound_category":"cow","audio_type":"label","phase":"test","trial_type":"image-keyboard-response","trial_index":188,"time_elapsed":209619,"internal_node_id":"0.0-11.0-2.34","participant_id":"longtest","correct":false},{"rt":null,"stimulus":"Sounds/incorrect.wav","key_press":null,"block":1,"trial_type":"audio-keyboard-response","trial_index":189,"time_elapsed":211623,"internal_node_id":"0.0-11.0-3.34","participant_id":"longtest"},{"rt":null,"stimulus":"Sounds/cow_sound.wav","key_press":null,"block":1,"trial_type":"audio-keyboard-response","trial_index":190,"time_elapsed":212648,"internal_node_id":"0.0-11.0-0.35","participant_id":"longtest"},{"rt":null,"stimulus":"<p style=\"font-size: 48px;\">+</p>","key_press":null,"block":1,"trial_type":"html-keyboard-response","trial_index":191,"time_elapsed":213667,"internal_node_id":"0.0-11.0-1.35","participant_id":"longtest"},{"rt":null,"stimulus":"Images/cow_1.png","key_press":null,"stim_onset":1580682560820,"block":1,"match_type":"match","image_category":"cow","sound_category":"cow","audio_type":"sound","phase":"test","trial_type":"image-keyboard-response","trial_index":192,"time_elapsed":213919,"internal_node_id":"0.0-11.0-2.35","participant_id":"longtest","correct":false},{"rt":null,"stimulus":"Sounds/incorrect.wav","key_press":null,"block":1,"trial_type":"audio-keyboard-response","trial_index":193,"time_elapsed":215923,"internal_node_id":"0.0-11.0-3.35","participant_id":"longtest"},{"rt":null,"stimulus":"Sounds/whistle_label.wav","key_press":null,"block":1,"trial_type":"audio-keyboard-response","trial_index":194,"time_elapsed":216628,"internal_node_id":"0.0-11.0-0.36","participant_id":"longtest"},{"rt":null,"stimulus":"<p style=\"font-size: 48px;\">+</p>","key_press":null,"block":1,"trial_type":"html-keyboard-response","trial_index":195,"time_elapsed":217633,"internal_node_id":"0.0-11.0-1.36","participant_id":"longtest"},{"rt":null,"stimulus":"Images/whistle_1.png","key_press":null,"stim_onset":1580682564786,"block":1,"match_type":"match","image_category":"whistle","sound_category":"whistle","audio_type":"label","phase":"test","trial_type":"image-keyboard-response","trial_index":196,"time_elapsed":217886,"internal_node_id":"0.0-11.0-2.36","participant_id":"longtest","correct":false},{"rt":null,"stimulus":"Sounds/incorrect.wav","key_press":null,"block":1,"trial_type":"audio-keyboard-response","trial_index":197,"time_elapsed":219891,"internal_node_id":"0.0-11.0-3.36","participant_id":"longtest"},{"rt":null,"stimulus":"Sounds/whistle_label.wav","key_press":null,"block":1,"trial_type":"audio-keyboard-response","trial_index":198,"time_elapsed":220568,"internal_node_id":"0.0-11.0-0.37","participant_id":"longtest"},{"rt":null,"stimulus":"<p style=\"font-size: 48px;\">+</p>","key_press":null,"block":1,"trial_type":"html-keyboard-response","trial_index":199,"time_elapsed":221567,"internal_node_id":"0.0-11.0-1.37","participant_id":"longtest"},{"rt":null,"stimulus":"Images/train_2.png","key_press":null,"stim_onset":1580682568720,"block":1,"match_type":"non-match","image_category":"train","sound_category":"whistle","audio_type":"label","phase":"test","trial_type":"image-keyboard-response","trial_index":200,"time_elapsed":221820,"internal_node_id":"0.0-11.0-2.37","participant_id":"longtest","correct":false},{"rt":null,"stimulus":"Sounds/incorrect.wav","key_press":null,"block":1,"trial_type":"audio-keyboard-response","trial_index":201,"time_elapsed":223823,"internal_node_id":"0.0-11.0-3.37","participant_id":"longtest"},{"rt":null,"stimulus":"Sounds/motorcycle_label.wav","key_press":null,"block":1,"trial_type":"audio-keyboard-response","trial_index":202,"time_elapsed":224968,"internal_node_id":"0.0-11.0-0.38","participant_id":"longtest"},{"rt":null,"stimulus":"<p style=\"font-size: 48px;\">+</p>","key_press":null,"block":1,"trial_type":"html-keyboard-response","trial_index":203,"time_elapsed":225967,"internal_node_id":"0.0-11.0-1.38","participant_id":"longtest"},{"rt":null,"stimulus":"Images/motorcycle_2.png","key_press":null,"stim_onset":1580682573120,"block":1,"match_type":"match","image_category":"motorcycle","sound_category":"motorcycle","audio_type":"label","phase":"test","trial_type":"image-keyboard-response","trial_index":204,"time_elapsed":226220,"internal_node_id":"0.0-11.0-2.38","participant_id":"longtest","correct":false},{"rt":null,"stimulus":"Sounds/incorrect.wav","key_press":null,"block":1,"trial_type":"audio-keyboard-response","trial_index":205,"time_elapsed":228223,"internal_node_id":"0.0-11.0-3.38","participant_id":"longtest"},{"rt":null,"stimulus":"Sounds/car_sound.wav","key_press":null,"block":1,"trial_type":"audio-keyboard-response","trial_index":206,"time_elapsed":229308,"internal_node_id":"0.0-11.0-0.39","participant_id":"longtest"},{"rt":null,"stimulus":"<p style=\"font-size: 48px;\">+</p>","key_press":null,"block":1,"trial_type":"html-keyboard-response","trial_index":207,"time_elapsed":230317,"internal_node_id":"0.0-11.0-1.39","participant_id":"longtest"},{"rt":null,"stimulus":"Images/car_cartoon.png","key_press":null,"stim_onset":1580682577470,"block":1,"match_type":"match","image_category":"car","sound_category":"car","audio_type":"sound","phase":"test","trial_type":"image-keyboard-response","trial_index":208,"time_elapsed":230570,"internal_node_id":"0.0-11.0-2.39","participant_id":"longtest","correct":false},{"rt":null,"stimulus":"Sounds/incorrect.wav","key_press":null,"block":1,"trial_type":"audio-keyboard-response","trial_index":209,"time_elapsed":232587,"internal_node_id":"0.0-11.0-3.39","participant_id":"longtest"},{"rt":null,"stimulus":"Sounds/frog_label.wav","key_press":null,"block":1,"trial_type":"audio-keyboard-response","trial_index":210,"time_elapsed":233489,"internal_node_id":"0.0-11.0-0.40","participant_id":"longtest"},{"rt":null,"stimulus":"<p style=\"font-size: 48px;\">+</p>","key_press":null,"block":1,"trial_type":"html-keyboard-response","trial_index":211,"time_elapsed":234484,"internal_node_id":"0.0-11.0-1.40","participant_id":"longtest"},{"rt":null,"stimulus":"Images/frog_cartoon.png","key_press":null,"stim_onset":1580682581638,"block":1,"match_type":"match","image_category":"frog","sound_category":"frog","audio_type":"label","phase":"test","trial_type":"image-keyboard-response","trial_index":212,"time_elapsed":234736,"internal_node_id":"0.0-11.0-2.40","participant_id":"longtest","correct":false},{"rt":null,"stimulus":"Sounds/incorrect.wav","key_press":null,"block":1,"trial_type":"audio-keyboard-response","trial_index":213,"time_elapsed":236740,"internal_node_id":"0.0-11.0-3.40","participant_id":"longtest"},{"rt":null,"stimulus":"Sounds/dog_sound.wav","key_press":null,"block":1,"trial_type":"audio-keyboard-response","trial_index":214,"time_elapsed":237449,"internal_node_id":"0.0-11.0-0.41","participant_id":"longtest"},{"rt":null,"stimulus":"<p style=\"font-size: 48px;\">+</p>","key_press":null,"block":1,"trial_type":"html-keyboard-response","trial_index":215,"time_elapsed":238451,"internal_node_id":"0.0-11.0-1.41","participant_id":"longtest"},{"rt":null,"stimulus":"Images/dog_2.png","key_press":null,"stim_onset":1580682585604,"block":1,"match_type":"match","image_category":"dog","sound_category":"dog","audio_type":"sound","phase":"test","trial_type":"image-keyboard-response","trial_index":216,"time_elapsed":238703,"internal_node_id":"0.0-11.0-2.41","participant_id":"longtest","correct":false},{"rt":null,"stimulus":"Sounds/incorrect.wav","key_press":null,"block":1,"trial_type":"audio-keyboard-response","trial_index":217,"time_elapsed":240706,"internal_node_id":"0.0-11.0-3.41","participant_id":"longtest"},{"rt":null,"stimulus":"Sounds/gun_sound.wav","key_press":null,"block":1,"trial_type":"audio-keyboard-response","trial_index":218,"time_elapsed":241289,"internal_node_id":"0.0-11.0-0.42","participant_id":"longtest"},{"rt":null,"stimulus":"<p style=\"font-size: 48px;\">+</p>","key_press":null,"block":1,"trial_type":"html-keyboard-response","trial_index":219,"time_elapsed":242284,"internal_node_id":"0.0-11.0-1.42","participant_id":"longtest"},{"rt":null,"stimulus":"Images/gun_orig.png","key_press":null,"stim_onset":1580682589437,"block":1,"match_type":"match","image_category":"gun","sound_category":"gun","audio_type":"sound","phase":"test","trial_type":"image-keyboard-response","trial_index":220,"time_elapsed":242538,"internal_node_id":"0.0-11.0-2.42","participant_id":"longtest","correct":false},{"rt":null,"stimulus":"Sounds/incorrect.wav","key_press":null,"block":1,"trial_type":"audio-keyboard-response","trial_index":221,"time_elapsed":244555,"internal_node_id":"0.0-11.0-3.42","participant_id":"longtest"},{"rt":null,"stimulus":"Sounds/motorcycle_sound.wav","key_press":null,"block":1,"trial_type":"audio-keyboard-response","trial_index":222,"time_elapsed":245669,"internal_node_id":"0.0-11.0-0.43","participant_id":"longtest"},{"rt":null,"stimulus":"<p style=\"font-size: 48px;\">+</p>","key_press":null,"block":1,"trial_type":"html-keyboard-response","trial_index":223,"time_elapsed":246667,"internal_node_id":"0.0-11.0-1.43","participant_id":"longtest"},{"rt":null,"stimulus":"Images/cat_2.png","key_press":null,"stim_onset":1580682593821,"block":1,"match_type":"non-match","image_category":"cat","sound_category":"motorcycle","audio_type":"sound","phase":"test","trial_type":"image-keyboard-response","trial_index":224,"time_elapsed":246920,"internal_node_id":"0.0-11.0-2.43","participant_id":"longtest","correct":false},{"rt":null,"stimulus":"Sounds/incorrect.wav","key_press":null,"block":1,"trial_type":"audio-keyboard-response","trial_index":225,"time_elapsed":248925,"internal_node_id":"0.0-11.0-3.43","participant_id":"longtest"},{"rt":null,"stimulus":"Sounds/train_sound.wav","key_press":null,"block":1,"trial_type":"audio-keyboard-response","trial_index":226,"time_elapsed":250229,"internal_node_id":"0.0-11.0-0.44","participant_id":"longtest"},{"rt":null,"stimulus":"<p style=\"font-size: 48px;\">+</p>","key_press":null,"block":1,"trial_type":"html-keyboard-response","trial_index":227,"time_elapsed":251234,"internal_node_id":"0.0-11.0-1.44","participant_id":"longtest"},{"rt":null,"stimulus":"Images/train_3.png","key_press":null,"stim_onset":1580682598387,"block":1,"match_type":"match","image_category":"train","sound_category":"train","audio_type":"sound","phase":"test","trial_type":"image-keyboard-response","trial_index":228,"time_elapsed":251488,"internal_node_id":"0.0-11.0-2.44","participant_id":"longtest","correct":false},{"rt":null,"stimulus":"Sounds/incorrect.wav","key_press":null,"block":1,"trial_type":"audio-keyboard-response","trial_index":229,"time_elapsed":253491,"internal_node_id":"0.0-11.0-3.44","participant_id":"longtest"},{"rt":null,"stimulus":"Sounds/whistle_sound.wav","key_press":null,"block":1,"trial_type":"audio-keyboard-response","trial_index":230,"time_elapsed":254189,"internal_node_id":"0.0-11.0-0.45","participant_id":"longtest"},{"rt":null,"stimulus":"<p style=\"font-size: 48px;\">+</p>","key_press":null,"block":1,"trial_type":"html-keyboard-response","trial_index":231,"time_elapsed":255184,"internal_node_id":"0.0-11.0-1.45","participant_id":"longtest"},{"rt":null,"stimulus":"Images/whistle_3.png","key_press":null,"stim_onset":1580682602337,"block":1,"match_type":"match","image_category":"whistle","sound_category":"whistle","audio_type":"sound","phase":"test","trial_type":"image-keyboard-response","trial_index":232,"time_elapsed":255437,"internal_node_id":"0.0-11.0-2.45","participant_id":"longtest","correct":false},{"rt":null,"stimulus":"Sounds/incorrect.wav","key_press":null,"block":1,"trial_type":"audio-keyboard-response","trial_index":233,"time_elapsed":257440,"internal_node_id":"0.0-11.0-3.45","participant_id":"longtest"},{"rt":null,"stimulus":"Sounds/dog_label.wav","key_press":null,"block":1,"trial_type":"audio-keyboard-response","trial_index":234,"time_elapsed":258109,"internal_node_id":"0.0-11.0-0.46","participant_id":"longtest"},{"rt":null,"stimulus":"<p style=\"font-size: 48px;\">+</p>","key_press":null,"block":1,"trial_type":"html-keyboard-response","trial_index":235,"time_elapsed":259117,"internal_node_id":"0.0-11.0-1.46","participant_id":"longtest"},{"rt":null,"stimulus":"Images/dog_1.png","key_press":null,"stim_onset":1580682606271,"block":1,"match_type":"match","image_category":"dog","sound_category":"dog","audio_type":"label","phase":"test","trial_type":"image-keyboard-response","trial_index":236,"time_elapsed":259370,"internal_node_id":"0.0-11.0-2.46","participant_id":"longtest","correct":false},{"rt":null,"stimulus":"Sounds/incorrect.wav","key_press":null,"block":1,"trial_type":"audio-keyboard-response","trial_index":237,"time_elapsed":261374,"internal_node_id":"0.0-11.0-3.46","participant_id":"longtest"},{"rt":null,"stimulus":"Sounds/frog_sound.wav","key_press":null,"block":1,"trial_type":"audio-keyboard-response","trial_index":238,"time_elapsed":262289,"internal_node_id":"0.0-11.0-0.47","participant_id":"longtest"},{"rt":null,"stimulus":"<p style=\"font-size: 48px;\">+</p>","key_press":null,"block":1,"trial_type":"html-keyboard-response","trial_index":239,"time_elapsed":263284,"internal_node_id":"0.0-11.0-1.47","participant_id":"longtest"},{"rt":null,"stimulus":"Images/motorcycle_orig.png","key_press":null,"stim_onset":1580682610437,"block":1,"match_type":"non-match","image_category":"motorcycle","sound_category":"frog","audio_type":"sound","phase":"test","trial_type":"image-keyboard-response","trial_index":240,"time_elapsed":263536,"internal_node_id":"0.0-11.0-2.47","participant_id":"longtest","correct":false},{"rt":null,"stimulus":"Sounds/incorrect.wav","key_press":null,"block":1,"trial_type":"audio-keyboard-response","trial_index":241,"time_elapsed":265540,"internal_node_id":"0.0-11.0-3.47","participant_id":"longtest"},{"rt":null,"stimulus":"Sounds/whistle_label.wav","key_press":null,"block":1,"trial_type":"audio-keyboard-response","trial_index":242,"time_elapsed":266249,"internal_node_id":"0.0-11.0-0.48","participant_id":"longtest"},{"rt":null,"stimulus":"<p style=\"font-size: 48px;\">+</p>","key_press":null,"block":1,"trial_type":"html-keyboard-response","trial_index":243,"time_elapsed":267251,"internal_node_id":"0.0-11.0-1.48","participant_id":"longtest"},{"rt":null,"stimulus":"Images/whistle_orig.png","key_press":null,"stim_onset":1580682614404,"block":1,"match_type":"match","image_category":"whistle","sound_category":"whistle","audio_type":"label","phase":"test","trial_type":"image-keyboard-response","trial_index":244,"time_elapsed":267505,"internal_node_id":"0.0-11.0-2.48","participant_id":"longtest","correct":false},{"rt":null,"stimulus":"Sounds/incorrect.wav","key_press":null,"block":1,"trial_type":"audio-keyboard-response","trial_index":245,"time_elapsed":269519,"internal_node_id":"0.0-11.0-3.48","participant_id":"longtest"},{"rt":null,"stimulus":"Sounds/gun_label.wav","key_press":null,"block":1,"trial_type":"audio-keyboard-response","trial_index":246,"time_elapsed":270089,"internal_node_id":"0.0-11.0-0.49","participant_id":"longtest"},{"rt":null,"stimulus":"<p style=\"font-size: 48px;\">+</p>","key_press":null,"block":1,"trial_type":"html-keyboard-response","trial_index":247,"time_elapsed":271084,"internal_node_id":"0.0-11.0-1.49","participant_id":"longtest"},{"rt":null,"stimulus":"Images/car_2.png","key_press":null,"stim_onset":1580682618237,"block":1,"match_type":"non-match","image_category":"car","sound_category":"gun","audio_type":"label","phase":"test","trial_type":"image-keyboard-response","trial_index":248,"time_elapsed":271337,"internal_node_id":"0.0-11.0-2.49","participant_id":"longtest","correct":false},{"rt":null,"stimulus":"Sounds/incorrect.wav","key_press":null,"block":1,"trial_type":"audio-keyboard-response","trial_index":249,"time_elapsed":273341,"internal_node_id":"0.0-11.0-3.49","participant_id":"longtest"},{"rt":null,"stimulus":"Sounds/cat_label.wav","key_press":null,"block":1,"trial_type":"audio-keyboard-response","trial_index":250,"time_elapsed":274189,"internal_node_id":"0.0-11.0-0.50","participant_id":"longtest"},{"rt":null,"stimulus":"<p style=\"font-size: 48px;\">+</p>","key_press":null,"block":1,"trial_type":"html-keyboard-response","trial_index":251,"time_elapsed":275184,"internal_node_id":"0.0-11.0-1.50","participant_id":"longtest"},{"rt":null,"stimulus":"Images/rooster_1.png","key_press":null,"stim_onset":1580682622338,"block":1,"match_type":"non-match","image_category":"rooster","sound_category":"cat","audio_type":"label","phase":"test","trial_type":"image-keyboard-response","trial_index":252,"time_elapsed":275437,"internal_node_id":"0.0-11.0-2.50","participant_id":"longtest","correct":false},{"rt":null,"stimulus":"Sounds/incorrect.wav","key_press":null,"block":1,"trial_type":"audio-keyboard-response","trial_index":253,"time_elapsed":277441,"internal_node_id":"0.0-11.0-3.50","participant_id":"longtest"},{"rt":null,"stimulus":"Sounds/train_sound.wav","key_press":null,"block":1,"trial_type":"audio-keyboard-response","trial_index":254,"time_elapsed":278749,"internal_node_id":"0.0-11.0-0.51","participant_id":"longtest"},{"rt":null,"stimulus":"<p style=\"font-size: 48px;\">+</p>","key_press":null,"block":1,"trial_type":"html-keyboard-response","trial_index":255,"time_elapsed":279751,"internal_node_id":"0.0-11.0-1.51","participant_id":"longtest"},{"rt":null,"stimulus":"Images/frog_3.png","key_press":null,"stim_onset":1580682626904,"block":1,"match_type":"non-match","image_category":"frog","sound_category":"train","audio_type":"sound","phase":"test","trial_type":"image-keyboard-response","trial_index":256,"time_elapsed":280005,"internal_node_id":"0.0-11.0-2.51","participant_id":"longtest","correct":false},{"rt":null,"stimulus":"Sounds/incorrect.wav","key_press":null,"block":1,"trial_type":"audio-keyboard-response","trial_index":257,"time_elapsed":282021,"internal_node_id":"0.0-11.0-3.51","participant_id":"longtest"},{"rt":null,"stimulus":"Sounds/gun_label.wav","key_press":null,"block":1,"trial_type":"audio-keyboard-response","trial_index":258,"time_elapsed":282569,"internal_node_id":"0.0-11.0-0.52","participant_id":"longtest"},{"rt":null,"stimulus":"<p style=\"font-size: 48px;\">+</p>","key_press":null,"block":1,"trial_type":"html-keyboard-response","trial_index":259,"time_elapsed":283568,"internal_node_id":"0.0-11.0-1.52","participant_id":"longtest"},{"rt":null,"stimulus":"Images/gun_1.png","key_press":null,"stim_onset":1580682630721,"block":1,"match_type":"match","image_category":"gun","sound_category":"gun","audio_type":"label","phase":"test","trial_type":"image-keyboard-response","trial_index":260,"time_elapsed":283820,"internal_node_id":"0.0-11.0-2.52","participant_id":"longtest","correct":false},{"rt":null,"stimulus":"Sounds/incorrect.wav","key_press":null,"block":1,"trial_type":"audio-keyboard-response","trial_index":261,"time_elapsed":285824,"internal_node_id":"0.0-11.0-3.52","participant_id":"longtest"},{"rt":null,"stimulus":"Sounds/whistle_label.wav","key_press":null,"block":1,"trial_type":"audio-keyboard-response","trial_index":262,"time_elapsed":286509,"internal_node_id":"0.0-11.0-0.53","participant_id":"longtest"},{"rt":null,"stimulus":"<p style=\"font-size: 48px;\">+</p>","key_press":null,"block":1,"trial_type":"html-keyboard-response","trial_index":263,"time_elapsed":287518,"internal_node_id":"0.0-11.0-1.53","participant_id":"longtest"},{"rt":null,"stimulus":"Images/whistle_2.png","key_press":null,"stim_onset":1580682634671,"block":1,"match_type":"match","image_category":"whistle","sound_category":"whistle","audio_type":"label","phase":"test","trial_type":"image-keyboard-response","trial_index":264,"time_elapsed":287772,"internal_node_id":"0.0-11.0-2.53","participant_id":"longtest","correct":false},{"rt":null,"stimulus":"Sounds/incorrect.wav","key_press":null,"block":1,"trial_type":"audio-keyboard-response","trial_index":265,"time_elapsed":289789,"internal_node_id":"0.0-11.0-3.53","participant_id":"longtest"},{"rt":null,"stimulus":"Sounds/cat_sound.wav","key_press":null,"block":1,"trial_type":"audio-keyboard-response","trial_index":266,"time_elapsed":290629,"internal_node_id":"0.0-11.0-0.54","participant_id":"longtest"},{"rt":null,"stimulus":"<p style=\"font-size: 48px;\">+</p>","key_press":null,"block":1,"trial_type":"html-keyboard-response","trial_index":267,"time_elapsed":291635,"internal_node_id":"0.0-11.0-1.54","participant_id":"longtest"},{"rt":null,"stimulus":"Images/cat_cartoon.png","key_press":null,"stim_onset":1580682638788,"block":1,"match_type":"match","image_category":"cat","sound_category":"cat","audio_type":"sound","phase":"test","trial_type":"image-keyboard-response","trial_index":268,"time_elapsed":291887,"internal_node_id":"0.0-11.0-2.54","participant_id":"longtest","correct":false},{"rt":null,"stimulus":"Sounds/incorrect.wav","key_press":null,"block":1,"trial_type":"audio-keyboard-response","trial_index":269,"time_elapsed":293892,"internal_node_id":"0.0-11.0-3.54","participant_id":"longtest"},{"rt":null,"stimulus":"Sounds/train_label.wav","key_press":null,"block":1,"trial_type":"audio-keyboard-response","trial_index":270,"time_elapsed":295169,"internal_node_id":"0.0-11.0-0.55","participant_id":"longtest"},{"rt":null,"stimulus":"<p style=\"font-size: 48px;\">+</p>","key_press":null,"block":1,"trial_type":"html-keyboard-response","trial_index":271,"time_elapsed":296168,"internal_node_id":"0.0-11.0-1.55","participant_id":"longtest"},{"rt":null,"stimulus":"Images/dog_3.png","key_press":null,"stim_onset":1580682643321,"block":1,"match_type":"non-match","image_category":"dog","sound_category":"train","audio_type":"label","phase":"test","trial_type":"image-keyboard-response","trial_index":272,"time_elapsed":296421,"internal_node_id":"0.0-11.0-2.55","participant_id":"longtest","correct":false},{"rt":null,"stimulus":"Sounds/incorrect.wav","key_press":null,"block":1,"trial_type":"audio-keyboard-response","trial_index":273,"time_elapsed":298426,"internal_node_id":"0.0-11.0-3.55","participant_id":"longtest"},{"rt":null,"stimulus":"Sounds/car_label.wav","key_press":null,"block":1,"trial_type":"audio-keyboard-response","trial_index":274,"time_elapsed":299509,"internal_node_id":"0.0-11.0-0.56","participant_id":"longtest"},{"rt":null,"stimulus":"<p style=\"font-size: 48px;\">+</p>","key_press":null,"block":1,"trial_type":"html-keyboard-response","trial_index":275,"time_elapsed":300518,"internal_node_id":"0.0-11.0-1.56","participant_id":"longtest"},{"rt":null,"stimulus":"Images/whistle_3.png","key_press":null,"stim_onset":1580682647672,"block":1,"match_type":"non-match","image_category":"whistle","sound_category":"car","audio_type":"label","phase":"test","trial_type":"image-keyboard-response","trial_index":276,"time_elapsed":300772,"internal_node_id":"0.0-11.0-2.56","participant_id":"longtest","correct":false},{"rt":null,"stimulus":"Sounds/incorrect.wav","key_press":null,"block":1,"trial_type":"audio-keyboard-response","trial_index":277,"time_elapsed":302790,"internal_node_id":"0.0-11.0-3.56","participant_id":"longtest"},{"rt":null,"stimulus":"Sounds/cat_label.wav","key_press":null,"block":1,"trial_type":"audio-keyboard-response","trial_index":278,"time_elapsed":303629,"internal_node_id":"0.0-11.0-0.57","participant_id":"longtest"},{"rt":null,"stimulus":"<p style=\"font-size: 48px;\">+</p>","key_press":null,"block":1,"trial_type":"html-keyboard-response","trial_index":279,"time_elapsed":304635,"internal_node_id":"0.0-11.0-1.57","participant_id":"longtest"},{"rt":null,"stimulus":"Images/cat_orig.png","key_press":null,"stim_onset":1580682651788,"block":1,"match_type":"match","image_category":"cat","sound_category":"cat","audio_type":"label","phase":"test","trial_type":"image-keyboard-response","trial_index":280,"time_elapsed":304888,"internal_node_id":"0.0-11.0-2.57","participant_id":"longtest","correct":false},{"rt":null,"stimulus":"Sounds/incorrect.wav","key_press":null,"block":1,"trial_type":"audio-keyboard-response","trial_index":281,"time_elapsed":306905,"internal_node_id":"0.0-11.0-3.57","participant_id":"longtest"},{"rt":null,"stimulus":"Sounds/train_sound.wav","key_press":null,"block":1,"trial_type":"audio-keyboard-response","trial_index":282,"time_elapsed":308209,"internal_node_id":"0.0-11.0-0.58","participant_id":"longtest"},{"rt":null,"stimulus":"<p style=\"font-size: 48px;\">+</p>","key_press":null,"block":1,"trial_type":"html-keyboard-response","trial_index":283,"time_elapsed":309219,"internal_node_id":"0.0-11.0-1.58","participant_id":"longtest"},{"rt":null,"stimulus":"Images/train_orig.png","key_press":null,"stim_onset":1580682656372,"block":1,"match_type":"match","image_category":"train","sound_category":"train","audio_type":"sound","phase":"test","trial_type":"image-keyboard-response","trial_index":284,"time_elapsed":309471,"internal_node_id":"0.0-11.0-2.58","participant_id":"longtest","correct":false},{"rt":null,"stimulus":"Sounds/incorrect.wav","key_press":null,"block":1,"trial_type":"audio-keyboard-response","trial_index":285,"time_elapsed":311476,"internal_node_id":"0.0-11.0-3.58","participant_id":"longtest"},{"rt":null,"stimulus":"Sounds/dog_sound.wav","key_press":null,"block":1,"trial_type":"audio-keyboard-response","trial_index":286,"time_elapsed":312189,"internal_node_id":"0.0-11.0-0.59","participant_id":"longtest"},{"rt":null,"stimulus":"<p style=\"font-size: 48px;\">+</p>","key_press":null,"block":1,"trial_type":"html-keyboard-response","trial_index":287,"time_elapsed":313185,"internal_node_id":"0.0-11.0-1.59","participant_id":"longtest"},{"rt":null,"stimulus":"Images/dog_cartoon.png","key_press":null,"stim_onset":1580682660338,"block":1,"match_type":"match","image_category":"dog","sound_category":"dog","audio_type":"sound","phase":"test","trial_type":"image-keyboard-response","trial_index":288,"time_elapsed":313438,"internal_node_id":"0.0-11.0-2.59","participant_id":"longtest","correct":false},{"rt":null,"stimulus":"Sounds/incorrect.wav","key_press":null,"block":1,"trial_type":"audio-keyboard-response","trial_index":289,"time_elapsed":315441,"internal_node_id":"0.0-11.0-3.59","participant_id":"longtest"},{"rt":null,"stimulus":"Sounds/whistle_label.wav","key_press":null,"block":1,"trial_type":"audio-keyboard-response","trial_index":290,"time_elapsed":316149,"internal_node_id":"0.0-11.0-0.60","participant_id":"longtest"},{"rt":null,"stimulus":"<p style=\"font-size: 48px;\">+</p>","key_press":null,"block":1,"trial_type":"html-keyboard-response","trial_index":291,"time_elapsed":317152,"internal_node_id":"0.0-11.0-1.60","participant_id":"longtest"},{"rt":null,"stimulus":"Images/frog_orig.png","key_press":null,"stim_onset":1580682664305,"block":1,"match_type":"non-match","image_category":"frog","sound_category":"whistle","audio_type":"label","phase":"test","trial_type":"image-keyboard-response","trial_index":292,"time_elapsed":317405,"internal_node_id":"0.0-11.0-2.60","participant_id":"longtest","correct":false},{"rt":null,"stimulus":"Sounds/incorrect.wav","key_press":null,"block":1,"trial_type":"audio-keyboard-response","trial_index":293,"time_elapsed":319422,"internal_node_id":"0.0-11.0-3.60","participant_id":"longtest"},{"rt":null,"stimulus":"Sounds/gun_label.wav","key_press":null,"block":1,"trial_type":"audio-keyboard-response","trial_index":294,"time_elapsed":320009,"internal_node_id":"0.0-11.0-0.61","participant_id":"longtest"},{"rt":null,"stimulus":"<p style=\"font-size: 48px;\">+</p>","key_press":null,"block":1,"trial_type":"html-keyboard-response","trial_index":295,"time_elapsed":321019,"internal_node_id":"0.0-11.0-1.61","participant_id":"longtest"},{"rt":null,"stimulus":"Images/train_1.png","key_press":null,"stim_onset":1580682668172,"block":1,"match_type":"non-match","image_category":"train","sound_category":"gun","audio_type":"label","phase":"test","trial_type":"image-keyboard-response","trial_index":296,"time_elapsed":321272,"internal_node_id":"0.0-11.0-2.61","participant_id":"longtest","correct":false},{"rt":null,"stimulus":"Sounds/incorrect.wav","key_press":null,"block":1,"trial_type":"audio-keyboard-response","trial_index":297,"time_elapsed":323275,"internal_node_id":"0.0-11.0-3.61","participant_id":"longtest"},{"rt":null,"stimulus":"Sounds/frog_label.wav","key_press":null,"block":1,"trial_type":"audio-keyboard-response","trial_index":298,"time_elapsed":324169,"internal_node_id":"0.0-11.0-0.62","participant_id":"longtest"},{"rt":null,"stimulus":"<p style=\"font-size: 48px;\">+</p>","key_press":null,"block":1,"trial_type":"html-keyboard-response","trial_index":299,"time_elapsed":325169,"internal_node_id":"0.0-11.0-1.62","participant_id":"longtest"},{"rt":null,"stimulus":"Images/frog_orig.png","key_press":null,"stim_onset":1580682672322,"block":1,"match_type":"match","image_category":"frog","sound_category":"frog","audio_type":"label","phase":"test","trial_type":"image-keyboard-response","trial_index":300,"time_elapsed":325422,"internal_node_id":"0.0-11.0-2.62","participant_id":"longtest","correct":false},{"rt":null,"stimulus":"Sounds/incorrect.wav","key_press":null,"block":1,"trial_type":"audio-keyboard-response","trial_index":301,"time_elapsed":327440,"internal_node_id":"0.0-11.0-3.62","participant_id":"longtest"},{"rt":null,"stimulus":"Sounds/cow_label.wav","key_press":null,"block":1,"trial_type":"audio-keyboard-response","trial_index":302,"time_elapsed":328469,"internal_node_id":"0.0-11.0-0.63","participant_id":"longtest"},{"rt":null,"stimulus":"<p style=\"font-size: 48px;\">+</p>","key_press":null,"block":1,"trial_type":"html-keyboard-response","trial_index":303,"time_elapsed":329469,"internal_node_id":"0.0-11.0-1.63","participant_id":"longtest"},{"rt":null,"stimulus":"Images/car_1.png","key_press":null,"stim_onset":1580682676622,"block":1,"match_type":"non-match","image_category":"car","sound_category":"cow","audio_type":"label","phase":"test","trial_type":"image-keyboard-response","trial_index":304,"time_elapsed":329722,"internal_node_id":"0.0-11.0-2.63","participant_id":"longtest","correct":false},{"rt":null,"stimulus":"Sounds/incorrect.wav","key_press":null,"block":1,"trial_type":"audio-keyboard-response","trial_index":305,"time_elapsed":331725,"internal_node_id":"0.0-11.0-3.63","participant_id":"longtest"},{"rt":null,"stimulus":"Sounds/gun_sound.wav","key_press":null,"block":1,"trial_type":"audio-keyboard-response","trial_index":306,"time_elapsed":332309,"internal_node_id":"0.0-11.0-0.64","participant_id":"longtest"},{"rt":null,"stimulus":"<p style=\"font-size: 48px;\">+</p>","key_press":null,"block":1,"trial_type":"html-keyboard-response","trial_index":307,"time_elapsed":333319,"internal_node_id":"0.0-11.0-1.64","participant_id":"longtest"},{"rt":null,"stimulus":"Images/whistle_1.png","key_press":null,"stim_onset":1580682680472,"block":1,"match_type":"non-match","image_category":"whistle","sound_category":"gun","audio_type":"sound","phase":"test","trial_type":"image-keyboard-response","trial_index":308,"time_elapsed":333571,"internal_node_id":"0.0-11.0-2.64","participant_id":"longtest","correct":false},{"rt":null,"stimulus":"Sounds/incorrect.wav","key_press":null,"block":1,"trial_type":"audio-keyboard-response","trial_index":309,"time_elapsed":335576,"internal_node_id":"0.0-11.0-3.64","participant_id":"longtest"},{"rt":null,"stimulus":"Sounds/frog_label.wav","key_press":null,"block":1,"trial_type":"audio-keyboard-response","trial_index":310,"time_elapsed":336449,"internal_node_id":"0.0-11.0-0.65","participant_id":"longtest"},{"rt":null,"stimulus":"<p style=\"font-size: 48px;\">+</p>","key_press":null,"block":1,"trial_type":"html-keyboard-response","trial_index":311,"time_elapsed":337452,"internal_node_id":"0.0-11.0-1.65","participant_id":"longtest"},{"rt":null,"stimulus":"Images/frog_2.png","key_press":null,"stim_onset":1580682684605,"block":1,"match_type":"match","image_category":"frog","sound_category":"frog","audio_type":"label","phase":"test","trial_type":"image-keyboard-response","trial_index":312,"time_elapsed":337706,"internal_node_id":"0.0-11.0-2.65","participant_id":"longtest","correct":false},{"rt":null,"stimulus":"Sounds/incorrect.wav","key_press":null,"block":1,"trial_type":"audio-keyboard-response","trial_index":313,"time_elapsed":339722,"internal_node_id":"0.0-11.0-3.65","participant_id":"longtest"},{"rt":null,"stimulus":"Sounds/rooster_label.wav","key_press":null,"block":1,"trial_type":"audio-keyboard-response","trial_index":314,"time_elapsed":340429,"internal_node_id":"0.0-11.0-0.66","participant_id":"longtest"},{"rt":null,"stimulus":"<p style=\"font-size: 48px;\">+</p>","key_press":null,"block":1,"trial_type":"html-keyboard-response","trial_index":315,"time_elapsed":341436,"internal_node_id":"0.0-11.0-1.66","participant_id":"longtest"},{"rt":null,"stimulus":"Images/train_orig.png","key_press":null,"stim_onset":1580682688589,"block":1,"match_type":"non-match","image_category":"train","sound_category":"rooster","audio_type":"label","phase":"test","trial_type":"image-keyboard-response","trial_index":316,"time_elapsed":341689,"internal_node_id":"0.0-11.0-2.66","participant_id":"longtest","correct":false},{"rt":null,"stimulus":"Sounds/incorrect.wav","key_press":null,"block":1,"trial_type":"audio-keyboard-response","trial_index":317,"time_elapsed":343706,"internal_node_id":"0.0-11.0-3.66","participant_id":"longtest"},{"rt":null,"stimulus":"Sounds/frog_label.wav","key_press":null,"block":1,"trial_type":"audio-keyboard-response","trial_index":318,"time_elapsed":344569,"internal_node_id":"0.0-11.0-0.67","participant_id":"longtest"},{"rt":null,"stimulus":"<p style=\"font-size: 48px;\">+</p>","key_press":null,"block":1,"trial_type":"html-keyboard-response","trial_index":319,"time_elapsed":345569,"internal_node_id":"0.0-11.0-1.67","participant_id":"longtest"},{"rt":null,"stimulus":"Images/gun_1.png","key_press":null,"stim_onset":1580682692722,"block":1,"match_type":"non-match","image_category":"gun","sound_category":"frog","audio_type":"label","phase":"test","trial_type":"image-keyboard-response","trial_index":320,"time_elapsed":345822,"internal_node_id":"0.0-11.0-2.67","participant_id":"longtest","correct":false},{"rt":null,"stimulus":"Sounds/incorrect.wav","key_press":null,"block":1,"trial_type":"audio-keyboard-response","trial_index":321,"time_elapsed":347825,"internal_node_id":"0.0-11.0-3.67","participant_id":"longtest"},{"rt":null,"stimulus":"Sounds/dog_label.wav","key_press":null,"block":1,"trial_type":"audio-keyboard-response","trial_index":322,"time_elapsed":348489,"internal_node_id":"0.0-11.0-0.68","participant_id":"longtest"},{"rt":null,"stimulus":"<p style=\"font-size: 48px;\">+</p>","key_press":null,"block":1,"trial_type":"html-keyboard-response","trial_index":323,"time_elapsed":349486,"internal_node_id":"0.0-11.0-1.68","participant_id":"longtest"},{"rt":null,"stimulus":"Images/cat_cartoon.png","key_press":null,"stim_onset":1580682696639,"block":1,"match_type":"non-match","image_category":"cat","sound_category":"dog","audio_type":"label","phase":"test","trial_type":"image-keyboard-response","trial_index":324,"time_elapsed":349737,"internal_node_id":"0.0-11.0-2.68","participant_id":"longtest","correct":false},{"rt":null,"stimulus":"Sounds/incorrect.wav","key_press":null,"block":1,"trial_type":"audio-keyboard-response","trial_index":325,"time_elapsed":351741,"internal_node_id":"0.0-11.0-3.68","participant_id":"longtest"},{"rt":null,"stimulus":"Sounds/car_label.wav","key_press":null,"block":1,"trial_type":"audio-keyboard-response","trial_index":326,"time_elapsed":352829,"internal_node_id":"0.0-11.0-0.69","participant_id":"longtest"},{"rt":null,"stimulus":"<p style=\"font-size: 48px;\">+</p>","key_press":null,"block":1,"trial_type":"html-keyboard-response","trial_index":327,"time_elapsed":353836,"internal_node_id":"0.0-11.0-1.69","participant_id":"longtest"},{"rt":null,"stimulus":"Images/car_3.png","key_press":null,"stim_onset":1580682700989,"block":1,"match_type":"match","image_category":"car","sound_category":"car","audio_type":"label","phase":"test","trial_type":"image-keyboard-response","trial_index":328,"time_elapsed":354088,"internal_node_id":"0.0-11.0-2.69","participant_id":"longtest","correct":false},{"rt":null,"stimulus":"Sounds/incorrect.wav","key_press":null,"block":1,"trial_type":"audio-keyboard-response","trial_index":329,"time_elapsed":356106,"internal_node_id":"0.0-11.0-3.69","participant_id":"longtest"},{"rt":null,"stimulus":"Sounds/frog_sound.wav","key_press":null,"block":1,"trial_type":"audio-keyboard-response","trial_index":330,"time_elapsed":357010,"internal_node_id":"0.0-11.0-0.70","participant_id":"longtest"},{"rt":null,"stimulus":"<p style=\"font-size: 48px;\">+</p>","key_press":null,"block":1,"trial_type":"html-keyboard-response","trial_index":331,"time_elapsed":358019,"internal_node_id":"0.0-11.0-1.70","participant_id":"longtest"},{"rt":null,"stimulus":"Images/rooster_cartoon.png","key_press":null,"stim_onset":1580682705172,"block":1,"match_type":"non-match","image_category":"rooster","sound_category":"frog","audio_type":"sound","phase":"test","trial_type":"image-keyboard-response","trial_index":332,"time_elapsed":358271,"internal_node_id":"0.0-11.0-2.70","participant_id":"longtest","correct":false},{"rt":null,"stimulus":"Sounds/incorrect.wav","key_press":null,"block":1,"trial_type":"audio-keyboard-response","trial_index":333,"time_elapsed":360275,"internal_node_id":"0.0-11.0-3.70","participant_id":"longtest"},{"rt":null,"stimulus":"Sounds/rooster_label.wav","key_press":null,"block":1,"trial_type":"audio-keyboard-response","trial_index":334,"time_elapsed":360970,"internal_node_id":"0.0-11.0-0.71","participant_id":"longtest"},{"rt":null,"stimulus":"<p style=\"font-size: 48px;\">+</p>","key_press":null,"block":1,"trial_type":"html-keyboard-response","trial_index":335,"time_elapsed":361969,"internal_node_id":"0.0-11.0-1.71","participant_id":"longtest"},{"rt":null,"stimulus":"Images/frog_cartoon.png","key_press":null,"stim_onset":1580682709123,"block":1,"match_type":"non-match","image_category":"frog","sound_category":"rooster","audio_type":"label","phase":"test","trial_type":"image-keyboard-response","trial_index":336,"time_elapsed":362222,"internal_node_id":"0.0-11.0-2.71","participant_id":"longtest","correct":false},{"rt":null,"stimulus":"Sounds/incorrect.wav","key_press":null,"block":1,"trial_type":"audio-keyboard-response","trial_index":337,"time_elapsed":364225,"internal_node_id":"0.0-11.0-3.71","participant_id":"longtest"},{"rt":null,"stimulus":"Sounds/rooster_label.wav","key_press":null,"block":1,"trial_type":"audio-keyboard-response","trial_index":338,"time_elapsed":364889,"internal_node_id":"0.0-11.0-0.72","participant_id":"longtest"},{"rt":null,"stimulus":"<p style=\"font-size: 48px;\">+</p>","key_press":null,"block":1,"trial_type":"html-keyboard-response","trial_index":339,"time_elapsed":365886,"internal_node_id":"0.0-11.0-1.72","participant_id":"longtest"},{"rt":null,"stimulus":"Images/dog_2.png","key_press":null,"stim_onset":1580682713039,"block":1,"match_type":"non-match","image_category":"dog","sound_category":"rooster","audio_type":"label","phase":"test","trial_type":"image-keyboard-response","trial_index":340,"time_elapsed":366139,"internal_node_id":"0.0-11.0-2.72","participant_id":"longtest","correct":false},{"rt":null,"stimulus":"Sounds/incorrect.wav","key_press":null,"block":1,"trial_type":"audio-keyboard-response","trial_index":341,"time_elapsed":368142,"internal_node_id":"0.0-11.0-3.72","participant_id":"longtest"},{"rt":null,"stimulus":"Sounds/frog_sound.wav","key_press":null,"block":1,"trial_type":"audio-keyboard-response","trial_index":342,"time_elapsed":369030,"internal_node_id":"0.0-11.0-0.73","participant_id":"longtest"},{"rt":null,"stimulus":"<p style=\"font-size: 48px;\">+</p>","key_press":null,"block":1,"trial_type":"html-keyboard-response","trial_index":343,"time_elapsed":370036,"internal_node_id":"0.0-11.0-1.73","participant_id":"longtest"},{"rt":null,"stimulus":"Images/cow_orig.png","key_press":null,"stim_onset":1580682717189,"block":1,"match_type":"non-match","image_category":"cow","sound_category":"frog","audio_type":"sound","phase":"test","trial_type":"image-keyboard-response","trial_index":344,"time_elapsed":370289,"internal_node_id":"0.0-11.0-2.73","participant_id":"longtest","correct":false},{"rt":null,"stimulus":"Sounds/incorrect.wav","key_press":null,"block":1,"trial_type":"audio-keyboard-response","trial_index":345,"time_elapsed":372306,"internal_node_id":"0.0-11.0-3.73","participant_id":"longtest"},{"rt":null,"stimulus":"Sounds/cow_sound.wav","key_press":null,"block":1,"trial_type":"audio-keyboard-response","trial_index":346,"time_elapsed":373329,"internal_node_id":"0.0-11.0-0.74","participant_id":"longtest"},{"rt":null,"stimulus":"<p style=\"font-size: 48px;\">+</p>","key_press":null,"block":1,"trial_type":"html-keyboard-response","trial_index":347,"time_elapsed":374336,"internal_node_id":"0.0-11.0-1.74","participant_id":"longtest"},{"rt":null,"stimulus":"Images/rooster_orig.png","key_press":null,"stim_onset":1580682721489,"block":1,"match_type":"non-match","image_category":"rooster","sound_category":"cow","audio_type":"sound","phase":"test","trial_type":"image-keyboard-response","trial_index":348,"time_elapsed":374588,"internal_node_id":"0.0-11.0-2.74","participant_id":"longtest","correct":false},{"rt":null,"stimulus":"Sounds/incorrect.wav","key_press":null,"block":1,"trial_type":"audio-keyboard-response","trial_index":349,"time_elapsed":376592,"internal_node_id":"0.0-11.0-3.74","participant_id":"longtest"},{"rt":null,"stimulus":"Sounds/dog_label.wav","key_press":null,"block":1,"trial_type":"audio-keyboard-response","trial_index":350,"time_elapsed":377249,"internal_node_id":"0.0-11.0-0.75","participant_id":"longtest"},{"rt":null,"stimulus":"<p style=\"font-size: 48px;\">+</p>","key_press":null,"block":1,"trial_type":"html-keyboard-response","trial_index":351,"time_elapsed":378253,"internal_node_id":"0.0-11.0-1.75","participant_id":"longtest"},{"rt":null,"stimulus":"Images/motorcycle_cartoon.png","key_press":null,"stim_onset":1580682725406,"block":1,"match_type":"non-match","image_category":"motorcycle","sound_category":"dog","audio_type":"label","phase":"test","trial_type":"image-keyboard-response","trial_index":352,"time_elapsed":378506,"internal_node_id":"0.0-11.0-2.75","participant_id":"longtest","correct":false},{"rt":null,"stimulus":"Sounds/incorrect.wav","key_press":null,"block":1,"trial_type":"audio-keyboard-response","trial_index":353,"time_elapsed":380522,"internal_node_id":"0.0-11.0-3.75","participant_id":"longtest"},{"rt":null,"stimulus":"Sounds/cat_sound.wav","key_press":null,"block":1,"trial_type":"audio-keyboard-response","trial_index":354,"time_elapsed":381369,"internal_node_id":"0.0-11.0-0.76","participant_id":"longtest"},{"rt":null,"stimulus":"<p style=\"font-size: 48px;\">+</p>","key_press":null,"block":1,"trial_type":"html-keyboard-response","trial_index":355,"time_elapsed":382369,"internal_node_id":"0.0-11.0-1.76","participant_id":"longtest"},{"rt":null,"stimulus":"Images/dog_cartoon.png","key_press":null,"stim_onset":1580682729523,"block":1,"match_type":"non-match","image_category":"dog","sound_category":"cat","audio_type":"sound","phase":"test","trial_type":"image-keyboard-response","trial_index":356,"time_elapsed":382622,"internal_node_id":"0.0-11.0-2.76","participant_id":"longtest","correct":false},{"rt":null,"stimulus":"Sounds/incorrect.wav","key_press":null,"block":1,"trial_type":"audio-keyboard-response","trial_index":357,"time_elapsed":384625,"internal_node_id":"0.0-11.0-3.76","participant_id":"longtest"},{"rt":null,"stimulus":"Sounds/gun_label.wav","key_press":null,"block":1,"trial_type":"audio-keyboard-response","trial_index":358,"time_elapsed":385209,"internal_node_id":"0.0-11.0-0.77","participant_id":"longtest"},{"rt":null,"stimulus":"<p style=\"font-size: 48px;\">+</p>","key_press":null,"block":1,"trial_type":"html-keyboard-response","trial_index":359,"time_elapsed":386220,"internal_node_id":"0.0-11.0-1.77","participant_id":"longtest"},{"rt":null,"stimulus":"Images/gun_cartoon.png","key_press":null,"stim_onset":1580682733373,"block":1,"match_type":"match","image_category":"gun","sound_category":"gun","audio_type":"label","phase":"test","trial_type":"image-keyboard-response","trial_index":360,"time_elapsed":386472,"internal_node_id":"0.0-11.0-2.77","participant_id":"longtest","correct":false},{"rt":null,"stimulus":"Sounds/incorrect.wav","key_press":null,"block":1,"trial_type":"audio-keyboard-response","trial_index":361,"time_elapsed":388477,"internal_node_id":"0.0-11.0-3.77","participant_id":"longtest"},{"rt":null,"stimulus":"Sounds/car_sound.wav","key_press":null,"block":1,"trial_type":"audio-keyboard-response","trial_index":362,"time_elapsed":389549,"internal_node_id":"0.0-11.0-0.78","participant_id":"longtest"},{"rt":null,"stimulus":"<p style=\"font-size: 48px;\">+</p>","key_press":null,"block":1,"trial_type":"html-keyboard-response","trial_index":363,"time_elapsed":390553,"internal_node_id":"0.0-11.0-1.78","participant_id":"longtest"},{"rt":null,"stimulus":"Images/gun_cartoon.png","key_press":null,"stim_onset":1580682737706,"block":1,"match_type":"non-match","image_category":"gun","sound_category":"car","audio_type":"sound","phase":"test","trial_type":"image-keyboard-response","trial_index":364,"time_elapsed":390807,"internal_node_id":"0.0-11.0-2.78","participant_id":"longtest","correct":false},{"rt":null,"stimulus":"Sounds/incorrect.wav","key_press":null,"block":1,"trial_type":"audio-keyboard-response","trial_index":365,"time_elapsed":392810,"internal_node_id":"0.0-11.0-3.78","participant_id":"longtest"},{"rt":null,"stimulus":"Sounds/cat_label.wav","key_press":null,"block":1,"trial_type":"audio-keyboard-response","trial_index":366,"time_elapsed":393649,"internal_node_id":"0.0-11.0-0.79","participant_id":"longtest"},{"rt":null,"stimulus":"<p style=\"font-size: 48px;\">+</p>","key_press":null,"block":1,"trial_type":"html-keyboard-response","trial_index":367,"time_elapsed":394653,"internal_node_id":"0.0-11.0-1.79","participant_id":"longtest"},{"rt":null,"stimulus":"Images/cow_3.png","key_press":null,"stim_onset":1580682741806,"block":1,"match_type":"non-match","image_category":"cow","sound_category":"cat","audio_type":"label","phase":"test","trial_type":"image-keyboard-response","trial_index":368,"time_elapsed":394906,"internal_node_id":"0.0-11.0-2.79","participant_id":"longtest","correct":false},{"rt":null,"stimulus":"Sounds/incorrect.wav","key_press":null,"block":1,"trial_type":"audio-keyboard-response","trial_index":369,"time_elapsed":396922,"internal_node_id":"0.0-11.0-3.79","participant_id":"longtest"},{"rt":null,"stimulus":"Sounds/cat_sound.wav","key_press":null,"block":1,"trial_type":"audio-keyboard-response","trial_index":370,"time_elapsed":397729,"internal_node_id":"0.0-11.0-0.80","participant_id":"longtest"},{"rt":null,"stimulus":"<p style=\"font-size: 48px;\">+</p>","key_press":null,"block":1,"trial_type":"html-keyboard-response","trial_index":371,"time_elapsed":398736,"internal_node_id":"0.0-11.0-1.80","participant_id":"longtest"},{"rt":null,"stimulus":"Images/cat_1.png","key_press":null,"stim_onset":1580682745889,"block":1,"match_type":"match","image_category":"cat","sound_category":"cat","audio_type":"sound","phase":"test","trial_type":"image-keyboard-response","trial_index":372,"time_elapsed":398989,"internal_node_id":"0.0-11.0-2.80","participant_id":"longtest","correct":false},{"rt":null,"stimulus":"Sounds/incorrect.wav","key_press":null,"block":1,"trial_type":"audio-keyboard-response","trial_index":373,"time_elapsed":400992,"internal_node_id":"0.0-11.0-3.80","participant_id":"longtest"},{"rt":null,"stimulus":"Sounds/cat_sound.wav","key_press":null,"block":1,"trial_type":"audio-keyboard-response","trial_index":374,"time_elapsed":401809,"internal_node_id":"0.0-11.0-0.81","participant_id":"longtest"},{"rt":null,"stimulus":"<p style=\"font-size: 48px;\">+</p>","key_press":null,"block":1,"trial_type":"html-keyboard-response","trial_index":375,"time_elapsed":402803,"internal_node_id":"0.0-11.0-1.81","participant_id":"longtest"},{"rt":null,"stimulus":"Images/motorcycle_2.png","key_press":null,"stim_onset":1580682749956,"block":1,"match_type":"non-match","image_category":"motorcycle","sound_category":"cat","audio_type":"sound","phase":"test","trial_type":"image-keyboard-response","trial_index":376,"time_elapsed":403056,"internal_node_id":"0.0-11.0-2.81","participant_id":"longtest","correct":false},{"rt":null,"stimulus":"Sounds/incorrect.wav","key_press":null,"block":1,"trial_type":"audio-keyboard-response","trial_index":377,"time_elapsed":405059,"internal_node_id":"0.0-11.0-3.81","participant_id":"longtest"},{"rt":null,"stimulus":"Sounds/rooster_sound.wav","key_press":null,"block":1,"trial_type":"audio-keyboard-response","trial_index":378,"time_elapsed":405769,"internal_node_id":"0.0-11.0-0.82","participant_id":"longtest"},{"rt":null,"stimulus":"<p style=\"font-size: 48px;\">+</p>","key_press":null,"block":1,"trial_type":"html-keyboard-response","trial_index":379,"time_elapsed":406770,"internal_node_id":"0.0-11.0-1.82","participant_id":"longtest"},{"rt":null,"stimulus":"Images/rooster_orig.png","key_press":null,"stim_onset":1580682753923,"block":1,"match_type":"match","image_category":"rooster","sound_category":"rooster","audio_type":"sound","phase":"test","trial_type":"image-keyboard-response","trial_index":380,"time_elapsed":407022,"internal_node_id":"0.0-11.0-2.82","participant_id":"longtest","correct":false},{"rt":null,"stimulus":"Sounds/incorrect.wav","key_press":null,"block":1,"trial_type":"audio-keyboard-response","trial_index":381,"time_elapsed":409039,"internal_node_id":"0.0-11.0-3.82","participant_id":"longtest"},{"rt":null,"stimulus":"Sounds/car_sound.wav","key_press":null,"block":1,"trial_type":"audio-keyboard-response","trial_index":382,"time_elapsed":410109,"internal_node_id":"0.0-11.0-0.83","participant_id":"longtest"},{"rt":null,"stimulus":"<p style=\"font-size: 48px;\">+</p>","key_press":null,"block":1,"trial_type":"html-keyboard-response","trial_index":383,"time_elapsed":411120,"internal_node_id":"0.0-11.0-1.83","participant_id":"longtest"},{"rt":null,"stimulus":"Images/frog_1.png","key_press":null,"stim_onset":1580682758273,"block":1,"match_type":"non-match","image_category":"frog","sound_category":"car","audio_type":"sound","phase":"test","trial_type":"image-keyboard-response","trial_index":384,"time_elapsed":411372,"internal_node_id":"0.0-11.0-2.83","participant_id":"longtest","correct":false},{"rt":null,"stimulus":"Sounds/incorrect.wav","key_press":null,"block":1,"trial_type":"audio-keyboard-response","trial_index":385,"time_elapsed":413377,"