"rt","stimulus","key_press","trial_type","trial_index","time_elapsed","internal_node_id","participant_id","responses","block","stim_onset","match_type","image_category","sound_category","audio_type","phase","correct"
"3389.2200000118464","<p>Use KEYBOARD 2 (match LEFT)</p><p>Press MATCH to continue.</p>","65","html-keyboard-response","0","3391","0.0-0.0","longtest","","","","","","","","",""
"8982.164999993984","","","survey-text","1","12379","0.0-1.0","longtest","{""Q0"":""longtest""}","","","","","","","",""
"2199.0249999944353","<p>Thank you for agreeing to participate in this study.</p><p>If during any part of the procedure you must stop for any reason, please inform the researcher that you do not wish to continue.</p>","13","html-keyboard-response","2","14582","0.0-2.0","longtest","","","","","","","","",""
"1078.1850000057602","<p>In this experiment, you will hear various words or sounds and see pictures of various animals and objects.</p><p>Most of the images will be of common everyday objects, such as cars, cats, cows, firearms, frogs, chickens, whistles, trains, motorcycles, and dogs.</p><p>Some of the images will be real-life stills, while others will be cartoons.</p>","13","html-keyboard-response","3","15662","0.0-3.0","longtest","","","","","","","","",""
"407.3950000019977","<p>Sometimes, the word/sound will match the picture, for example you'll hear a meowing sound and see a cat.</p><p>Other times, the picture will not match the sound or word.</p><p>Your task is to decide as quickly as possible if the word/sound matches the picture or not. </p>","13","html-keyboard-response","4","16070","0.0-4.0","longtest","","","","","","","","",""
"351.0799999930896","<p>For example, if you hear the word ""cat"" or hear a meowing sound, and then see a picture of a cat, you should press the MATCH key.</p><p> If the sound and image do not match, press NON-MATCH.</p><p> Either key can be used to continue the experiment.</p><p> If you make a mistake, you will hear a buzzing sound.</p><p> Try to respond as quickly as possible, while making as few errors as possible. If you are making mistakes, you are probably rushing.</p>","13","html-keyboard-response","5","16422","0.0-5.0","longtest","","","","","","","","",""
"575.5300000018906","<p>During the experiment there will be some breaks during which you can rest your eyes.</p>","13","html-keyboard-response","6","16998","0.0-6.0","longtest","","","","","","","","",""
"375.1100000081351","<p>We will begin with 10 practice trials. Please let the experimenter know if you have any questions.</p>","13","html-keyboard-response","7","17374","0.0-7.0","longtest","","","","","","","","",""
"null","Sounds/cow_label.wav","null","audio-keyboard-response","8","18387","0.0-8.0-0.0","longtest","","0","","","","","","",""
"null","<p style=""font-size: 48px;"">+</p>","null","html-keyboard-response","9","19396","0.0-8.0-1.0","longtest","","0","","","","","","",""
"null","Images/frog_3.png","null","image-keyboard-response","10","19649","0.0-8.0-2.0","longtest","","0","1580682366550","non-match","frog","cow","label","practice","false"
"null","Sounds/incorrect.wav","null","audio-keyboard-response","11","21653","0.0-8.0-3.0","longtest","","0","","","","","","",""
"null","Sounds/rooster_sound.wav","null","audio-keyboard-response","12","22347","0.0-8.0-0.1","longtest","","0","","","","","","",""
"null","<p style=""font-size: 48px;"">+</p>","null","html-keyboard-response","13","23346","0.0-8.0-1.1","longtest","","0","","","","","","",""
"null","Images/cat_3.png","null","image-keyboard-response","14","23599","0.0-8.0-2.1","longtest","","0","1580682370500","non-match","cat","rooster","sound","practice","false"
"null","Sounds/incorrect.wav","null","audio-keyboard-response","15","25606","0.0-8.0-3.1","longtest","","0","","","","","","",""
"null","Sounds/cat_label.wav","null","audio-keyboard-response","16","26427","0.0-8.0-0.2","longtest","","0","","","","","","",""
"null","<p style=""font-size: 48px;"">+</p>","null","html-keyboard-response","17","27430","0.0-8.0-1.2","longtest","","0","","","","","","",""
"null","Images/car_orig.png","null","image-keyboard-response","18","27684","0.0-8.0-2.2","longtest","","0","1580682374583","non-match","car","cat","label","practice","false"
"null","Sounds/incorrect.wav","null","audio-keyboard-response","19","29699","0.0-8.0-3.2","longtest","","0","","","","","","",""
"null","Sounds/cat_sound.wav","null","audio-keyboard-response","20","30527","0.0-8.0-0.3","longtest","","0","","","","","","",""
"null","<p style=""font-size: 48px;"">+</p>","null","html-keyboard-response","21","31530","0.0-8.0-1.3","longtest","","0","","","","","","",""
"null","Images/motorcycle_3.png","null","image-keyboard-response","22","31782","0.0-8.0-2.3","longtest","","0","1580682378683","non-match","motorcycle","cat","sound","practice","false"
"null","Sounds/incorrect.wav","null","audio-keyboard-response","23","33799","0.0-8.0-3.3","longtest","","0","","","","","","",""
"null","Sounds/frog_label.wav","null","audio-keyboard-response","24","34707","0.0-8.0-0.4","longtest","","0","","","","","","",""
"null","<p style=""font-size: 48px;"">+</p>","null","html-keyboard-response","25","35713","0.0-8.0-1.4","longtest","","0","","","","","","",""
"null","Images/frog_cartoon.png","null","image-keyboard-response","26","35966","0.0-8.0-2.4","longtest","","0","1580682382866","match","frog","frog","label","practice","false"
"null","Sounds/incorrect.wav","null","audio-keyboard-response","27","37971","0.0-8.0-3.4","longtest","","0","","","","","","",""
"null","Sounds/car_label.wav","null","audio-keyboard-response","28","39047","0.0-8.0-0.5","longtest","","0","","","","","","",""
"null","<p style=""font-size: 48px;"">+</p>","null","html-keyboard-response","29","40047","0.0-8.0-1.5","longtest","","0","","","","","","",""
"null","Images/car_1.png","null","image-keyboard-response","30","40300","0.0-8.0-2.5","longtest","","0","1580682387200","match","car","car","label","practice","false"
"null","Sounds/incorrect.wav","null","audio-keyboard-response","31","42318","0.0-8.0-3.5","longtest","","0","","","","","","",""
"null","Sounds/train_sound.wav","null","audio-keyboard-response","32","43607","0.0-8.0-0.6","longtest","","0","","","","","","",""
"null","<p style=""font-size: 48px;"">+</p>","null","html-keyboard-response","33","44613","0.0-8.0-1.6","longtest","","0","","","","","","",""
"null","Images/rooster_2.png","null","image-keyboard-response","34","44866","0.0-8.0-2.6","longtest","","0","1580682391766","non-match","rooster","train","sound","practice","false"
"null","Sounds/incorrect.wav","null","audio-keyboard-response","35","46869","0.0-8.0-3.6","longtest","","0","","","","","","",""
"null","Sounds/car_sound.wav","null","audio-keyboard-response","36","47947","0.0-8.0-0.7","longtest","","0","","","","","","",""
"null","<p style=""font-size: 48px;"">+</p>","null","html-keyboard-response","37","48947","0.0-8.0-1.7","longtest","","0","","","","","","",""
"null","Images/car_3.png","null","image-keyboard-response","38","49200","0.0-8.0-2.7","longtest","","0","1580682396100","match","car","car","sound","practice","false"
"null","Sounds/incorrect.wav","null","audio-keyboard-response","39","51219","0.0-8.0-3.7","longtest","","0","","","","","","",""
"null","Sounds/cat_sound.wav","null","audio-keyboard-response","40","52047","0.0-8.0-0.8","longtest","","0","","","","","","",""
"null","<p style=""font-size: 48px;"">+</p>","null","html-keyboard-response","41","53047","0.0-8.0-1.8","longtest","","0","","","","","","",""
"null","Images/dog_cartoon.png","null","image-keyboard-response","42","53301","0.0-8.0-2.8","longtest","","0","1580682400201","non-match","dog","cat","sound","practice","false"
"null","Sounds/incorrect.wav","null","audio-keyboard-response","43","55316","0.0-8.0-3.8","longtest","","0","","","","","","",""
"null","Sounds/rooster_sound.wav","null","audio-keyboard-response","44","56008","0.0-8.0-0.9","longtest","","0","","","","","","",""
"null","<p style=""font-size: 48px;"">+</p>","null","html-keyboard-response","45","57014","0.0-8.0-1.9","longtest","","0","","","","","","",""
"null","Images/cow_2.png","null","image-keyboard-response","46","57267","0.0-8.0-2.9","longtest","","0","1580682404167","non-match","cow","rooster","sound","practice","false"
"null","Sounds/incorrect.wav","null","audio-keyboard-response","47","59271","0.0-8.0-3.9","longtest","","0","","","","","","",""
"1686.7249999922933","<p>The rest of the experiment is divided into five blocks with 100 trials in each block. It will take about 45 minutes to complete.</p>","13","html-keyboard-response","48","60959","0.0-9.0","longtest","","","","","","","","",""
"655.045000006794","<p>Remember, please do not to move or blink your eyes during the presentation of the images. </p><p>At the end of the experiment, we will show you your scores on the task so you can see how you did.</p><p>The experiment will start on the next screen.</p>","13","html-keyboard-response","49","61615","0.0-10.0","longtest","","","","","","","","",""
"null","Sounds/rooster_sound.wav","null","audio-keyboard-response","50","64287","0.0-11.0-0.0","longtest","","1","","","","","","",""
"null","<p style=""font-size: 48px;"">+</p>","null","html-keyboard-response","51","65298","0.0-11.0-1.0","longtest","","1","","","","","","",""
"null","Images/rooster_1.png","null","image-keyboard-response","52","65550","0.0-11.0-2.0","longtest","","1","1580682412451","match","rooster","rooster","sound","test","false"
"null","Sounds/incorrect.wav","null","audio-keyboard-response","53","67555","0.0-11.0-3.0","longtest","","1","","","","","","",""
"null","Sounds/motorcycle_label.wav","null","audio-keyboard-response","54","68688","0.0-11.0-0.1","longtest","","1","","","","","","",""
"null","<p style=""font-size: 48px;"">+</p>","null","html-keyboard-response","55","69698","0.0-11.0-1.1","longtest","","1","","","","","","",""
"null","Images/dog_1.png","null","image-keyboard-response","56","69965","0.0-11.0-2.1","longtest","","1","1580682416851","non-match","dog","motorcycle","label","test","false"
"null","Sounds/incorrect.wav","null","audio-keyboard-response","57","71972","0.0-11.0-3.1","longtest","","1","","","","","","",""
"null","Sounds/gun_sound.wav","null","audio-keyboard-response","58","72548","0.0-11.0-0.2","longtest","","1","","","","","","",""
"null","<p style=""font-size: 48px;"">+</p>","null","html-keyboard-response","59","73548","0.0-11.0-1.2","longtest","","1","","","","","","",""
"null","Images/gun_3.png","null","image-keyboard-response","60","73801","0.0-11.0-2.2","longtest","","1","1580682420701","match","gun","gun","sound","test","false"
"null","Sounds/incorrect.wav","null","audio-keyboard-response","61","75817","0.0-11.0-3.2","longtest","","1","","","","","","",""
"null","Sounds/rooster_sound.wav","null","audio-keyboard-response","62","76487","0.0-11.0-0.3","longtest","","1","","","","","","",""
"null","<p style=""font-size: 48px;"">+</p>","null","html-keyboard-response","63","77498","0.0-11.0-1.3","longtest","","1","","","","","","",""
"null","Images/rooster_3.png","null","image-keyboard-response","64","77764","0.0-11.0-2.3","longtest","","1","1580682424651","match","rooster","rooster","sound","test","false"
"null","Sounds/incorrect.wav","null","audio-keyboard-response","65","79770","0.0-11.0-3.3","longtest","","1","","","","","","",""
"null","Sounds/car_sound.wav","null","audio-keyboard-response","66","80847","0.0-11.0-0.4","longtest","","1","","","","","","",""
"null","<p style=""font-size: 48px;"">+</p>","null","html-keyboard-response","67","81848","0.0-11.0-1.4","longtest","","1","","","","","","",""
"null","Images/cat_3.png","null","image-keyboard-response","68","82100","0.0-11.0-2.4","longtest","","1","1580682429001","non-match","cat","car","sound","test","false"
"null","Sounds/incorrect.wav","null","audio-keyboard-response","69","84120","0.0-11.0-3.4","longtest","","1","","","","","","",""
"null","Sounds/whistle_label.wav","null","audio-keyboard-response","70","84827","0.0-11.0-0.5","longtest","","1","","","","","","",""
"null","<p style=""font-size: 48px;"">+</p>","null","html-keyboard-response","71","85831","0.0-11.0-1.5","longtest","","1","","","","","","",""
"null","Images/car_3.png","null","image-keyboard-response","72","86085","0.0-11.0-2.5","longtest","","1","1580682432984","non-match","car","whistle","label","test","false"
"null","Sounds/incorrect.wav","null","audio-keyboard-response","73","88089","0.0-11.0-3.5","longtest","","1","","","","","","",""
"null","Sounds/train_label.wav","null","audio-keyboard-response","74","89368","0.0-11.0-0.6","longtest","","1","","","","","","",""
"null","<p style=""font-size: 48px;"">+</p>","null","html-keyboard-response","75","90364","0.0-11.0-1.6","longtest","","1","","","","","","",""
"null","Images/train_2.png","null","image-keyboard-response","76","90618","0.0-11.0-2.6","longtest","","1","1580682437518","match","train","train","label","test","false"
"null","Sounds/incorrect.wav","null","audio-keyboard-response","77","92620","0.0-11.0-3.6","longtest","","1","","","","","","",""
"null","Sounds/cow_sound.wav","null","audio-keyboard-response","78","93647","0.0-11.0-0.7","longtest","","1","","","","","","",""
"null","<p style=""font-size: 48px;"">+</p>","null","html-keyboard-response","79","94648","0.0-11.0-1.7","longtest","","1","","","","","","",""
"null","Images/motorcycle_3.png","null","image-keyboard-response","80","94901","0.0-11.0-2.7","longtest","","1","1580682441801","non-match","motorcycle","cow","sound","test","false"
"null","Sounds/incorrect.wav","null","audio-keyboard-response","81","96917","0.0-11.0-3.7","longtest","","1","","","","","","",""
"null","Sounds/whistle_sound.wav","null","audio-keyboard-response","82","97607","0.0-11.0-0.8","longtest","","1","","","","","","",""
"null","<p style=""font-size: 48px;"">+</p>","null","html-keyboard-response","83","98615","0.0-11.0-1.8","longtest","","1","","","","","","",""
"null","Images/dog_orig.png","null","image-keyboard-response","84","98867","0.0-11.0-2.8","longtest","","1","1580682445768","non-match","dog","whistle","sound","test","false"
"null","Sounds/incorrect.wav","null","audio-keyboard-response","85","100884","0.0-11.0-3.8","longtest","","1","","","","","","",""
"null","Sounds/frog_sound.wav","null","audio-keyboard-response","86","101787","0.0-11.0-0.9","longtest","","1","","","","","","",""
"null","<p style=""font-size: 48px;"">+</p>","null","html-keyboard-response","87","102798","0.0-11.0-1.9","longtest","","1","","","","","","",""
"null","Images/cat_orig.png","null","image-keyboard-response","88","103051","0.0-11.0-2.9","longtest","","1","1580682449954","non-match","cat","frog","sound","test","false"
"null","Sounds/incorrect.wav","null","audio-keyboard-response","89","105054","0.0-11.0-3.9","longtest","","1","","","","","","",""
"null","Sounds/cat_sound.wav","null","audio-keyboard-response","90","105887","0.0-11.0-0.10","longtest","","1","","","","","","",""
"null","<p style=""font-size: 48px;"">+</p>","null","html-keyboard-response","91","106881","0.0-11.0-1.10","longtest","","1","","","","","","",""
"null","Images/gun_orig.png","null","image-keyboard-response","92","107134","0.0-11.0-2.10","longtest","","1","1580682454035","non-match","gun","cat","sound","test","false"
"null","Sounds/incorrect.wav","null","audio-keyboard-response","93","109137","0.0-11.0-3.10","longtest","","1","","","","","","",""
"null","Sounds/train_sound.wav","null","audio-keyboard-response","94","110427","0.0-11.0-0.11","longtest","","1","","","","","","",""
"null","<p style=""font-size: 48px;"">+</p>","null","html-keyboard-response","95","111432","0.0-11.0-1.11","longtest","","1","","","","","","",""
"null","Images/train_1.png","null","image-keyboard-response","96","111686","0.0-11.0-2.11","longtest","","1","1580682458585","match","train","train","sound","test","false"
"null","Sounds/incorrect.wav","null","audio-keyboard-response","97","113704","0.0-11.0-3.11","longtest","","1","","","","","","",""
"null","Sounds/train_label.wav","null","audio-keyboard-response","98","114988","0.0-11.0-0.12","longtest","","1","","","","","","",""
"null","<p style=""font-size: 48px;"">+</p>","null","html-keyboard-response","99","115999","0.0-11.0-1.12","longtest","","1","","","","","","",""
"null","Images/car_cartoon.png","null","image-keyboard-response","100","116252","0.0-11.0-2.12","longtest","","1","1580682463152","non-match","car","train","label","test","false"
"null","Sounds/incorrect.wav","null","audio-keyboard-response","101","118255","0.0-11.0-3.12","longtest","","1","","","","","","",""
"null","Sounds/car_sound.wav","null","audio-keyboard-response","102","119328","0.0-11.0-0.13","longtest","","1","","","","","","",""
"null","<p style=""font-size: 48px;"">+</p>","null","html-keyboard-response","103","120332","0.0-11.0-1.13","longtest","","1","","","","","","",""
"null","Images/car_1.png","null","image-keyboard-response","104","120585","0.0-11.0-2.13","longtest","","1","1580682467485","match","car","car","sound","test","false"
"null","Sounds/incorrect.wav","null","audio-keyboard-response","105","122602","0.0-11.0-3.13","longtest","","1","","","","","","",""
"null","Sounds/motorcycle_sound.wav","null","audio-keyboard-response","106","123728","0.0-11.0-0.14","longtest","","1","","","","","","",""
"null","<p style=""font-size: 48px;"">+</p>","null","html-keyboard-response","107","124732","0.0-11.0-1.14","longtest","","1","","","","","","",""
"null","Images/train_3.png","null","image-keyboard-response","108","124986","0.0-11.0-2.14","longtest","","1","1580682471885","non-match","train","motorcycle","sound","test","false"
"null","Sounds/incorrect.wav","null","audio-keyboard-response","109","127002","0.0-11.0-3.14","longtest","","1","","","","","","",""
"null","Sounds/cow_sound.wav","null","audio-keyboard-response","110","128028","0.0-11.0-0.15","longtest","","1","","","","","","",""
"null","<p style=""font-size: 48px;"">+</p>","null","html-keyboard-response","111","129032","0.0-11.0-1.15","longtest","","1","","","","","","",""
"null","Images/cat_1.png","null","image-keyboard-response","112","129284","0.0-11.0-2.15","longtest","","1","1580682476185","non-match","cat","cow","sound","test","false"
"null","Sounds/incorrect.wav","null","audio-keyboard-response","113","131289","0.0-11.0-3.15","longtest","","1","","","","","","",""
"null","Sounds/cow_label.wav","null","audio-keyboard-response","114","132308","0.0-11.0-0.16","longtest","","1","","","","","","",""
"null","<p style=""font-size: 48px;"">+</p>","null","html-keyboard-response","115","133315","0.0-11.0-1.16","longtest","","1","","","","","","",""
"null","Images/cow_cartoon.png","null","image-keyboard-response","116","133568","0.0-11.0-2.16","longtest","","1","1580682480469","match","cow","cow","label","test","false"
"null","Sounds/incorrect.wav","null","audio-keyboard-response","117","135585","0.0-11.0-3.16","longtest","","1","","","","","","",""
"null","Sounds/frog_sound.wav","null","audio-keyboard-response","118","136488","0.0-11.0-0.17","longtest","","1","","","","","","",""
"null","<p style=""font-size: 48px;"">+</p>","null","html-keyboard-response","119","137482","0.0-11.0-1.17","longtest","","1","","","","","","",""
"null","Images/frog_3.png","null","image-keyboard-response","120","137735","0.0-11.0-2.17","longtest","","1","1580682484636","match","frog","frog","sound","test","false"
"null","Sounds/incorrect.wav","null","audio-keyboard-response","121","139738","0.0-11.0-3.17","longtest","","1","","","","","","",""
"null","Sounds/dog_label.wav","null","audio-keyboard-response","122","140408","0.0-11.0-0.18","longtest","","1","","","","","","",""
"null","<p style=""font-size: 48px;"">+</p>","null","html-keyboard-response","123","141416","0.0-11.0-1.18","longtest","","1","","","","","","",""
"null","Images/frog_2.png","null","image-keyboard-response","124","141670","0.0-11.0-2.18","longtest","","1","1580682488569","non-match","frog","dog","label","test","false"
"null","Sounds/incorrect.wav","null","audio-keyboard-response","125","143687","0.0-11.0-3.18","longtest","","1","","","","","","",""
"null","Sounds/dog_sound.wav","null","audio-keyboard-response","126","144388","0.0-11.0-0.19","longtest","","1","","","","","","",""
"null","<p style=""font-size: 48px;"">+</p>","null","html-keyboard-response","127","145399","0.0-11.0-1.19","longtest","","1","","","","","","",""
"null","Images/dog_orig.png","null","image-keyboard-response","128","145652","0.0-11.0-2.19","longtest","","1","1580682492552","match","dog","dog","sound","test","false"
"null","Sounds/incorrect.wav","null","audio-keyboard-response","129","147655","0.0-11.0-3.19","longtest","","1","","","","","","",""
"null","Sounds/train_label.wav","null","audio-keyboard-response","130","148928","0.0-11.0-0.20","longtest","","1","","","","","","",""
"null","<p style=""font-size: 48px;"">+</p>","null","html-keyboard-response","131","149932","0.0-11.0-1.20","longtest","","1","","","","","","",""
"null","Images/whistle_2.png","null","image-keyboard-response","132","150186","0.0-11.0-2.20","longtest","","1","1580682497086","non-match","whistle","train","label","test","false"
"null","Sounds/incorrect.wav","null","audio-keyboard-response","133","152203","0.0-11.0-3.20","longtest","","1","","","","","","",""
"null","Sounds/whistle_label.wav","null","audio-keyboard-response","134","152908","0.0-11.0-0.21","longtest","","1","","","","","","",""
"null","<p style=""font-size: 48px;"">+</p>","null","html-keyboard-response","135","153916","0.0-11.0-1.21","longtest","","1","","","","","","",""
"null","Images/whistle_cartoon.png","null","image-keyboard-response","136","154168","0.0-11.0-2.21","longtest","","1","1580682501069","match","whistle","whistle","label","test","false"
"null","Sounds/incorrect.wav","null","audio-keyboard-response","137","156171","0.0-11.0-3.21","longtest","","1","","","","","","",""
"null","Sounds/motorcycle_label.wav","null","audio-keyboard-response","138","157308","0.0-11.0-0.22","longtest","","1","","","","","","",""
"null","<p style=""font-size: 48px;"">+</p>","null","html-keyboard-response","139","158316","0.0-11.0-1.22","longtest","","1","","","","","","",""
"null","Images/gun_3.png","null","image-keyboard-response","140","158568","0.0-11.0-2.22","longtest","","1","1580682505469","non-match","gun","motorcycle","label","test","false"
"null","Sounds/incorrect.wav","null","audio-keyboard-response","141","160572","0.0-11.0-3.22","longtest","","1","","","","","","",""
"null","Sounds/motorcycle_label.wav","null","audio-keyboard-response","142","161668","0.0-11.0-0.23","longtest","","1","","","","","","",""
"null","<p style=""font-size: 48px;"">+</p>","null","html-keyboard-response","143","162666","0.0-11.0-1.23","longtest","","1","","","","","","",""
"null","Images/motorcycle_cartoon.png","null","image-keyboard-response","144","162918","0.0-11.0-2.23","longtest","","1","1580682509819","match","motorcycle","motorcycle","label","test","false"
"null","Sounds/incorrect.wav","null","audio-keyboard-response","145","164922","0.0-11.0-3.23","longtest","","1","","","","","","",""
"null","Sounds/motorcycle_sound.wav","null","audio-keyboard-response","146","166048","0.0-11.0-0.24","longtest","","1","","","","","","",""
"null","<p style=""font-size: 48px;"">+</p>","null","html-keyboard-response","147","167099","0.0-11.0-1.24","longtest","","1","","","","","","",""
"null","Images/motorcycle_1.png","null","image-keyboard-response","148","167352","0.0-11.0-2.24","longtest","","1","1580682514252","match","motorcycle","motorcycle","sound","test","false"
"null","Sounds/incorrect.wav","null","audio-keyboard-response","149","169356","0.0-11.0-3.24","longtest","","1","","","","","","",""
"null","Sounds/cow_label.wav","null","audio-keyboard-response","150","170368","0.0-11.0-0.25","longtest","","1","","","","","","",""
"null","<p style=""font-size: 48px;"">+</p>","null","html-keyboard-response","151","171366","0.0-11.0-1.25","longtest","","1","","","","","","",""
"null","Images/cow_orig.png","null","image-keyboard-response","152","171619","0.0-11.0-2.25","longtest","","1","1580682518519","match","cow","cow","label","test","false"
"null","Sounds/incorrect.wav","null","audio-keyboard-response","153","173623","0.0-11.0-3.25","longtest","","1","","","","","","",""
"null","Sounds/motorcycle_sound.wav","null","audio-keyboard-response","154","174708","0.0-11.0-0.26","longtest","","1","","","","","","",""
"null","<p style=""font-size: 48px;"">+</p>","null","html-keyboard-response","155","175716","0.0-11.0-1.26","longtest","","1","","","","","","",""
"null","Images/whistle_cartoon.png","null","image-keyboard-response","156","175969","0.0-11.0-2.26","longtest","","1","1580682522869","non-match","whistle","motorcycle","sound","test","false"
"null","Sounds/incorrect.wav","null","audio-keyboard-response","157","177987","0.0-11.0-3.26","longtest","","1","","","","","","",""
"null","Sounds/train_sound.wav","null","audio-keyboard-response","158","179288","0.0-11.0-0.27","longtest","","1","","","","","","",""
"null","<p style=""font-size: 48px;"">+</p>","null","html-keyboard-response","159","180300","0.0-11.0-1.27","longtest","","1","","","","","","",""
"null","Images/train_cartoon.png","null","image-keyboard-response","160","180553","0.0-11.0-2.27","longtest","","1","1580682527453","match","train","train","sound","test","false"
"null","Sounds/incorrect.wav","null","audio-keyboard-response","161","182571","0.0-11.0-3.27","longtest","","1","","","","","","",""
"null","Sounds/cow_sound.wav","null","audio-keyboard-response","162","183608","0.0-11.0-0.28","longtest","","1","","","","","","",""
"null","<p style=""font-size: 48px;"">+</p>","null","html-keyboard-response","163","184616","0.0-11.0-1.28","longtest","","1","","","","","","",""
"null","Images/gun_2.png","null","image-keyboard-response","164","184869","0.0-11.0-2.28","longtest","","1","1580682531769","non-match","gun","cow","sound","test","false"
"null","Sounds/incorrect.wav","null","audio-keyboard-response","165","186887","0.0-11.0-3.28","longtest","","1","","","","","","",""
"null","Sounds/car_label.wav","null","audio-keyboard-response","166","187968","0.0-11.0-0.29","longtest","","1","","","","","","",""
"null","<p style=""font-size: 48px;"">+</p>","null","html-keyboard-response","167","188966","0.0-11.0-1.29","longtest","","1","","","","","","",""
"null","Images/train_cartoon.png","null","image-keyboard-response","168","189222","0.0-11.0-2.29","longtest","","1","1580682536120","non-match","train","car","label","test","false"
"null","Sounds/incorrect.wav","null","audio-keyboard-response","169","191238","0.0-11.0-3.29","longtest","","1","","","","","","",""
"null","Sounds/rooster_label.wav","null","audio-keyboard-response","170","191928","0.0-11.0-0.30","longtest","","1","","","","","","",""
"null","<p style=""font-size: 48px;"">+</p>","null","html-keyboard-response","171","192933","0.0-11.0-1.30","longtest","","1","","","","","","",""
"null","Images/car_orig.png","null","image-keyboard-response","172","193186","0.0-11.0-2.30","longtest","","1","1580682540087","non-match","car","rooster","label","test","false"
"null","Sounds/incorrect.wav","null","audio-keyboard-response","173","195203","0.0-11.0-3.30","longtest","","1","","","","","","",""
"null","Sounds/rooster_sound.wav","null","audio-keyboard-response","174","195908","0.0-11.0-0.31","longtest","","1","","","","","","",""
"null","<p style=""font-size: 48px;"">+</p>","null","html-keyboard-response","175","196916","0.0-11.0-1.31","longtest","","1","","","","","","",""
"null","Images/rooster_cartoon.png","null","image-keyboard-response","176","197169","0.0-11.0-2.31","longtest","","1","1580682544070","match","rooster","rooster","sound","test","false"
"null","Sounds/incorrect.wav","null","audio-keyboard-response","177","199173","0.0-11.0-3.31","longtest","","1","","","","","","",""
"null","Sounds/gun_label.wav","null","audio-keyboard-response","178","199748","0.0-11.0-0.32","longtest","","1","","","","","","",""
"null","<p style=""font-size: 48px;"">+</p>","null","html-keyboard-response","179","200766","0.0-11.0-1.32","longtest","","1","","","","","","",""
"null","Images/gun_2.png","null","image-keyboard-response","180","201019","0.0-11.0-2.32","longtest","","1","1580682547920","match","gun","gun","label","test","false"
"null","Sounds/incorrect.wav","null","audio-keyboard-response","181","203023","0.0-11.0-3.32","longtest","","1","","","","","","",""
"null","Sounds/car_label.wav","null","audio-keyboard-response","182","204068","0.0-11.0-0.33","longtest","","1","","","","","","",""
"null","<p style=""font-size: 48px;"">+</p>","null","html-keyboard-response","183","205067","0.0-11.0-1.33","longtest","","1","","","","","","",""
"null","Images/car_orig.png","null","image-keyboard-response","184","205320","0.0-11.0-2.33","longtest","","1","1580682552220","match","car","car","label","test","false"
"null","Sounds/incorrect.wav","null","audio-keyboard-response","185","207338","0.0-11.0-3.33","longtest","","1","","","","","","",""
"null","Sounds/cow_label.wav","null","audio-keyboard-response","186","208368","0.0-11.0-0.34","longtest","","1","","","","","","",""
"null","<p style=""font-size: 48px;"">+</p>","null","html-keyboard-response","187","209366","0.0-11.0-1.34","longtest","","1","","","","","","",""
"null","Images/cow_3.png","null","image-keyboard-response","188","209619","0.0-11.0-2.34","longtest","","1","1580682556520","match","cow","cow","label","test","false"
"null","Sounds/incorrect.wav","null","audio-keyboard-response","189","211623","0.0-11.0-3.34","longtest","","1","","","","","","",""
"null","Sounds/cow_sound.wav","null","audio-keyboard-response","190","212648","0.0-11.0-0.35","longtest","","1","","","","","","",""
"null","<p style=""font-size: 48px;"">+</p>","null","html-keyboard-response","191","213667","0.0-11.0-1.35","longtest","","1","","","","","","",""
"null","Images/cow_1.png","null","image-keyboard-response","192","213919","0.0-11.0-2.35","longtest","","1","1580682560820","match","cow","cow","sound","test","false"
"null","Sounds/incorrect.wav","null","audio-keyboard-response","193","215923","0.0-11.0-3.35","longtest","","1","","","","","","",""
"null","Sounds/whistle_label.wav","null","audio-keyboard-response","194","216628","0.0-11.0-0.36","longtest","","1","","","","","","",""
"null","<p style=""font-size: 48px;"">+</p>","null","html-keyboard-response","195","217633","0.0-11.0-1.36","longtest","","1","","","","","","",""
"null","Images/whistle_1.png","null","image-keyboard-response","196","217886","0.0-11.0-2.36","longtest","","1","1580682564786","match","whistle","whistle","label","test","false"
"null","Sounds/incorrect.wav","null","audio-keyboard-response","197","219891","0.0-11.0-3.36","longtest","","1","","","","","","",""
"null","Sounds/whistle_label.wav","null","audio-keyboard-response","198","220568","0.0-11.0-0.37","longtest","","1","","","","","","",""
"null","<p style=""font-size: 48px;"">+</p>","null","html-keyboard-response","199","221567","0.0-11.0-1.37","longtest","","1","","","","","","",""
"null","Images/train_2.png","null","image-keyboard-response","200","221820","0.0-11.0-2.37","longtest","","1","1580682568720","non-match","train","whistle","label","test","false"
"null","Sounds/incorrect.wav","null","audio-keyboard-response","201","223823","0.0-11.0-3.37","longtest","","1","","","","","","",""
"null","Sounds/motorcycle_label.wav","null","audio-keyboard-response","202","224968","0.0-11.0-0.38","longtest","","1","","","","","","",""
"null","<p style=""font-size: 48px;"">+</p>","null","html-keyboard-response","203","225967","0.0-11.0-1.38","longtest","","1","","","","","","",""
"null","Images/motorcycle_2.png","null","image-keyboard-response","204","226220","0.0-11.0-2.38","longtest","","1","1580682573120","match","motorcycle","motorcycle","label","test","false"
"null","Sounds/incorrect.wav","null","audio-keyboard-response","205","228223","0.0-11.0-3.38","longtest","","1","","","","","","",""
"null","Sounds/car_sound.wav","null","audio-keyboard-response","206","229308","0.0-11.0-0.39","longtest","","1","","","","","","",""
"null","<p style=""font-size: 48px;"">+</p>","null","html-keyboard-response","207","230317","0.0-11.0-1.39","longtest","","1","","","","","","",""
"null","Images/car_cartoon.png","null","image-keyboard-response","208","230570","0.0-11.0-2.39","longtest","","1","1580682577470","match","car","car","sound","test","false"
"null","Sounds/incorrect.wav","null","audio-keyboard-response","209","232587","0.0-11.0-3.39","longtest","","1","","","","","","",""
"null","Sounds/frog_label.wav","null","audio-keyboard-response","210","233489","0.0-11.0-0.40","longtest","","1","","","","","","",""
"null","<p style=""font-size: 48px;"">+</p>","null","html-keyboard-response","211","234484","0.0-11.0-1.40","longtest","","1","","","","","","",""
"null","Images/frog_cartoon.png","null","image-keyboard-response","212","234736","0.0-11.0-2.40","longtest","","1","1580682581638","match","frog","frog","label","test","false"
"null","Sounds/incorrect.wav","null","audio-keyboard-response","213","236740","0.0-11.0-3.40","longtest","","1","","","","","","",""
"null","Sounds/dog_sound.wav","null","audio-keyboard-response","214","237449","0.0-11.0-0.41","longtest","","1","","","","","","",""
"null","<p style=""font-size: 48px;"">+</p>","null","html-keyboard-response","215","238451","0.0-11.0-1.41","longtest","","1","","","","","","",""
"null","Images/dog_2.png","null","image-keyboard-response","216","238703","0.0-11.0-2.41","longtest","","1","1580682585604","match","dog","dog","sound","test","false"
"null","Sounds/incorrect.wav","null","audio-keyboard-response","217","240706","0.0-11.0-3.41","longtest","","1","","","","","","",""
"null","Sounds/gun_sound.wav","null","audio-keyboard-response","218","241289","0.0-11.0-0.42","longtest","","1","","","","","","",""
"null","<p style=""font-size: 48px;"">+</p>","null","html-keyboard-response","219","242284","0.0-11.0-1.42","longtest","","1","","","","","","",""
"null","Images/gun_orig.png","null","image-keyboard-response","220","242538","0.0-11.0-2.42","longtest","","1","1580682589437","match","gun","gun","sound","test","false"
"null","Sounds/incorrect.wav","null","audio-keyboard-response","221","244555","0.0-11.0-3.42","longtest","","1","","","","","","",""
"null","Sounds/motorcycle_sound.wav","null","audio-keyboard-response","222","245669","0.0-11.0-0.43","longtest","","1","","","","","","",""
"null","<p style=""font-size: 48px;"">+</p>","null","html-keyboard-response","223","246667","0.0-11.0-1.43","longtest","","1","","","","","","",""
"null","Images/cat_2.png","null","image-keyboard-response","224","246920","0.0-11.0-2.43","longtest","","1","1580682593821","non-match","cat","motorcycle","sound","test","false"
"null","Sounds/incorrect.wav","null","audio-keyboard-response","225","248925","0.0-11.0-3.43","longtest","","1","","","","","","",""
"null","Sounds/train_sound.wav","null","audio-keyboard-response","226","250229","0.0-11.0-0.44","longtest","","1","","","","","","",""
"null","<p style=""font-size: 48px;"">+</p>","null","html-keyboard-response","227","251234","0.0-11.0-1.44","longtest","","1","","","","","","",""
"null","Images/train_3.png","null","image-keyboard-response","228","251488","0.0-11.0-2.44","longtest","","1","1580682598387","match","train","train","sound","test","false"
"null","Sounds/incorrect.wav","null","audio-keyboard-response","229","253491","0.0-11.0-3.44","longtest","","1","","","","","","",""
"null","Sounds/whistle_sound.wav","null","audio-keyboard-response","230","254189","0.0-11.0-0.45","longtest","","1","","","","","","",""
"null","<p style=""font-size: 48px;"">+</p>","null","html-keyboard-response","231","255184","0.0-11.0-1.45","longtest","","1","","","","","","",""
"null","Images/whistle_3.png","null","image-keyboard-response","232","255437","0.0-11.0-2.45","longtest","","1","1580682602337","match","whistle","whistle","sound","test","false"
"null","Sounds/incorrect.wav","null","audio-keyboard-response","233","257440","0.0-11.0-3.45","longtest","","1","","","","","","",""
"null","Sounds/dog_label.wav","null","audio-keyboard-response","234","258109","0.0-11.0-0.46","longtest","","1","","","","","","",""
"null","<p style=""font-size: 48px;"">+</p>","null","html-keyboard-response","235","259117","0.0-11.0-1.46","longtest","","1","","","","","","",""
"null","Images/dog_1.png","null","image-keyboard-response","236","259370","0.0-11.0-2.46","longtest","","1","1580682606271","match","dog","dog","label","test","false"
"null","Sounds/incorrect.wav","null","audio-keyboard-response","237","261374","0.0-11.0-3.46","longtest","","1","","","","","","",""
"null","Sounds/frog_sound.wav","null","audio-keyboard-response","238","262289","0.0-11.0-0.47","longtest","","1","","","","","","",""
"null","<p style=""font-size: 48px;"">+</p>","null","html-keyboard-response","239","263284","0.0-11.0-1.47","longtest","","1","","","","","","",""
"null","Images/motorcycle_orig.png","null","image-keyboard-response","240","263536","0.0-11.0-2.47","longtest","","1","1580682610437","non-match","motorcycle","frog","sound","test","false"
"null","Sounds/incorrect.wav","null","audio-keyboard-response","241","265540","0.0-11.0-3.47","longtest","","1","","","","","","",""
"null","Sounds/whistle_label.wav","null","audio-keyboard-response","242","266249","0.0-11.0-0.48","longtest","","1","","","","","","",""
"null","<p style=""font-size: 48px;"">+</p>","null","html-keyboard-response","243","267251","0.0-11.0-1.48","longtest","","1","","","","","","",""
"null","Images/whistle_orig.png","null","image-keyboard-response","244","267505","0.0-11.0-2.48","longtest","","1","1580682614404","match","whistle","whistle","label","test","false"
"null","Sounds/incorrect.wav","null","audio-keyboard-response","245","269519","0.0-11.0-3.48","longtest","","1","","","","","","",""
"null","Sounds/gun_label.wav","null","audio-keyboard-response","246","270089","0.0-11.0-0.49","longtest","","1","","","","","","",""
"null","<p style=""font-size: 48px;"">+</p>","null","html-keyboard-response","247","271084","0.0-11.0-1.49","longtest","","1","","","","","","",""
"null","Images/car_2.png","null","image-keyboard-response","248","271337","0.0-11.0-2.49","longtest","","1","1580682618237","non-match","car","gun","label","test","false"
"null","Sounds/incorrect.wav","null","audio-keyboard-response","249","273341","0.0-11.0-3.49","longtest","","1","","","","","","",""
"null","Sounds/cat_label.wav","null","audio-keyboard-response","250","274189","0.0-11.0-0.50","longtest","","1","","","","","","",""
"null","<p style=""font-size: 48px;"">+</p>","null","html-keyboard-response","251","275184","0.0-11.0-1.50","longtest","","1","","","","","","",""
"null","Images/rooster_1.png","null","image-keyboard-response","252","275437","0.0-11.0-2.50","longtest","","1","1580682622338","non-match","rooster","cat","label","test","false"
"null","Sounds/incorrect.wav","null","audio-keyboard-response","253","277441","0.0-11.0-3.50","longtest","","1","","","","","","",""
"null","Sounds/train_sound.wav","null","audio-keyboard-response","254","278749","0.0-11.0-0.51","longtest","","1","","","","","","",""
"null","<p style=""font-size: 48px;"">+</p>","null","html-keyboard-response","255","279751","0.0-11.0-1.51","longtest","","1","","","","","","",""
"null","Images/frog_3.png","null","image-keyboard-response","256","280005","0.0-11.0-2.51","longtest","","1","1580682626904","non-match","frog","train","sound","test","false"
"null","Sounds/incorrect.wav","null","audio-keyboard-response","257","282021","0.0-11.0-3.51","longtest","","1","","","","","","",""
"null","Sounds/gun_label.wav","null","audio-keyboard-response","258","282569","0.0-11.0-0.52","longtest","","1","","","","","","",""
"null","<p style=""font-size: 48px;"">+</p>","null","html-keyboard-response","259","283568","0.0-11.0-1.52","longtest","","1","","","","","","",""
"null","Images/gun_1.png","null","image-keyboard-response","260","283820","0.0-11.0-2.52","longtest","","1","1580682630721","match","gun","gun","label","test","false"
"null","Sounds/incorrect.wav","null","audio-keyboard-response","261","285824","0.0-11.0-3.52","longtest","","1","","","","","","",""
"null","Sounds/whistle_label.wav","null","audio-keyboard-response","262","286509","0.0-11.0-0.53","longtest","","1","","","","","","",""
"null","<p style=""font-size: 48px;"">+</p>","null","html-keyboard-response","263","287518","0.0-11.0-1.53","longtest","","1","","","","","","",""
"null","Images/whistle_2.png","null","image-keyboard-response","264","287772","0.0-11.0-2.53","longtest","","1","1580682634671","match","whistle","whistle","label","test","false"
"null","Sounds/incorrect.wav","null","audio-keyboard-response","265","289789","0.0-11.0-3.53","longtest","","1","","","","","","",""
"null","Sounds/cat_sound.wav","null","audio-keyboard-response","266","290629","0.0-11.0-0.54","longtest","","1","","","","","","",""
"null","<p style=""font-size: 48px;"">+</p>","null","html-keyboard-response","267","291635","0.0-11.0-1.54","longtest","","1","","","","","","",""
"null","Images/cat_cartoon.png","null","image-keyboard-response","268","291887","0.0-11.0-2.54","longtest","","1","1580682638788","match","cat","cat","sound","test","false"
"null","Sounds/incorrect.wav","null","audio-keyboard-response","269","293892","0.0-11.0-3.54","longtest","","1","","","","","","",""
"null","Sounds/train_label.wav","null","audio-keyboard-response","270","295169","0.0-11.0-0.55","longtest","","1","","","","","","",""
"null","<p style=""font-size: 48px;"">+</p>","null","html-keyboard-response","271","296168","0.0-11.0-1.55","longtest","","1","","","","","","",""
"null","Images/dog_3.png","null","image-keyboard-response","272","296421","0.0-11.0-2.55","longtest","","1","1580682643321","non-match","dog","train","label","test","false"
"null","Sounds/incorrect.wav","null","audio-keyboard-response","273","298426","0.0-11.0-3.55","longtest","","1","","","","","","",""
"null","Sounds/car_label.wav","null","audio-keyboard-response","274","299509","0.0-11.0-0.56","longtest","","1","","","","","","",""
"null","<p style=""font-size: 48px;"">+</p>","null","html-keyboard-response","275","300518","0.0-11.0-1.56","longtest","","1","","","","","","",""
"null","Images/whistle_3.png","null","image-keyboard-response","276","300772","0.0-11.0-2.56","longtest","","1","1580682647672","non-match","whistle","car","label","test","false"
"null","Sounds/incorrect.wav","null","audio-keyboard-response","277","302790","0.0-11.0-3.56","longtest","","1","","","","","","",""
"null","Sounds/cat_label.wav","null","audio-keyboard-response","278","303629","0.0-11.0-0.57","longtest","","1","","","","","","",""
"null","<p style=""font-size: 48px;"">+</p>","null","html-keyboard-response","279","304635","0.0-11.0-1.57","longtest","","1","","","","","","",""
"null","Images/cat_orig.png","null","image-keyboard-response","280","304888","0.0-11.0-2.57","longtest","","1","1580682651788","match","cat","cat","label","test","false"
"null","Sounds/incorrect.wav","null","audio-keyboard-response","281","306905","0.0-11.0-3.57","longtest","","1","","","","","","",""
"null","Sounds/train_sound.wav","null","audio-keyboard-response","282","308209","0.0-11.0-0.58","longtest","","1","","","","","","",""
"null","<p style=""font-size: 48px;"">+</p>","null","html-keyboard-response","283","309219","0.0-11.0-1.58","longtest","","1","","","","","","",""
"null","Images/train_orig.png","null","image-keyboard-response","284","309471","0.0-11.0-2.58","longtest","","1","1580682656372","match","train","train","sound","test","false"
"null","Sounds/incorrect.wav","null","audio-keyboard-response","285","311476","0.0-11.0-3.58","longtest","","1","","","","","","",""
"null","Sounds/dog_sound.wav","null","audio-keyboard-response","286","312189","0.0-11.0-0.59","longtest","","1","","","","","","",""
"null","<p style=""font-size: 48px;"">+</p>","null","html-keyboard-response","287","313185","0.0-11.0-1.59","longtest","","1","","","","","","",""
"null","Images/dog_cartoon.png","null","image-keyboard-response","288","313438","0.0-11.0-2.59","longtest","","1","1580682660338","match","dog","dog","sound","test","false"
"null","Sounds/incorrect.wav","null","audio-keyboard-response","289","315441","0.0-11.0-3.59","longtest","","1","","","","","","",""
"null","Sounds/whistle_label.wav","null","audio-keyboard-response","290","316149","0.0-11.0-0.60","longtest","","1","","","","","","",""
"null","<p style=""font-size: 48px;"">+</p>","null","html-keyboard-response","291","317152","0.0-11.0-1.60","longtest","","1","","","","","","",""
"null","Images/frog_orig.png","null","image-keyboard-response","292","317405","0.0-11.0-2.60","longtest","","1","1580682664305","non-match","frog","whistle","label","test","false"
"null","Sounds/incorrect.wav","null","audio-keyboard-response","293","319422","0.0-11.0-3.60","longtest","","1","","","","","","",""
"null","Sounds/gun_label.wav","null","audio-keyboard-response","294","320009","0.0-11.0-0.61","longtest","","1","","","","","","",""
"null","<p style=""font-size: 48px;"">+</p>","null","html-keyboard-response","295","321019","0.0-11.0-1.61","longtest","","1","","","","","","",""
"null","Images/train_1.png","null","image-keyboard-response","296","321272","0.0-11.0-2.61","longtest","","1","1580682668172","non-match","train","gun","label","test","false"
"null","Sounds/incorrect.wav","null","audio-keyboard-response","297","323275","0.0-11.0-3.61","longtest","","1","","","","","","",""
"null","Sounds/frog_label.wav","null","audio-keyboard-response","298","324169","0.0-11.0-0.62","longtest","","1","","","","","","",""
"null","<p style=""font-size: 48px;"">+</p>","null","html-keyboard-response","299","325169","0.0-11.0-1.62","longtest","","1","","","","","","",""
"null","Images/frog_orig.png","null","image-keyboard-response","300","325422","0.0-11.0-2.62","longtest","","1","1580682672322","match","frog","frog","label","test","false"
"null","Sounds/incorrect.wav","null","audio-keyboard-response","301","327440","0.0-11.0-3.62","longtest","","1","","","","","","",""
"null","Sounds/cow_label.wav","null","audio-keyboard-response","302","328469","0.0-11.0-0.63","longtest","","1","","","","","","",""
"null","<p style=""font-size: 48px;"">+</p>","null","html-keyboard-response","303","329469","0.0-11.0-1.63","longtest","","1","","","","","","",""
"null","Images/car_1.png","null","image-keyboard-response","304","329722","0.0-11.0-2.63","longtest","","1","1580682676622","non-match","car","cow","label","test","false"
"null","Sounds/incorrect.wav","null","audio-keyboard-response","305","331725","0.0-11.0-3.63","longtest","","1","","","","","","",""
"null","Sounds/gun_sound.wav","null","audio-keyboard-response","306","332309","0.0-11.0-0.64","longtest","","1","","","","","","",""
"null","<p style=""font-size: 48px;"">+</p>","null","html-keyboard-response","307","333319","0.0-11.0-1.64","longtest","","1","","","","","","",""
"null","Images/whistle_1.png","null","image-keyboard-response","308","333571","0.0-11.0-2.64","longtest","","1","1580682680472","non-match","whistle","gun","sound","test","false"
"null","Sounds/incorrect.wav","null","audio-keyboard-response","309","335576","0.0-11.0-3.64","longtest","","1","","","","","","",""
"null","Sounds/frog_label.wav","null","audio-keyboard-response","310","336449","0.0-11.0-0.65","longtest","","1","","","","","","",""
"null","<p style=""font-size: 48px;"">+</p>","null","html-keyboard-response","311","337452","0.0-11.0-1.65","longtest","","1","","","","","","",""
"null","Images/frog_2.png","null","image-keyboard-response","312","337706","0.0-11.0-2.65","longtest","","1","1580682684605","match","frog","frog","label","test","false"
"null","Sounds/incorrect.wav","null","audio-keyboard-response","313","339722","0.0-11.0-3.65","longtest","","1","","","","","","",""
"null","Sounds/rooster_label.wav","null","audio-keyboard-response","314","340429","0.0-11.0-0.66","longtest","","1","","","","","","",""
"null","<p style=""font-size: 48px;"">+</p>","null","html-keyboard-response","315","341436","0.0-11.0-1.66","longtest","","1","","","","","","",""
"null","Images/train_orig.png","null","image-keyboard-response","316","341689","0.0-11.0-2.66","longtest","","1","1580682688589","non-match","train","rooster","label","test","false"
"null","Sounds/incorrect.wav","null","audio-keyboard-response","317","343706","0.0-11.0-3.66","longtest","","1","","","","","","",""
"null","Sounds/frog_label.wav","null","audio-keyboard-response","318","344569","0.0-11.0-0.67","longtest","","1","","","","","","",""
"null","<p style=""font-size: 48px;"">+</p>","null","html-keyboard-response","319","345569","0.0-11.0-1.67","longtest","","1","","","","","","",""
"null","Images/gun_1.png","null","image-keyboard-response","320","345822","0.0-11.0-2.67","longtest","","1","1580682692722","non-match","gun","frog","label","test","false"
"null","Sounds/incorrect.wav","null","audio-keyboard-response","321","347825","0.0-11.0-3.67","longtest","","1","","","","","","",""
"null","Sounds/dog_label.wav","null","audio-keyboard-response","322","348489","0.0-11.0-0.68","longtest","","1","","","","","","",""
"null","<p style=""font-size: 48px;"">+</p>","null","html-keyboard-response","323","349486","0.0-11.0-1.68","longtest","","1","","","","","","",""
"null","Images/cat_cartoon.png","null","image-keyboard-response","324","349737","0.0-11.0-2.68","longtest","","1","1580682696639","non-match","cat","dog","label","test","false"
"null","Sounds/incorrect.wav","null","audio-keyboard-response","325","351741","0.0-11.0-3.68","longtest","","1","","","","","","",""
"null","Sounds/car_label.wav","null","audio-keyboard-response","326","352829","0.0-11.0-0.69","longtest","","1","","","","","","",""
"null","<p style=""font-size: 48px;"">+</p>","null","html-keyboard-response","327","353836","0.0-11.0-1.69","longtest","","1","","","","","","",""
"null","Images/car_3.png","null","image-keyboard-response","328","354088","0.0-11.0-2.69","longtest","","1","1580682700989","match","car","car","label","test","false"
"null","Sounds/incorrect.wav","null","audio-keyboard-response","329","356106","0.0-11.0-3.69","longtest","","1","","","","","","",""
"null","Sounds/frog_sound.wav","null","audio-keyboard-response","330","357010","0.0-11.0-0.70","longtest","","1","","","","","","",""
"null","<p style=""font-size: 48px;"">+</p>","null","html-keyboard-response","331","358019","0.0-11.0-1.70","longtest","","1","","","","","","",""
"null","Images/rooster_cartoon.png","null","image-keyboard-response","332","358271","0.0-11.0-2.70","longtest","","1","1580682705172","non-match","rooster","frog","sound","test","false"
"null","Sounds/incorrect.wav","null","audio-keyboard-response","333","360275","0.0-11.0-3.70","longtest","","1","","","","","","",""
"null","Sounds/rooster_label.wav","null","audio-keyboard-response","334","360970","0.0-11.0-0.71","longtest","","1","","","","","","",""
"null","<p style=""font-size: 48px;"">+</p>","null","html-keyboard-response","335","361969","0.0-11.0-1.71","longtest","","1","","","","","","",""
"null","Images/frog_cartoon.png","null","image-keyboard-response","336","362222","0.0-11.0-2.71","longtest","","1","1580682709123","non-match","frog","rooster","label","test","false"
"null","Sounds/incorrect.wav","null","audio-keyboard-response","337","364225","0.0-11.0-3.71","longtest","","1","","","","","","",""
"null","Sounds/rooster_label.wav","null","audio-keyboard-response","338","364889","0.0-11.0-0.72","longtest","","1","","","","","","",""
"null","<p style=""font-size: 48px;"">+</p>","null","html-keyboard-response","339","365886","0.0-11.0-1.72","longtest","","1","","","","","","",""
"null","Images/dog_2.png","null","image-keyboard-response","340","366139","0.0-11.0-2.72","longtest","","1","1580682713039","non-match","dog","rooster","label","test","false"
"null","Sounds/incorrect.wav","null","audio-keyboard-response","341","368142","0.0-11.0-3.72","longtest","","1","","","","","","",""
"null","Sounds/frog_sound.wav","null","audio-keyboard-response","342","369030","0.0-11.0-0.73","longtest","","1","","","","","","",""
"null","<p style=""font-size: 48px;"">+</p>","null","html-keyboard-response","343","370036","0.0-11.0-1.73","longtest","","1","","","","","","",""
"null","Images/cow_orig.png","null","image-keyboard-response","344","370289","0.0-11.0-2.73","longtest","","1","1580682717189","non-match","cow","frog","sound","test","false"
"null","Sounds/incorrect.wav","null","audio-keyboard-response","345","372306","0.0-11.0-3.73","longtest","","1","","","","","","",""
"null","Sounds/cow_sound.wav","null","audio-keyboard-response","346","373329","0.0-11.0-0.74","longtest","","1","","","","","","",""
"null","<p style=""font-size: 48px;"">+</p>","null","html-keyboard-response","347","374336","0.0-11.0-1.74","longtest","","1","","","","","","",""
"null","Images/rooster_orig.png","null","image-keyboard-response","348","374588","0.0-11.0-2.74","longtest","","1","1580682721489","non-match","rooster","cow","sound","test","false"
"null","Sounds/incorrect.wav","null","audio-keyboard-response","349","376592","0.0-11.0-3.74","longtest","","1","","","","","","",""
"null","Sounds/dog_label.wav","null","audio-keyboard-response","350","377249","0.0-11.0-0.75","longtest","","1","","","","","","",""
"null","<p style=""font-size: 48px;"">+</p>","null","html-keyboard-response","351","378253","0.0-11.0-1.75","longtest","","1","","","","","","",""
"null","Images/motorcycle_cartoon.png","null","image-keyboard-response","352","378506","0.0-11.0-2.75","longtest","","1","1580682725406","non-match","motorcycle","dog","label","test","false"
"null","Sounds/incorrect.wav","null","audio-keyboard-response","353","380522","0.0-11.0-3.75","longtest","","1","","","","","","",""
"null","Sounds/cat_sound.wav","null","audio-keyboard-response","354","381369","0.0-11.0-0.76","longtest","","1","","","","","","",""
"null","<p style=""font-size: 48px;"">+</p>","null","html-keyboard-response","355","382369","0.0-11.0-1.76","longtest","","1","","","","","","",""
"null","Images/dog_cartoon.png","null","image-keyboard-response","356","382622","0.0-11.0-2.76","longtest","","1","1580682729523","non-match","dog","cat","sound","test","false"
"null","Sounds/incorrect.wav","null","audio-keyboard-response","357","384625","0.0-11.0-3.76","longtest","","1","","","","","","",""
"null","Sounds/gun_label.wav","null","audio-keyboard-response","358","385209","0.0-11.0-0.77","longtest","","1","","","","","","",""
"null","<p style=""font-size: 48px;"">+</p>","null","html-keyboard-response","359","386220","0.0-11.0-1.77","longtest","","1","","","","","","",""
"null","Images/gun_cartoon.png","null","image-keyboard-response","360","386472","0.0-11.0-2.77","longtest","","1","1580682733373","match","gun","gun","label","test","false"
"null","Sounds/incorrect.wav","null","audio-keyboard-response","361","388477","0.0-11.0-3.77","longtest","","1","","","","","","",""
"null","Sounds/car_sound.wav","null","audio-keyboard-response","362","389549","0.0-11.0-0.78","longtest","","1","","","","","","",""
"null","<p style=""font-size: 48px;"">+</p>","null","html-keyboard-response","363","390553","0.0-11.0-1.78","longtest","","1","","","","","","",""
"null","Images/gun_cartoon.png","null","image-keyboard-response","364","390807","0.0-11.0-2.78","longtest","","1","1580682737706","non-match","gun","car","sound","test","false"
"null","Sounds/incorrect.wav","null","audio-keyboard-response","365","392810","0.0-11.0-3.78","longtest","","1","","","","","","",""
"null","Sounds/cat_label.wav","null","audio-keyboard-response","366","393649","0.0-11.0-0.79","longtest","","1","","","","","","",""
"null","<p style=""font-size: 48px;"">+</p>","null","html-keyboard-response","367","394653","0.0-11.0-1.79","longtest","","1","","","","","","",""
"null","Images/cow_3.png","null","image-keyboard-response","368","394906","0.0-11.0-2.79","longtest","","1","1580682741806","non-match","cow","cat","label","test","false"
"null","Sounds/incorrect.wav","null","audio-keyboard-response","369","396922","0.0-11.0-3.79","longtest","","1","","","","","","",""
"null","Sounds/cat_sound.wav","null","audio-keyboard-response","370","397729","0.0-11.0-0.80","longtest","","1","","","","","","",""
"null","<p style=""font-size: 48px;"">+</p>","null","html-keyboard-response","371","398736","0.0-11.0-1.80","longtest","","1","","","","","","",""
"null","Images/cat_1.png","null","image-keyboard-response","372","398989","0.0-11.0-2.80","longtest","","1","1580682745889","match","cat","cat","sound","test","false"
"null","Sounds/incorrect.wav","null","audio-keyboard-response","373","400992","0.0-11.0-3.80","longtest","","1","","","","","","",""
"null","Sounds/cat_sound.wav","null","audio-keyboard-response","374","401809","0.0-11.0-0.81","longtest","","1","","","","","","",""
"null","<p style=""font-size: 48px;"">+</p>","null","html-keyboard-response","375","402803","0.0-11.0-1.81","longtest","","1","","","","","","",""
"null","Images/motorcycle_2.png","null","image-keyboard-response","376","403056","0.0-11.0-2.81","longtest","","1","1580682749956","non-match","motorcycle","cat","sound","test","false"
"null","Sounds/incorrect.wav","null","audio-keyboard-response","377","405059","0.0-11.0-3.81","longtest","","1","","","","","","",""
"null","Sounds/rooster_sound.wav","null","audio-keyboard-response","378","405769","0.0-11.0-0.82","longtest","","1","","","","","","",""
"null","<p style=""font-size: 48px;"">+</p>","null","html-keyboard-response","379","406770","0.0-11.0-1.82","longtest","","1","","","","","","",""
"null","Images/rooster_orig.png","null","image-keyboard-response","380","407022","0.0-11.0-2.82","longtest","","1","1580682753923","match","rooster","rooster","sound","test","false"
"null","Sounds/incorrect.wav","null","audio-keyboard-response","381","409039","0.0-11.0-3.82","longtest","","1","","","","","","",""
"null","Sounds/car_sound.wav","null","audio-keyboard-response","382","410109","0.0-11.0-0.83","longtest","","1","","","","","","",""
"null","<p style=""font-size: 48px;"">+</p>","null","html-keyboard-response","383","411120","0.0-11.0-1.83","longtest","","1","","","","","","",""
"null","Images/frog_1.png","null","image-keyboard-response","384","411372","0.0-11.0-2.83","longtest","","1","1580682758273","non-match","frog","car","sound","test","false"
"null","Sounds/incorrect.wav","null","audio-keyboard-response","385","413377","0.0-11.0-3.83","longtest","","1","","","","","","",""
"null","Sounds/rooster_sound.wav","null","audio-keyboard-response","386","414050","0.0-11.0-0.84","longtest","","1","","","","","","",""
"null","<p style=""font-size: 48px;"">+</p>","null","html-keyboard-response","387","415054","0.0-11.0-1.84","longtest","","1","","","","","","",""
"null","Images/whistle_orig.png","null","image-keyboard-response","388","415307","0.0-11.0-2.84","longtest","","1","1580682762208","non-match","whistle","rooster","sound","test","false"
"null","Sounds/incorrect.wav","null","audio-keyboard-response","389","417323","0.0-11.0-3.84","longtest","","1","","","","","","",""
"null","Sounds/cat_label.wav","null","audio-keyboard-response","390","418170","0.0-11.0-0.85","longtest","","1","","","","","","",""
"null","<p style=""font-size: 48px;"">+</p>","null","html-keyboard-response","391","419171","0.0-11.0-1.85","longtest","","1","","","","","","",""
"null","Images/cat_2.png","null","image-keyboard-response","392","419423","0.0-11.0-2.85","longtest","","1","1580682766324","match","cat","cat","label","test","false"
"null","Sounds/incorrect.wav","null","audio-keyboard-response","393","421440","0.0-11.0-3.85","longtest","","1","","","","","","",""
"null","Sounds/dog_sound.wav","null","audio-keyboard-response","394","422150","0.0-11.0-0.86","longtest","","1","","","","","","",""
"null","<p style=""font-size: 48px;"">+</p>","null","html-keyboard-response","395","423154","0.0-11.0-1.86","longtest","","1","","","","","","",""
"null","Images/dog_3.png","null","image-keyboard-response","396","423407","0.0-11.0-2.86","longtest","","1","1580682770307","match","dog","dog","sound","test","false"
"null","Sounds/incorrect.wav","null","audio-keyboard-response","397","425424","0.0-11.0-3.86","longtest","","1","","","","","","",""
"null","Sounds/cow_label.wav","null","audio-keyboard-response","398","426450","0.0-11.0-0.87","longtest","","1","","","","","","",""
"null","<p style=""font-size: 48px;"">+</p>","null","html-keyboard-response","399","427454","0.0-11.0-1.87","longtest","","1","","","","","","",""
"null","Images/cow_2.png","null","image-keyboard-response","400","427706","0.0-11.0-2.87","longtest","","1","1580682774607","match","cow","cow","label","test","false"
"null","Sounds/incorrect.wav","null","audio-keyboard-response","401","429710","0.0-11.0-3.87","longtest","","1","","","","","","",""
"null","Sounds/car_label.wav","null","audio-keyboard-response","402","430790","0.0-11.0-0.88","longtest","","1","","","","","","",""
"null","<p style=""font-size: 48px;"">+</p>","null","html-keyboard-response","403","431787","0.0-11.0-1.88","longtest","","1","","","","","","",""
"null","Images/car_2.png","null","image-keyboard-response","404","432041","0.0-11.0-2.88","longtest","","1","1580682778941","match","car","car","label","test","false"
"null","Sounds/incorrect.wav","null","audio-keyboard-response","405","434044","0.0-11.0-3.88","longtest","","1","","","","","","",""
"null","Sounds/motorcycle_label.wav","null","audio-keyboard-response","406","435190","0.0-11.0-0.89","longtest","","1","","","","","","",""
"null","<p style=""font-size: 48px;"">+</p>","null","html-keyboard-response","407","436188","0.0-11.0-1.89","longtest","","1","","","","","","",""
"null","Images/motorcycle_orig.png","null","image-keyboard-response","408","436441","0.0-11.0-2.89","longtest","","1","1580682783341","match","motorcycle","motorcycle","label","test","false"
"null","Sounds/incorrect.wav","null","audio-keyboard-response","409","438445","0.0-11.0-3.89","longtest","","1","","","","","","",""
"null","Sounds/dog_sound.wav","null","audio-keyboard-response","410","439130","0.0-11.0-0.90","longtest","","1","","","","","","",""
"null","<p style=""font-size: 48px;"">+</p>","null","html-keyboard-response","411","440138","0.0-11.0-1.90","longtest","","1","","","","","","",""
"null","Images/cow_cartoon.png","null","image-keyboard-response","412","440391","0.0-11.0-2.90","longtest","","1","1580682787291","non-match","cow","dog","sound","test","false"
"null","Sounds/incorrect.wav","null","audio-keyboard-response","413","442408","0.0-11.0-3.90","longtest","","1","","","","","","",""
"null","Sounds/cat_sound.wav","null","audio-keyboard-response","414","443250","0.0-11.0-0.91","longtest","","1","","","","","","",""
"null","<p style=""font-size: 48px;"">+</p>","null","html-keyboard-response","415","444254","0.0-11.0-1.91","longtest","","1","","","","","","",""
"null","Images/cat_3.png","null","image-keyboard-response","416","444506","0.0-11.0-2.91","longtest","","1","1580682791407","match","cat","cat","sound","test","false"
"null","Sounds/incorrect.wav","null","audio-keyboard-response","417","446525","0.0-11.0-3.91","longtest","","1","","","","","","",""
"null","Sounds/train_sound.wav","null","audio-keyboard-response","418","447830","0.0-11.0-0.92","longtest","","1","","","","","","",""
"null","<p style=""font-size: 48px;"">+</p>","null","html-keyboard-response","419","448838","0.0-11.0-1.92","longtest","","1","","","","","","",""
"null","Images/rooster_2.png","null","image-keyboard-response","420","449106","0.0-11.0-2.92","longtest","","1","1580682795991","non-match","rooster","train","sound","test","false"
"null","Sounds/incorrect.wav","null","audio-keyboard-response","421","451123","0.0-11.0-3.92","longtest","","1","","","","","","",""
"null","Sounds/motorcycle_sound.wav","null","audio-keyboard-response","422","452250","0.0-11.0-0.93","longtest","","1","","","","","","",""
"null","<p style=""font-size: 48px;"">+</p>","null","html-keyboard-response","423","453254","0.0-11.0-1.93","longtest","","1","","","","","","",""
"null","Images/motorcycle_3.png","null","image-keyboard-response","424","453507","0.0-11.0-2.93","longtest","","1","1580682800408","match","motorcycle","motorcycle","sound","test","false"
"null","Sounds/incorrect.wav","null","audio-keyboard-response","425","455524","0.0-11.0-3.93","longtest","","1","","","","","","",""
"null","Sounds/frog_label.wav","null","audio-keyboard-response","426","456430","0.0-11.0-0.94","longtest","","1","","","","","","",""
"null","<p style=""font-size: 48px;"">+</p>","null","html-keyboard-response","427","457438","0.0-11.0-1.94","longtest","","1","","","","","","",""
"null","Images/frog_1.png","null","image-keyboard-response","428","457691","0.0-11.0-2.94","longtest","","1","1580682804591","match","frog","frog","label","test","false"
"null","Sounds/incorrect.wav","null","audio-keyboard-response","429","459709","0.0-11.0-3.94","longtest","","1","","","","","","",""
"null","Sounds/gun_sound.wav","null","audio-keyboard-response","430","460290","0.0-11.0-0.95","longtest","","1","","","","","","",""
"null","<p style=""font-size: 48px;"">+</p>","null","html-keyboard-response","431","461288","0.0-11.0-1.95","longtest","","1","","","","","","",""
"null","Images/cow_2.png","null","image-keyboard-response","432","461541","0.0-11.0-2.95","longtest","","1","1580682808441","non-match","cow","gun","sound","test","false"
"null","Sounds/incorrect.wav","null","audio-keyboard-response","433","463546","0.0-11.0-3.95","longtest","","1","","","","","","",""
"null","Sounds/rooster_sound.wav","null","audio-keyboard-response","434","464250","0.0-11.0-0.96","longtest","","1","","","","","","",""
"null","<p style=""font-size: 48px;"">+</p>","null","html-keyboard-response","435","465255","0.0-11.0-1.96","longtest","","1","","","","","","",""
"null","Images/rooster_2.png","null","image-keyboard-response","436","465507","0.0-11.0-2.96","longtest","","1","1580682812408","match","rooster","rooster","sound","test","false"
"null","Sounds/incorrect.wav","null","audio-keyboard-response","437","467524","0.0-11.0-3.96","longtest","","1","","","","","","",""
"null","Sounds/car_sound.wav","null","audio-keyboard-response","438","468590","0.0-11.0-0.97","longtest","","1","","","","","","",""
"null","<p style=""font-size: 48px;"">+</p>","null","html-keyboard-response","439","469588","0.0-11.0-1.97","longtest","","1","","","","","","",""
"null","Images/cow_1.png","null","image-keyboard-response","440","469841","0.0-11.0-2.97","longtest","","1","1580682816741","non-match","cow","car","sound","test","false"
"null","Sounds/incorrect.wav","null","audio-keyboard-response","441","471844","0.0-11.0-3.97","longtest","","1","","","","","","",""
"null","Sounds/gun_label.wav","null","audio-keyboard-response","442","472430","0.0-11.0-0.98","longtest","","1","","","","","","",""
"null","<p style=""font-size: 48px;"">+</p>","null","html-keyboard-response","443","473438","0.0-11.0-1.98","longtest","","1","","","","","","",""
"null","Images/motorcycle_1.png","null","image-keyboard-response","444","473691","0.0-11.0-2.98","longtest","","1","1580682820591","non-match","motorcycle","gun","label","test","false"
"null","Sounds/incorrect.wav","null","audio-keyboard-response","445","475694","0.0-11.0-3.98","longtest","","1","","","","","","",""
"null","Sounds/dog_label.wav","null","audio-keyboard-response","446","476350","0.0-11.0-0.99","longtest","","1","","","","","","",""
"null","<p style=""font-size: 48px;"">+</p>","null","html-keyboard-response","447","477355","0.0-11.0-1.99","longtest","","1","","","","","","",""
"null","Images/rooster_3.png","null","image-keyboard-response","448","477607","0.0-11.0-2.99","longtest","","1","1580682824508","non-match","rooster","dog","label","test","false"
"null","Sounds/incorrect.wav","null","audio-keyboard-response","449","479618","0.0-11.0-3.99","longtest","","1","","","","","","",""
"null","<p>Please take this opportunity to rest your eyes before proceeding.</p><p>When ready, press the enter key to continue to the next set of trials.</p>","null","html-keyboard-response","450","480122","0.0-12.0","longtest","","","","","","","","",""
"null","Sounds/train_sound.wav","null","audio-keyboard-response","451","483430","0.0-13.0-0.0","longtest","","2","","","","","","",""
"null","<p style=""font-size: 48px;"">+</p>","null","html-keyboard-response","452","484438","0.0-13.0-1.0","longtest","","2","","","","","","",""
"null","Images/train_cartoon.png","null","image-keyboard-response","453","484692","0.0-13.0-2.0","longtest","","2","1580682831591","match","train","train","sound","test","false"
"null","Sounds/incorrect.wav","null","audio-keyboard-response","454","486710","0.0-13.0-3.0","longtest","","2","","","","","","",""
"null","Sounds/gun_sound.wav","null","audio-keyboard-response","455","487290","0.0-13.0-0.1","longtest","","2","","","","","","",""
"null","<p style=""font-size: 48px;"">+</p>","null","html-keyboard-response","456","488288","0.0-13.0-1.1","longtest","","2","","","","","","",""
"null","Images/gun_1.png","null","image-keyboard-response","457","488541","0.0-13.0-2.1","longtest","","2","1580682835441","match","gun","gun","sound","test","false"
"null","Sounds/incorrect.wav","null","audio-keyboard-response","458","490546","0.0-13.0-3.1","longtest","","2","","","","","","",""
"null","Sounds/motorcycle_label.wav","null","audio-keyboard-response","459","491690","0.0-13.0-0.2","longtest","","2","","","","","","",""
"null","<p style=""font-size: 48px;"">+</p>","null","html-keyboard-response","460","492688","0.0-13.0-1.2","longtest","","2","","","","","","",""
"null","Images/motorcycle_1.png","null","image-keyboard-response","461","492941","0.0-13.0-2.2","longtest","","2","1580682839841","match","motorcycle","motorcycle","label","test","false"
"null","Sounds/incorrect.wav","null","audio-keyboard-response","462","494944","0.0-13.0-3.2","longtest","","2","","","","","","",""
"null","Sounds/rooster_label.wav","null","audio-keyboard-response","463","495650","0.0-13.0-0.3","longtest","","2","","","","","","",""
"null","<p style=""font-size: 48px;"">+</p>","null","html-keyboard-response","464","496655","0.0-13.0-1.3","longtest","","2","","","","","","",""
"null","Images/cat_cartoon.png","null","image-keyboard-response","465","496908","0.0-13.0-2.3","longtest","","2","1580682843808","non-match","cat","rooster","label","test","false"
"null","Sounds/incorrect.wav","null","audio-keyboard-response","466","498911","0.0-13.0-3.3","longtest","","2","","","","","","",""
"null","Sounds/cow_sound.wav","null","audio-keyboard-response","467","499930","0.0-13.0-0.4","longtest","","2","","","","","","",""
"null","<p style=""font-size: 48px;"">+</p>","null","html-keyboard-response","468","500938","0.0-13.0-1.4","longtest","","2","","","","","","",""
"null","Images/cow_cartoon.png","null","image-keyboard-response","469","501192","0.0-13.0-2.4","longtest","","2","1580682848092","match","cow","cow","sound","test","false"
"null","Sounds/incorrect.wav","null","audio-keyboard-response","470","503195","0.0-13.0-3.4","longtest","","2","","","","","","",""
"null","Sounds/cow_sound.wav","null","audio-keyboard-response","471","504191","0.0-13.0-0.5","longtest","","2","","","","","","",""
"null","<p style=""font-size: 48px;"">+</p>","null","html-keyboard-response","472","505188","0.0-13.0-1.5","longtest","","2","","","","","","",""
"null","Images/rooster_1.png","null","image-keyboard-response","473","505441","0.0-13.0-2.5","longtest","","2","1580682852342","non-match","rooster","cow","sound","test","false"
"null","Sounds/incorrect.wav","null","audio-keyboard-response","474","507446","0.0-13.0-3.5","longtest","","2","","","","","","",""
"null","Sounds/gun_label.wav","null","audio-keyboard-response","475","508030","0.0-13.0-0.6","longtest","","2","","","","","","",""
"null","<p style=""font-size: 48px;"">+</p>","null","html-keyboard-response","476","509038","0.0-13.0-1.6","longtest","","2","","","","","","",""
"null","Images/rooster_3.png","null","image-keyboard-response","477","509291","0.0-13.0-2.6","longtest","","2","1580682856192","non-match","rooster","gun","label","test","false"
"null","Sounds/incorrect.wav","null","audio-keyboard-response","478","511295","0.0-13.0-3.6","longtest","","2","","","","","","",""
"null","Sounds/gun_label.wav","null","audio-keyboard-response","479","511850","0.0-13.0-0.7","longtest","","2","","","","","","",""
"null","<p style=""font-size: 48px;"">+</p>","null","html-keyboard-response","480","512855","0.0-13.0-1.7","longtest","","2","","","","","","",""
"null","Images/gun_2.png","null","image-keyboard-response","481","513107","0.0-13.0-2.7","longtest","","2","1580682860008","match","gun","gun","label","test","false"
"null","Sounds/incorrect.wav","null","audio-keyboard-response","482","515110","0.0-13.0-3.7","longtest","","2","","","","","","",""
"null","Sounds/dog_label.wav","null","audio-keyboard-response","483","515771","0.0-13.0-0.8","longtest","","2","","","","","","",""
"null","<p style=""font-size: 48px;"">+</p>","null","html-keyboard-response","484","516788","0.0-13.0-1.8","longtest","","2","","","","","","",""
"null","Images/cat_2.png","null","image-keyboard-response","485","517041","0.0-13.0-2.8","longtest","","2","1580682863942","non-match","cat","dog","label","test","false"
"null","Sounds/incorrect.wav","null","audio-keyboard-response","486","519044","0.0-13.0-3.8","longtest","","2","","","","","","",""
"null","Sounds/train_label.wav","null","audio-keyboard-response","487","520331","0.0-13.0-0.9","longtest","","2","","","","","","",""
"null","<p style=""font-size: 48px;"">+</p>","null","html-keyboard-response","488","521339","0.0-13.0-1.9","longtest","","2","","","","","","",""
"null","Images/train_2.png","null","image-keyboard-response","489","521593","0.0-13.0-2.9","longtest","","2","1580682868492","match","train","train","label","test","false"
"null","Sounds/incorrect.wav","null","audio-keyboard-response","490","523610","0.0-13.0-3.9","longtest","","2","","","","","","",""
"null","Sounds/cow_sound.wav","null","audio-keyboard-response","491","524611","0.0-13.0-0.10","longtest","","2","","","","","","",""
"null","<p style=""font-size: 48px;"">+</p>","null","html-keyboard-response","492","525605","0.0-13.0-1.10","longtest","","2","","","","","","",""
"null","Images/dog_cartoon.png","null","image-keyboard-response","493","525859","0.0-13.0-2.10","longtest","","2","1580682872758","non-match","dog","cow","sound","test","false"
"null","Sounds/incorrect.wav","null","audio-keyboard-response","494","527861","0.0-13.0-3.10","longtest","","2","","","","","","",""
"null","Sounds/gun_label.wav","null","audio-keyboard-response","495","528410","0.0-13.0-0.11","longtest","","2","","","","","","",""
"null","<p style=""font-size: 48px;"">+</p>","null","html-keyboard-response","496","529405","0.0-13.0-1.11","longtest","","2","","","","","","",""
"null","Images/cow_2.png","null","image-keyboard-response","497","529658","0.0-13.0-2.11","longtest","","2","1580682876558","non-match","cow","gun","label","test","false"
"null","Sounds/incorrect.wav","null","audio-keyboard-response","498","531661","0.0-13.0-3.11","longtest","","2","","","","","","",""
"null","Sounds/cat_label.wav","null","audio-keyboard-response","499","532511","0.0-13.0-0.12","longtest","","2","","","","","","",""
"null","<p style=""font-size: 48px;"">+</p>","null","html-keyboard-response","500","533505","0.0-13.0-1.12","longtest","","2","","","","","","",""
"null","Images/cow_3.png","null","image-keyboard-response","501","533757","0.0-13.0-2.12","longtest","","2","1580682880659","non-match","cow","cat","label","test","false"
"null","Sounds/incorrect.wav","null","audio-keyboard-response","502","535764","0.0-13.0-3.12","longtest","","2","","","","","","",""
"null","Sounds/car_sound.wav","null","audio-keyboard-response","503","536831","0.0-13.0-0.13","longtest","","2","","","","","","",""
"null","<p style=""font-size: 48px;"">+</p>","null","html-keyboard-response","504","537839","0.0-13.0-1.13","longtest","","2","","","","","","",""
"null","Images/rooster_2.png","null","image-keyboard-response","505","538091","0.0-13.0-2.13","longtest","","2","1580682884992","non-match","rooster","car","sound","test","false"
"null","Sounds/incorrect.wav","null","audio-keyboard-response","506","540095","0.0-13.0-3.13","longtest","","2","","","","","","",""
"null","Sounds/train_sound.wav","null","audio-keyboard-response","507","541391","0.0-13.0-0.14","longtest","","2","","","","","","",""
"null","<p style=""font-size: 48px;"">+</p>","null","html-keyboard-response","508","542389","0.0-13.0-1.14","longtest","","2","","","","","","",""
"null","Images/train_3.png","null","image-keyboard-response","509","542642","0.0-13.0-2.14","longtest","","2","1580682889542","match","train","train","sound","test","false"
"null","Sounds/incorrect.wav","null","audio-keyboard-response","510","544661","0.0-13.0-3.14","longtest","","2","","","","","","",""
"null","Sounds/rooster_sound.wav","null","audio-keyboard-response","511","545371","0.0-13.0-0.15","longtest","","2","","","","","","",""
"null","<p style=""font-size: 48px;"">+</p>","null","html-keyboard-response","512","546389","0.0-13.0-1.15","longtest","","2","","","","","","",""
"null","Images/rooster_3.png","null","image-keyboard-response","513","546641","0.0-13.0-2.15","longtest","","2","1580682893542","match","rooster","rooster","sound","test","false"
"null","Sounds/incorrect.wav","null","audio-keyboard-response","514","548645","0.0-13.0-3.15","longtest","","2","","","","","","",""
"null","Sounds/whistle_sound.wav","null","audio-keyboard-response","515","549351","0.0-13.0-0.16","longtest","","2","","","","","","",""
"null","<p style=""font-size: 48px;"">+</p>","null","html-keyboard-response","516","550356","0.0-13.0-1.16","longtest","","2","","","","","","",""
"null","Images/whistle_3.png","null","image-keyboard-response","517","550609","0.0-13.0-2.16","longtest","","2","1580682897509","match","whistle","whistle","sound","test","false"
"null","Sounds/incorrect.wav","null","audio-keyboard-response","518","552626","0.0-13.0-3.16","longtest","","2","","","","","","",""
"null","Sounds/gun_label.wav","null","audio-keyboard-response","519","553211","0.0-13.0-0.17","longtest","","2","","","","","","",""
"null","<p style=""font-size: 48px;"">+</p>","null","html-keyboard-response","520","554206","0.0-13.0-1.17","longtest","","2","","","","","","",""
"null","Images/train_orig.png","null","image-keyboard-response","521","554459","0.0-13.0-2.17","longtest","","2","1580682901359","non-match","train","gun","label","test","false"
"null","Sounds/incorrect.wav","null","audio-keyboard-response","522","556462","0.0-13.0-3.17","longtest","","2","","","","","","",""
"null","Sounds/gun_sound.wav","null","audio-keyboard-response","523","557031","0.0-13.0-0.18","longtest","","2","","","","","","",""
"null","<p style=""font-size: 48px;"">+</p>","null","html-keyboard-response","524","558039","0.0-13.0-1.18","longtest","","2","","","","","","",""
"null","Images/gun_cartoon.png","null","image-keyboard-response","525","558293","0.0-13.0-2.18","longtest","","2","1580682905192","match","gun","gun","sound","test","false"
"null","Sounds/incorrect.wav","null","audio-keyboard-response","526","560295","0.0-13.0-3.18","longtest","","2","","","","","","",""
"null","Sounds/frog_label.wav","null","audio-keyboard-response","527","561191","0.0-13.0-0.19","longtest","","2","","","","","","",""
"null","<p style=""font-size: 48px;"">+</p>","null","html-keyboard-response","528","562189","0.0-13.0-1.19","longtest","","2","","","","","","",""
"null","Images/motorcycle_3.png","null","image-keyboard-response","529","562441","0.0-13.0-2.19","longtest","","2","1580682909342","non-match","motorcycle","frog","label","test","false"
"null","Sounds/incorrect.wav","null","audio-keyboard-response","530","564446","0.0-13.0-3.19","longtest","","2","","","","","","",""
"null","Sounds/frog_label.wav","null","audio-keyboard-response","531","565311","0.0-13.0-0.20","longtest","","2","","","","","","",""
"null","<p style=""font-size: 48px;"">+</p>","null","html-keyboard-response","532","566306","0.0-13.0-1.20","longtest","","2","","","","","","",""
"null","Images/cow_cartoon.png","null","image-keyboard-response","533","566559","0.0-13.0-2.20","longtest","","2","1580682913459","non-match","cow","frog","label","test","false"
"null","Sounds/incorrect.wav","null","audio-keyboard-response","534","568563","0.0-13.0-3.20","longtest","","2","","","","","","",""
"null","Sounds/whistle_label.wav","null","audio-keyboard-response","535","569271","0.0-13.0-0.21","longtest","","2","","","","","","",""
"null","<p style=""font-size: 48px;"">+</p>","null","html-keyboard-response","536","570273","0.0-13.0-1.21","longtest","","2","","","","","","",""
"null","Images/whistle_1.png","null","image-keyboard-response","537","570525","0.0-13.0-2.21","longtest","","2","1580682917426","match","whistle","whistle","label","test","false"
"null","Sounds/incorrect.wav","null","audio-keyboard-response","538","572542","0.0-13.0-3.21","longtest","","2","","","","","","",""
"null","Sounds/car_sound.wav","null","audio-keyboard-response","539","573611","0.0-13.0-0.22","longtest","","2","","","","","","",""
"null","<p style=""font-size: 48px;"">+</p>","null","html-keyboard-response","540","574606","0.0-13.0-1.22","longtest","","2","","","","","","",""
"null","Images/car_cartoon.png","null","image-keyboard-response","541","574859","0.0-13.0-2.22","longtest","","2","1580682921759","match","car","car","sound","test","false"
"null","Sounds/incorrect.wav","null","audio-keyboard-response","542","576872","0.0-13.0-3.22","longtest","","2","","","","","","",""
"null","Sounds/motorcycle_label.wav","null","audio-keyboard-response","543","577991","0.0-13.0-0.23","longtest","","2","","","","","","",""
"null","<p style=""font-size: 48px;"">+</p>","null","html-keyboard-response","544","578989","0.0-13.0-1.23","longtest","","2","","","","","","",""
"null","Images/motorcycle_orig.png","null","image-keyboard-response","545","579243","0.0-13.0-2.23","longtest","","2","1580682926143","match","motorcycle","motorcycle","label","test","false"
"null","Sounds/incorrect.wav","null","audio-keyboard-response","546","581246","0.0-13.0-3.23","longtest","","2","","","","","","",""
"null","Sounds/frog_sound.wav","null","audio-keyboard-response","547","582151","0.0-13.0-0.24","longtest","","2","","","","","","",""
"null","<p style=""font-size: 48px;"">+</p>","null","html-keyboard-response","548","583156","0.0-13.0-1.24","longtest","","2","","","","","","",""
"null","Images/frog_orig.png","null","image-keyboard-response","549","583409","0.0-13.0-2.24","longtest","","2","1580682930309","match","frog","frog","sound","test","false"
"null","Sounds/incorrect.wav","null","audio-keyboard-response","550","585422","0.0-13.0-3.24","longtest","","2","","","","","","",""
"null","Sounds/rooster_sound.wav","null","audio-keyboard-response","551","586131","0.0-13.0-0.25","longtest","","2","","","","","","",""
"null","<p style=""font-size: 48px;"">+</p>","null","html-keyboard-response","552","587140","0.0-13.0-1.25","longtest","","2","","","","","","",""
"null","Images/dog_1.png","null","image-keyboard-response","553","587393","0.0-13.0-2.25","longtest","","2","1580682934293","non-match","dog","rooster","sound","test","false"
"null","Sounds/incorrect.wav","null","audio-keyboard-response","554","589411","0.0-13.0-3.25","longtest","","2","","","","","","",""
"null","Sounds/rooster_label.wav","null","audio-keyboard-response","555","590111","0.0-13.0-0.26","longtest","","2","","","","","","",""
"null","<p style=""font-size: 48px;"">+</p>","null","html-keyboard-response","556","591106","0.0-13.0-1.26","longtest","","2","","","","","","",""
"null","Images/train_2.png","null","image-keyboard-response","557","591360","0.0-13.0-2.26","longtest","","2","1580682938259","non-match","train","rooster","label","test","false"
"null","Sounds/incorrect.wav","null","audio-keyboard-response","558","593377","0.0-13.0-3.26","longtest","","2","","","","","","",""
"null","Sounds/frog_label.wav","null","audio-keyboard-response","559","594271","0.0-13.0-0.27","longtest","","2","","","","","","",""
"null","<p style=""font-size: 48px;"">+</p>","null","html-keyboard-response","560","595273","0.0-13.0-1.27","longtest","","2","","","","","","",""
"null","Images/frog_3.png","null","image-keyboard-response","561","595527","0.0-13.0-2.27","longtest","","2","1580682942426","match","frog","frog","label","test","false"
"null","Sounds/incorrect.wav","null","audio-keyboard-response","562","597544","0.0-13.0-3.27","longtest","","2","","","","","","",""
"null","Sounds/frog_label.wav","null","audio-keyboard-response","563","598411","0.0-13.0-0.28","longtest","","2","","","","","","",""
"null","<p style=""font-size: 48px;"">+</p>","null","html-keyboard-response","564","599407","0.0-13.0-1.28","longtest","","2","","","","","","",""
"null","Images/rooster_orig.png","null","image-keyboard-response","565","599660","0.0-13.0-2.28","longtest","","2","1580682946560","non-match","rooster","frog","label","test","false"
"null","Sounds/incorrect.wav","null","audio-keyboard-response","566","601664","0.0-13.0-3.28","longtest","","2","","","","","","",""
"null","Sounds/rooster_label.wav","null","audio-keyboard-response","567","602331","0.0-13.0-0.29","longtest","","2","","","","","","",""
"null","<p style=""font-size: 48px;"">+</p>","null","html-keyboard-response","568","603340","0.0-13.0-1.29","longtest","","2","","","","","","",""
"null","Images/rooster_1.png","null","image-keyboard-response","569","603593","0.0-13.0-2.29","longtest","","2","1580682950493","match","rooster","rooster","label","test","false"
"null","Sounds/incorrect.wav","null","audio-keyboard-response","570","605611","0.0-13.0-3.29","longtest","","2","","","","","","",""
"null","Sounds/whistle_sound.wav","null","audio-keyboard-response","571","606311","0.0-13.0-0.30","longtest","","2","","","","","","",""
"null","<p style=""font-size: 48px;"">+</p>","null","html-keyboard-response","572","607307","0.0-13.0-1.30","longtest","","2","","","","","","",""
"null","Images/whistle_2.png","null","image-keyboard-response","573","607561","0.0-13.0-2.30","longtest","","2","1580682954460","match","whistle","whistle","sound","test","false"
"null","Sounds/incorrect.wav","null","audio-keyboard-response","574","609579","0.0-13.0-3.30","longtest","","2","","","","","","",""
"null","Sounds/dog_sound.wav","null","audio-keyboard-response","575","610291","0.0-13.0-0.31","longtest","","2","","","","","","",""
"null","<p style=""font-size: 48px;"">+</p>","null","html-keyboard-response","576","611290","0.0-13.0-1.31","longtest","","2","","","","","","",""
"null","Images/gun_3.png","null","image-keyboard-response","577","611543","0.0-13.0-2.31","longtest","","2","1580682958443","non-match","gun","dog","sound","test","false"
"null","Sounds/incorrect.wav","null","audio-keyboard-response","578","613548","0.0-13.0-3.31","longtest","","2","","","","","","",""
"null","Sounds/train_sound.wav","null","audio-keyboard-response","579","614851","0.0-13.0-0.32","longtest","","2","","","","","","",""
"null","<p style=""font-size: 48px;"">+</p>","null","html-keyboard-response","580","615857","0.0-13.0-1.32","longtest","","2","","","","","","",""
"null","Images/motorcycle_1.png","null","image-keyboard-response","581","616110","0.0-13.0-2.32","longtest","","2","1580682963010","non-match","motorcycle","train","sound","test","false"
"null","Sounds/incorrect.wav","null","audio-keyboard-response","582","618128","0.0-13.0-3.32","longtest","","2","","","","","","",""
"null","Sounds/dog_label.wav","null","audio-keyboard-response","583","618791","0.0-13.0-0.33","longtest","","2","","","","","","",""
"null","<p style=""font-size: 48px;"">+</p>","null","html-keyboard-response","584","619790","0.0-13.0-1.33","longtest","","2","","","","","","",""
"null","Images/car_cartoon.png","null","image-keyboard-response","585","620044","0.0-13.0-2.33","longtest","","2","1580682966944","non-match","car","dog","label","test","false"
"null","Sounds/incorrect.wav","null","audio-keyboard-response","586","622046","0.0-13.0-3.33","longtest","","2","","","","","","",""
"null","Sounds/car_label.wav","null","audio-keyboard-response","587","623131","0.0-13.0-0.34","longtest","","2","","","","","","",""
"null","<p style=""font-size: 48px;"">+</p>","null","html-keyboard-response","588","624140","0.0-13.0-1.34","longtest","","2","","","","","","",""
"null","Images/car_2.png","null","image-keyboard-response","589","624394","0.0-13.0-2.34","longtest","","2","1580682971293","match","car","car","label","test","false"
"null","Sounds/incorrect.wav","null","audio-keyboard-response","590","626412","0.0-13.0-3.34","longtest","","2","","","","","","",""
"null","Sounds/car_sound.wav","null","audio-keyboard-response","591","627491","0.0-13.0-0.35","longtest","","2","","","","","","",""
"null","<p style=""font-size: 48px;"">+</p>","null","html-keyboard-response","592","628490","0.0-13.0-1.35","longtest","","2","","","","","","",""
"null","Images/frog_1.png","null","image-keyboard-response","593","628744","0.0-13.0-2.35","longtest","","2","1580682975644","non-match","frog","car","sound","test","false"
"null","Sounds/incorrect.wav","null","audio-keyboard-response","594","630761","0.0-13.0-3.35","longtest","","2","","","","","","",""
"null","Sounds/cat_label.wav","null","audio-keyboard-response","595","631591","0.0-13.0-0.36","longtest","","2","","","","","","",""
"null","<p style=""font-size: 48px;"">+</p>","null","html-keyboard-response","596","632590","0.0-13.0-1.36","longtest","","2","","","","","","",""
"null","Images/motorcycle_cartoon.png","null","image-keyboard-response","597","632844","0.0-13.0-2.36","longtest","","2","1580682979744","non-match","motorcycle","cat","label","test","false"
"null","Sounds/incorrect.wav","null","audio-keyboard-response","598","634862","0.0-13.0-3.36","longtest","","2","","","","","","",""
"null","Sounds/car_sound.wav","null","audio-keyboard-response","599","635911","0.0-13.0-0.37","longtest","","2","","","","","","",""
"null","<p style=""font-size: 48px;"">+</p>","null","html-keyboard-response","600","636907","0.0-13.0-1.37","longtest","","2","","","","","","",""
"null","Images/motorcycle_2.png","null","image-keyboard-response","601","637160","0.0-13.0-2.37","longtest","","2","1580682984060","non-match","motorcycle","car","sound","test","false"
"null","Sounds/incorrect.wav","null","audio-keyboard-response","602","639173","0.0-13.0-3.37","longtest","","2","","","","","","",""
"null","Sounds/train_sound.wav","null","audio-keyboard-response","603","640471","0.0-13.0-0.38","longtest","","2","","","","","","",""
"null","<p style=""font-size: 48px;"">+</p>","null","html-keyboard-response","604","641474","0.0-13.0-1.38","longtest","","2","","","","","","",""
"null","Images/car_3.png","null","image-keyboard-response","605","641727","0.0-13.0-2.38","longtest","","2","1580682988627","non-match","car","train","sound","test","false"
"null","Sounds/incorrect.wav","null","audio-keyboard-response","606","643744","0.0-13.0-3.38","longtest","","2","","","","","","",""
"null","Sounds/frog_label.wav","null","audio-keyboard-response","607","644651","0.0-13.0-0.39","longtest","","2","","","","","","",""
"null","<p style=""font-size: 48px;"">+</p>","null","html-keyboard-response","608","645657","0.0-13.0-1.39","longtest","","2","","","","","","",""
"null","Images/gun_orig.png","null","image-keyboard-response","609","645911","0.0-13.0-2.39","longtest","","2","1580682992810","non-match","gun","frog","label","test","false"
"null","Sounds/incorrect.wav","null","audio-keyboard-response","610","647920","0.0-13.0-3.39","longtest","","2","","","","","","",""
"null","Sounds/dog_sound.wav","null","audio-keyboard-response","611","648631","0.0-13.0-0.40","longtest","","2","","","","","","",""
"null","<p style=""font-size: 48px;"">+</p>","null","html-keyboard-response","612","649641","0.0-13.0-1.40","longtest","","2","","","","","","",""
"null","Images/dog_2.png","null","image-keyboard-response","613","649894","0.0-13.0-2.40","longtest","","2","1580682996794","match","dog","dog","sound","test","false"
"null","Sounds/incorrect.wav","null","audio-keyboard-response","614","651896","0.0-13.0-3.40","longtest","","2","","","","","","",""
"null","Sounds/whistle_sound.wav","null","audio-keyboard-response","615","652591","0.0-13.0-0.41","longtest","","2","","","","","","",""
"null","<p style=""font-size: 48px;"">+</p>","null","html-keyboard-response","616","653591","0.0-13.0-1.41","longtest","","2","","","","","","",""
"null","Images/whistle_cartoon.png","null","image-keyboard-response","617","653844","0.0-13.0-2.41","longtest","","2","1580683000744","match","whistle","whistle","sound","test","false"
"null","Sounds/incorrect.wav","null","audio-keyboard-response","618","655847","0.0-13.0-3.41","longtest","","2","","","","","","",""
"null","Sounds/train_label.wav","null","audio-keyboard-response","619","657132","0.0-13.0-0.42","longtest","","2","","","","","","",""
"null","<p style=""font-size: 48px;"">+</p>","null","html-keyboard-response","620","658141","0.0-13.0-1.42","longtest","","2","","","","","","",""
"null","Images/whistle_cartoon.png","null","image-keyboard-response","621","658394","0.0-13.0-2.42","longtest","","2","1580683005294","non-match","whistle","train","label","test","false"
"null","Sounds/incorrect.wav","null","audio-keyboard-response","622","660398","0.0-13.0-3.42","longtest","","2","","","","","","",""
"null","Sounds/cow_sound.wav","null","audio-keyboard-response","623","661412","0.0-13.0-0.43","longtest","","2","","","","","","",""
"null","<p style=""font-size: 48px;"">+</p>","null","html-keyboard-response","624","662408","0.0-13.0-1.43","longtest","","2","","","","","","",""
"null","Images/gun_cartoon.png","null","image-keyboard-response","625","662663","0.0-13.0-2.43","longtest","","2","1580683009561","non-match","gun","cow","sound","test","false"
"null","Sounds/incorrect.wav","null","audio-keyboard-response","626","664679","0.0-13.0-3.43","longtest","","2","","","","","","",""
"null","Sounds/motorcycle_sound.wav","null","audio-keyboard-response","627","665792","0.0-13.0-0.44","longtest","","2","","","","","","",""
"null","<p style=""font-size: 48px;"">+</p>","null","html-keyboard-response","628","666791","0.0-13.0-1.44","longtest","","2","","","","","","",""
"null","Images/cow_1.png","null","image-keyboard-response","629","667045","0.0-13.0-2.44","longtest","","2","1580683013944","non-match","cow","motorcycle","sound","test","false"
"null","Sounds/incorrect.wav","null","audio-keyboard-response","630","669063","0.0-13.0-3.44","longtest","","2","","","","","","",""
"null","Sounds/cat_label.wav","null","audio-keyboard-response","631","669912","0.0-13.0-0.45","longtest","","2","","","","","","",""
"null","<p style=""font-size: 48px;"">+</p>","null","html-keyboard-response","632","670908","0.0-13.0-1.45","longtest","","2","","","","","","",""
"null","Images/cat_2.png","null","image-keyboard-response","633","671162","0.0-13.0-2.45","longtest","","2","1580683018061","match","cat","cat","label","test","false"
"null","Sounds/incorrect.wav","null","audio-keyboard-response","634","673179","0.0-13.0-3.45","longtest","","2","","","","","","",""
"null","Sounds/frog_label.wav","null","audio-keyboard-response","635","674072","0.0-13.0-0.46","longtest","","2","","","","","","",""
"null","<p style=""font-size: 48px;"">+</p>","null","html-keyboard-response","636","675075","0.0-13.0-1.46","longtest","","2","","","","","","",""
"null","Images/frog_2.png","null","image-keyboard-response","637","675330","0.0-13.0-2.46","longtest","","2","1580683022228","match","frog","frog","label","test","false"
"null","Sounds/incorrect.wav","null","audio-keyboard-response","638","677347","0.0-13.0-3.46","longtest","","2","","","","","","",""
"null","Sounds/dog_sound.wav","null","audio-keyboard-response","639","678052","0.0-13.0-0.47","longtest","","2","","","","","","",""
"null","<p style=""font-size: 48px;"">+</p>","null","html-keyboard-response","640","679058","0.0-13.0-1.47","longtest","","2","","","","","","",""
"null","Images/whistle_orig.png","null","image-keyboard-response","641","679312","0.0-13.0-2.47","longtest","","2","1580683026211","non-match","whistle","dog","sound","test","false"
"null","Sounds/incorrect.wav","null","audio-keyboard-response","642","681329","0.0-13.0-3.47","longtest","","2","","","","","","",""
"null","Sounds/whistle_sound.wav","null","audio-keyboard-response","643","682032","0.0-13.0-0.48","longtest","","2","","","","","","",""
"null","<p style=""font-size: 48px;"">+</p>","null","html-keyboard-response","644","683041","0.0-13.0-1.48","longtest","","2","","","","","","",""
"null","Images/train_3.png","null","image-keyboard-response","645","683294","0.0-13.0-2.48","longtest","","2","1580683030195","non-match","train","whistle","sound","test","false"
"null","Sounds/incorrect.wav","null","audio-keyboard-response","646","685299","0.0-13.0-3.48","longtest","","2","","","","","","",""
"null","Sounds/cat_sound.wav","null","audio-keyboard-response","647","686132","0.0-13.0-0.49","longtest","","2","","","","","","",""
"null","<p style=""font-size: 48px;"">+</p>","null","html-keyboard-response","648","687141","0.0-13.0-1.49","longtest","","2","","","","","","",""
"null","Images/frog_2.png","null","image-keyboard-response","649","687394","0.0-13.0-2.49","longtest","","2","1580683034295","non-match","frog","cat","sound","test","false"
"null","Sounds/incorrect.wav","null","audio-keyboard-response","650","689397","0.0-13.0-3.49","longtest","","2","","","","","","",""
"null","Sounds/frog_label.wav","null","audio-keyboard-response","651","690272","0.0-13.0-0.50","longtest","","2","","","","","","",""
"null","<p style=""font-size: 48px;"">+</p>","null","html-keyboard-response","652","691275","0.0-13.0-1.50","longtest","","2","","","","","","",""
"null","Images/car_1.png","null","image-keyboard-response","653","691528","0.0-13.0-2.50","longtest","","2","1580683038428","non-match","car","frog","label","test","false"
"null","Sounds/incorrect.wav","null","audio-keyboard-response","654","693545","0.0-13.0-3.50","longtest","","2","","","","","","",""
"null","Sounds/rooster_label.wav","null","audio-keyboard-response","655","694252","0.0-13.0-0.51","longtest","","2","","","","","","",""
"null","<p style=""font-size: 48px;"">+</p>","null","html-keyboard-response","656","695258","0.0-13.0-1.51","longtest","","2","","","","","","",""
"null","Images/gun_2.png","null","image-keyboard-response","657","695511","0.0-13.0-2.51","longtest","","2","1580683042411","non-match","gun","rooster","label","test","false"
"null","Sounds/incorrect.wav","null","audio-keyboard-response","658","697518","0.0-13.0-3.51","longtest","","2","","","","","","",""
"null","Sounds/cat_label.wav","null","audio-keyboard-response","659","698352","0.0-13.0-0.52","longtest","","2","","","","","","",""
"null","<p style=""font-size: 48px;"">+</p>","null","html-keyboard-response","660","699358","0.0-13.0-1.52","longtest","","2","","","","","","",""
"null","Images/dog_3.png","null","image-keyboard-response","661","699611","0.0-13.0-2.52","longtest","","2","1580683046511","non-match","dog","cat","label","test","false"
"null","Sounds/incorrect.wav","null","audio-keyboard-response","662","701614","0.0-13.0-3.52","longtest","","2","","","","","","",""
"null","Sounds/cat_label.wav","null","audio-keyboard-response","663","702432","0.0-13.0-0.53","longtest","","2","","","","","","",""
"null","<p style=""font-size: 48px;"">+</p>","null","html-keyboard-response","664","703442","0.0-13.0-1.53","longtest","","2","","","","","","",""
